t,ang acc x,ang acc y,ang acc z,ang vel x,ang vel y,ang vel z,quat x,quat y,quat z,quat w,acc x,acc y,acc z,vel x,vel y,vel z,pos x,pos y,pos z,mot 1,mot 2,mot 3,mot 4,dmot 1,dmot 2,dmot 3,dmot 4,vbat
47.7049999999999982946974,1.59824749692065726236478,-0.210091288488948174650872,-0.490164249458264256187334,-0.00403641768135135775574796,0.0133245181867042965934145,-0.0126165924876097852724843,0.00317460884017993754530051,0.000544633607225182450432832,0.0214585015919077186363761,0.999764387319229119732711,-0.00466567474647507085538933,0.00166501409538886285810477,9.71745147572925205281535,-0.00482338240645826567265519,0.000594344517757131127894121,-0.00337377017833197061225103,9.13911558464418938285689,3.73452618328475738351813,2.09805231355763677214554,1096.42954194920707777783,1093.70248778991958715778,1103.1111299473807321192,1114.24613184334907600714,-150.150203798389640041933,440.71521473374752986274,-601.806458173733972216723,-22.091880134610232033765,158.409503273866420158811
47.707500000000003126388,1.65756346913893604089196,-0.59184384993862937385245,-0.110268949680758759912536,0.00287851213818771144506425,0.0122931791972378835764435,-0.0146073758650090441274516,0.00316174933278283833495981,0.000555023833953701317862894,0.0214498087262653264195578,0.999764603478495050836727,-0.00611490264688471438225825,0.00262702215457869675541147,9.71819233967058160317265,-0.00482737789507716417991556,0.000515886386904353512819488,-0.0035804081787471826216207,9.13910195866441732448493,3.73452830609203134670793,2.09804579078524122692784,1096.28082540932814481494,1094.81221168869865323359,1101.39027877326520865608,1114.06677301808736046951,39.7595195660211473409618,351.918360485662617520575,-630.321805341141498502111,-105.25586398465820536785,158.408672691405797650077
47.7100000000000008526513,1.57156891213131544304815,-0.882812332718712067247679,0.24104300473268111537628,0.00705675726095067196858013,0.00972721716174660203102498,-0.0150538681078326939261069,0.0031457535107746316220545,0.000567120599513056770218933,0.0214426742057189333168221,0.99976479480384006226501,-0.00759596101967196721260756,0.00370468792077274788887564,9.71899953892056345239325,-0.00483288332522064864593681,0.000439214194362872638668915,-0.00379270638833667647280001,9.13908839396011529743191,3.73452931378948393970063,2.09803907398738065381849,1096.62833954703728522873,1095.46207959234880036092,1099.95952092067341254733,1113.71985252342551575566,231.651056964603100141176,186.5496242973554785749,-536.526548495827682927484,-176.08138724501813499046,158.407889787232988965116
47.7124999999999985789145,1.39382971130669952586345,-1.08924839273761420166409,0.578491408334514733979859,0.00978473831554275801092313,0.00621066245194227661147179,-0.0137606088503992793348196,0.00313067013495497981079296,0.000584527492761670601668922,0.0214384859738921927652111,0.999764918180170658601469,-0.0091568494566431034298315,0.00496926916133629686944673,9.71989472328766268560685,-0.00484010451820882699885962,0.000365930918237884750515015,-0.0040118432798396498964455,9.13907472516109820048769,3.73452898218283291242869,2.09803278391360947807698,1097.43908069415010686498,1095.74495981018458223843,1098.70764603078850996098,1113.18636608186307057622,454.815476183461385062401,35.291749841853878422171,-478.345196370247265349462,-276.003568067421610976453,158.407011136115073668407
47.7150000000000034106051,1.12625945552060802157257,-1.19459938935458853670468,0.906813322860984039053278,0.0124000688529047921326853,0.0016536457555325601541385,-0.0102595133827796357317563,0.00311941057566874962656001,0.000614029486159291737132349,0.021439583167476194275336,0.999764910827450559160923,-0.0109064422136341092339773,0.0064661681027272030486408,9.72090119043649991681377,-0.00484944974775234488584275,0.000297620412756749853737392,-0.00423854970651813076770731,9.13906098001184297174859,3.73452782163751484389991,2.09802730490420108466765,1098.9024169279557554546,1095.63853834155816002749,1097.56779493882095266599,1112.33983468308770170552,610.160219428650407280657,-107.359504486239174525508,-345.02094262980421035536,-342.022870314538181446551,158.405844607520009503787
47.7175000000000011368684,0.884364024584077923485381,-1.1465858660674241864541,1.0824091441622420983748,0.0142374999701106591531996,-0.00214960596087104610293905,-0.00640797352711616492043634,0.00311214907036341976998006,0.000655040600273087058810773,0.0214439230616252328454063,0.999764814550173408491673,-0.012810095631099988749968,0.00817932447657358091541724,9.7220430028425788293589,-0.004861633678984332053441,0.000235689451887882391641765,-0.00447284758137057782828583,9.13904722473043662489545,3.73452676318264886745624,2.09802145936900741318709,1100.48988179129491982167,1095.20816228775311174104,1096.98254131763860641513,1111.47625173028950484877,698.338658498231211524399,-227.464373629552454758596,-156.307460637759788824042,-368.149154588280111966014,158.404778565524708255907
47.7199999999999988631316,0.642188166492280609887189,-0.954324330035187351484183,1.13764544175676718396062,0.015499424344906097966712,-0.00584188352383968947934001,-0.00257452930326403182231809,0.00311214374612986790016866,0.000703223039225670887644726,0.021447655224723034816936,0.999764703818624811404447,-0.0147574400648973549921017,0.0101461080272820872161255,9.72334285186360602892819,-0.0048776582103413953367399,0.000181309516882298919901104,-0.00471397942498226994734178,9.13903386180798449345275,3.73452602944142686425266,2.09801446170330763152378,1102.39411022044373567041,1094.50121647341143216181,1096.78625763563286454882,1110.49908891014797518437,799.940754127283071284182,-311.758125952178147599625,-20.5964162204858567406518,-395.83198999478315727174,158.40361526464400299119
47.7225000000000036948222,0.407050782907468378102323,-0.653583862951446326050586,1.0960393450572902818152,0.0164508866822598055768001,-0.00917054090569151790501845,0.000931802031855297175320929,0.00312361819535447596610234,0.000751545666158100742794412,0.0214455539751276826054838,0.999764682553090922034755,-0.0165839337738126757493262,0.0124169740568726982843373,9.72482070526816322342256,-0.0048987691780842416641728,0.000135473262948255829436761,-0.00496043093480015139656869,9.13902141370056853020287,3.73452532911168599838447,2.09800615542424440107538,1104.48958556193338154117,1093.64937165799142348988,1096.87955923653612444468,1109.49709178031457668112,859.614570482032377185533,-349.805427238746460716357,91.9379668119275095250487,-386.051351952103573239583,158.402372105092013043759
47.7250000000000014210855,0.182792241032628088870382,-0.254837357150253296378395,0.956546246385776899323616,0.0172479577330917621669215,-0.0112840731512384891133127,0.00398540143510491429862386,0.00314390550549152386280993,0.000792493029303653812901731,0.021433093041729248812155,0.999764860618544748405156,-0.0181173020121845919361281,0.0149042158927313664329439,9.72649313659810665910754,-0.00492633884711873425849005,9.91271925051815831287164e-05,-0.00521005142654725177803199,9.13900956424231836194849,3.73452413117050197044477,2.09799569336604196934104,1106.69218307285609625978,1092.75218933721680514282,1097.2459474696927372861,1108.56883215038646994799,953.412467348928998944757,-367.054262147500651281007,197.865854864356037978723,-368.604434012303158851864,158.401034355848310042347
47.7274999999999991473487,-0.0721668046295659976197001,0.271430403879411696888013,0.714078802087649844310135,0.017591967853371803798268,-0.0116757280593133561108488,0.00688124359136696624184015,0.00316874665741314395089878,0.000821660203771881194820259,0.0214113659176082410384723,0.999765229012755218818143,-0.0192454908565184643065571,0.0174873033969639643525618,9.72837141027748764088301,-0.00496170883720970130881245,7.31563047695261737006153e-05,-0.00546026917681583130737,9.13899848336240872015424,3.73452234321824105833798,2.09798262628495546522345,1109.25664789867369108833,1091.81410034725558944046,1097.86888851085700480326,1107.65406961025473719928,894.235290685080144612584,-292.319928894026418220164,236.235695488510032191698,-293.648814876801054651878,158.399322870832236276328
47.7300000000000039790393,-0.26973768519932961318375,0.692189454087423050587802,0.484488897236101723198232,0.0170701257895720104329484,-0.0100922788395182514570303,0.00811775817661383215784188,0.00319742001683039327869507,0.000833981867940924125048863,0.0213825974776423941015047,0.999765744794996025213152,-0.0198421361687706708509804,0.0201117183671285643109528,9.73046009927643495984739,-0.00500610608640010643771712,5.82210646876280674393705e-05,-0.00570831070698794677820143,9.13898845721606001291093,3.73452032507596376476044,2.09796734985096167136476,1111.16335952628378436202,1091.29058969274592527654,1098.4271259471358916926,1107.10058807600171348895,677.146932909198881134216,-126.284817796548821888791,204.418114389259244489949,-179.220292069339109275461,158.397811152084244668004
47.7325000000000017053026,-0.447953364037617152160209,1.02708795374776507003389,0.269567759386666327969806,0.0156880111259496378417477,-0.00684846522955909805391306,0.00774581612413957187185387,0.0032287506484108513364617,0.000826321770389857571288694,0.0213518899631987731091431,0.999766304825659424260209,-0.019819505271498925186302,0.0227133856686852556028278,9.73275667399169819304916,-0.00506045008788529385168609,5.47527762997652070312872e-05,-0.00595148691637939399740054,9.13898022016286404323182,3.7345181094522841291905,2.0979506431413970091171,1112.64238256322141751298,1091.18267625827252231829,1098.89097908280382398516,1106.75796814990758321073,517.897021685637696464255,68.8174739000431259228208,159.5524181280866855559,-112.443607720808756766928,158.396215099255528002686
47.7349999999999994315658,-0.641630488195699233422431,1.26876568838665582106273,0.0632038707027737928223488,0.0135267470455508014015589,-0.00184694680563580494736531,0.00642126509305713209785349,0.00326070361433316528027015,0.000799928470867751787928834,0.0213232726834617428157692,0.999766828827393649881117,-0.0191780028542474501040971,0.0252125339128112177511376,9.73525107160688385476988,-0.00512507613547798397679589,6.28768940907596662892587e-05,-0.00618739860780066416867662,9.13897420981362884617738,3.73451570270896615610923,2.09793338260996575783679,1113.7528446347096178215,1091.63467706224582798313,1099.22488803777559951413,1106.53837003739818101167,282.301187838439716415451,263.492962019837989373627,79.6263360417971881588528,-55.749504773501612930886,158.394208110858642157837
47.7375000000000042632564,-0.794954431792863958072815,1.3102129161575535309936,-0.0599856049996663684420461,0.0119490554942950927969081,0.00278728580135260452232959,0.00558810160477869397044337,0.00329391490347780450595461,0.000760449829107895792883187,0.0212965749617411992389293,0.999767313878804020355062,-0.0180068311231795542826095,0.027583278609785037704949,9.73792524989223196030252,-0.00519941394734835075908119,8.23000119031522459804931e-05,-0.00641400062402716630849397,9.13896936099220624782902,3.73451355922498562378564,2.09791613604781801427634,1114.05388850241433829069,1092.50014106837238614389,1099.28911076301301363856,1106.47922062603993254015,-10.0124894870481213615676,429.70178265632813463526,-10.466105784320564708878,1.41442971948818407845749,158.392463496640573339391
47.7400000000000019895197,-0.953486510251747132471678,1.1789324603606612384965,-0.145220223741885923196548,0.0110294072201659303783527,0.00758825293508655698837551,0.00554670010611075289114202,0.00332919858975739462250698,0.000717864270836196592499856,0.0212732192757036850383479,0.999767719561996504040735,-0.0164850205527166809860162,0.0298063762342259327975391,9.74075384696712198717705,-0.00528172035119024024796275,0.000112387751730699193461992,-0.00662956613400682986947388,9.13896354249635045619016,3.73451172151162724688334,2.09789896895468785942285,1113.70278218727435159963,1093.78318597552856772381,1099.17255750885396992089,1106.54544218599562555028,-283.468666009533478700178,618.396728516580310497375,-68.132761552276974725828,71.6722676596161107909211,158.390649175890899869046
47.7424999999999997157829,-1.15177300560052753297668,0.849774688239443243276128,-0.224943005751483460219475,0.00979568806163412519882883,0.0127105009647852859600015,0.00602719927981653844084597,0.00336798898050416324959078,0.000678775092424847349172057,0.0212531521170068495030225,0.999768038150326443513904,-0.0147329748651213211785294,0.0318755538935641055675596,9.74370515229511902077775,-0.00536913539061204155011797,0.000152157689677289277661171,-0.00683251461773100830787708,9.13895542059959353764498,3.7345100383255691589568,2.09788238652797476291312,1112.63654517236795982171,1095.59212471095247565245,1098.94844695525193856156,1106.83758196433768716815,-467.571159714332281964744,667.650389793214003475441,-73.1129761726361806495333,159.953360206154655998034,158.3883974046988214468
47.7449999999999974420462,-1.30632113145640826878946,0.478766909964752296335888,-0.280575874272312675294927,0.00745347057439706139891911,0.015275853361215480097357,0.00605511082622272201608782,0.00340838079188713781106368,0.000646138117520635461496492,0.0212318437714233490543059,0.999768370078318202587297,-0.0128102645027174943948012,0.033721152821761989082372,9.74674243838252607474715,-0.0054578996023727475994658,0.000200339214341302174508461,-0.00702128456170437488526037,9.13894425237858953892101,3.73450889894800219792614,2.09786544837248456474299,1111.36492638870481641789,1097.12143792449160173419,1098.80699262799112148059,1107.34520898702567137661,-538.152591755440198539873,566.812177029561212293629,-21.3936700486901507645143,279.414640981024433585844,158.386463171501702618116
47.7475000000000022737368,-1.41181794010861838550852,0.0855229699910994844991308,-0.322086105369522757158052,0.00319251906430629639813135,0.0150581221208060996724631,0.00505494923093531469543427,0.00344557998003127601352458,0.000624707624925059353329648,0.0212092725953106978065144,0.999768728461278510799559,-0.0108216585241501205005843,0.0352222991798568293986271,9.74982462905367164296422,-0.00554364613066153123777102,0.000255528725064957710176594,-0.00719430770121379584147725,9.13892998671081357997537,3.73450857013948311902141,2.09784756460408328138101,1109.94578221358938208141,1098.42618559610173178953,1098.84147860500843307818,1108.23465516924352414208,-552.039692884445230447454,454.180437260487906314665,56.0898643470122379994791,428.605368416500766670652,158.384474266776948070401
47.75,-1.44988373839101236661975,-0.26607907521032164721575,-0.346889291534780319636866,-0.00194193572208919691506057,0.012893783097391761996442,0.00359484918294113338366191,0.00347363270951248168799674,0.000616614802341205873494057,0.0211909943116493949821777,0.999769013953023311103152,-0.00883044599314082578889185,0.0362394403669929962563678,9.75290743397227544164707,-0.00562188132344975961124378,0.000316279117802927445691347,-0.00734998186185952060572868,9.13891352996244954454141,3.73450851064439781623605,2.0978282626451010273172,1108.60472792428117827512,1099.39234011079520314524,1099.08744194972632612917,1109.4882358291092714353,-478.494283095804803451756,283.19107301106959084791,153.494142181992629048182,584.887206821926952216018,158.38244399678760032657
47.7524999999999977262632,-1.39462568433656564081957,-0.516168389835774288343373,-0.352331446595899322460355,-0.00685109856924718749193737,0.00956860456222370647783038,0.00223966231107104079070536,0.00348275158749478596850735,0.000622455962007546922086509,0.0211826104978245048637842,0.999769139137003159945039,-0.00688096008553866662904586,0.0365630435964833869211255,9.75594504163616704772721,-0.00568833843272020887177343,0.000381150341093230396634362,-0.00748679622119562127036119,9.13889574048638664294231,3.73450836414136677632314,2.09780687952311506450087,1107.55331079811253403022,1099.84214096115579195612,1099.60894931591769818624,1111.15909120335049919959,-371.130924526088392667589,74.9655408777087615135315,282.02212188656756097771,801.168415817573418280517,158.38036869196943712268
47.7550000000000025579538,-1.23627407044184844941981,-0.675555634895563583697253,-0.348843559159780436385034,-0.0115706706772973656749404,0.00553883335564293432379257,0.00109968070668812014679949,0.00346935315878699928118789,0.000644640580773640152305315,0.0211847120474660671751721,0.999769098774676567842334,-0.0050594485656806978401967,0.0361111893072995279729831,9.75888998673126906169273,-0.00573919815402987310015703,0.000448512916095641326220261,-0.00760358420437103488948027,9.13887618147400004886549,3.73450867842491085468737,2.09778293962947515183259,1106.74907330164978702669,1099.7671678151839387283,1100.49755255915988527704,1113.49407790819918773195,-223.586644798819378365806,-114.950020471256124210413,351.334513544227206693904,872.6332484717287343301,158.377832489410337757363
47.7575000000000002842171,-1.05548273058877462027283,-0.704256659524434058816666,-0.351069325723580683007441,-0.0140247604724298684936157,0.00288975973695209656030847,0.000568847521498631100017596,0.00343209993413452285962451,0.000682698070246449311218595,0.0211965199554755429067754,0.999768912900184436587381,-0.00340256993766514630184172,0.0348511304254280965264634,9.76169568863515735301917,-0.00577138986511049976307897,0.000516650209191726449836635,-0.00769976326983937229414545,9.13885440721458586210701,3.73450906531785209452323,2.0977570222229275920256,1106.43537757411786515149,1099.26739085879921731248,1101.36562188363973291416,1115.5222574457113751123,-80.9438828584742964267207,-256.107817231992271445051,344.840796514422265772737,771.559617019030611118069,158.375685142149791317934
47.7599999999999980104803,-0.861257746592940076624245,-0.664947903434281450962828,-0.373082427676369454694338,-0.0150418832539313280377558,0.00126093296098602879878881,0.000326829921281558363234387,0.00337299802459756475209174,0.000731408768076303420109519,0.0212168879378248527445283,0.999768602736832434629832,-0.00185852217823198606616586,0.0328203392144147745868032,9.7643182880091554665114,-0.00578289918270971300962024,0.000583768082557306611235504,-0.00777561217152983319422788,9.13883109423858108755212,3.734509525904314397593,2.09772954672062139636068,1106.34435388735778360569,1098.48662872902514209272,1102.22175654173042858019,1117.35187599329083241173,-37.9492918172478823635174,-357.568076886717676643457,339.415097447598839153216,696.275657975191620607802,158.373507521393065644588
47.7625000000000028421709,-0.639684826421307306532071,-0.596125303585207544365687,-0.429410109320136734734064,-0.0156726605697342924461424,0.000288564492465612719949986,9.37213627746081841349973e-05,0.00330010222712743455167339,0.000784898933229545851981979,0.0212455317089156291154861,0.999768152984296998297964,-0.000363577355402818630514261,0.0301812651189207678537052,9.76671826603208792505484,-0.00577294868644489048148394,0.0006479629315547326320196,-0.0078325528874009855972993,9.13880858716672506147916,3.73451007005523694104454,2.09770193559809703387486,1106.24563111503152867954,1097.47955047436471431865,1103.06269737087859539315,1119.00363573558911411965,-67.8926502385928074545518,-345.629104235927627541969,256.069293922251688400138,482.970840487112866412645,158.370864590053571419048
47.7650000000000005684342,-0.466597704041906480298962,-0.557330430747822513914969,-0.496692583843703738821773,-0.0164916658364617219056925,4.95528493965835753823357e-06,-0.000290608110059494158510657,0.00322260025511685076551882,0.000834660171529802929167585,0.0212816314762471862909177,0.999767561483259847854299,0.0011967315289887212395592,0.0271245850572161897873436,9.76886339300491712833718,-0.0057420727670627136687842,0.000707268500562670461052905,-0.00787322642316095298864465,9.13878801081963842989353,3.73451046614965598280378,2.09767504183630748570977,1106.00489063616464591178,1096.75848320784461975563,1103.5021030113423421426,1119.7667301957276322355,-153.071379322093946484529,-234.788638907580008208242,105.076675412378861551588,165.321202424834439170809,158.368640857409900490893
47.7674999999999982946974,-0.292934541328071618160322,-0.566315432688516029458015,-0.56734751928417359589929,-0.0178375841653848135615057,-0.000132675035283717990481148,-0.00116564255617380269601513,0.00315365467304426667916051,0.000873808479045732125478629,0.0213190532984791659976143,0.999766927627306900561166,0.00290758581568227071623145,0.0239263381832667890170008,9.77073016054935195029429,-0.00569188321310362156657536,0.000759526840227989891683735,-0.00790148496872107586330714,9.13876895083858542534472,3.73451103399073502941974,2.09765004040750868696819,1105.48027421842175499478,1096.30560727982788193913,1103.58808074794001186092,1119.83024174771253456129,-296.179499732155250057986,-129.065186798450127980686,-48.0717660930831343080172,-115.548193457548222795594,158.366398929438162213046
47.770000000000003126388,-0.0685773130844705702813258,-0.641192472164260229838817,-0.623867156043484305527613,-0.0193620232011074214217849,-0.000598536858872466192779682,-0.00305471515061155572678953,0.0031069696596782462802433,0.00089999087953564855732469,0.0213483301260669958154814,0.999766419767158742715196,0.00476901304370843954344439,0.0208818309714923835973543,9.77230575067112283704773,-0.0056247767426870600229738,0.000802451964117867387951688,-0.00792219701201824118286243,9.13875131579551691629604,3.73451239744511642726366,2.09762826577038685726961,1104.52399313750311193871,1096.11315727385203899757,1103.26174418087680351164,1119.18898922843959553575,-387.106395890425346806296,-24.1541636985279311033992,-183.493640886760459807192,-325.232791007890284618043,158.36369172774803359971
47.7725000000000008526513,0.133671732586739505643791,-0.747680658701505573837665,-0.622184181338930275551036,-0.0199558244703133026709541,-0.00155823453218970064959592,-0.00537310178679323204725682,0.00308899814219766588596627,0.000910771106021399990716747,0.0213602822466958976177498,0.99976622236385837005912,0.00678488189487313955033931,0.0181508684102462819476287,9.77358988117703120224178,-0.00554377971343951447824594,0.000833855038902604761563708,-0.00794078629217548521979086,9.13873510073587169699749,3.73451524587951055877966,2.09760964310431141655044,1103.54474223896863804839,1096.18483646133518050192,1102.67061254350574017735,1118.20407779267225123476,-393.676971677854169229249,45.9920285622920275159231,-282.33001950832868942598,-443.279915622491216709022,158.361424432101244974547
47.7749999999999985789145,0.341648723883971938697357,-0.87450489035584788588551,-0.548047336510656624142257,-0.0195276042500322141726166,-0.00340557532017855650596783,-0.00810986833886270103155525,0.00309475615970918700378678,0.000910592340193190673616752,0.0213535033586047667819585,0.999766373667776209188673,0.00882690756889555755426713,0.0156778491040569026293561,9.7745951402184196865619,-0.00545222056722298453745879,0.000851942130970925791746962,-0.00796281706617416387694597,9.13872006618570509317578,3.73451979279347900941843,2.09759348723909422318457,1102.55560827911563137604,1096.3431174166632899869,1101.85009408333644387312,1116.97258965032915511983,-390.157290098277883316769,44.3028465005000526844015,-382.181255848568071087357,-548.926150111302604273078,158.359148351897204065608
47.7775000000000034106051,0.577594018083992244427805,-1.01267752794693444151619,-0.372816236382098820101305,-0.0178406268914480456433402,-0.00669097125600801555245223,-0.010810052562503603273969,0.00311830876599799005494118,0.000899349121423565454891413,0.0213296900545393436354757,0.999766851512101983878722,0.0108629763298123908216164,0.0133908491710017854559034,9.77534504045235586033868,-0.00535373982843115239077525,0.000855308441711472890178758,-0.0079934352992328400189237,9.13870620615106510342684,3.73452548843461462624305,2.0975793617828650816648,1101.59395578847625074559,1096.40635069383779409691,1100.75970626426192211511,1115.45944704211433418095,-285.093628146196010675339,-29.5005022628023709785339,-393.949563314052625173645,-532.287043162342001778597,158.356409569112315693928
47.7800000000000011368684,0.749116823007280885349246,-1.0915851520511210548392,-0.170604399157623598526357,-0.0155826286111495401071059,-0.00995451513393858823663951,-0.0119762917295124487332414,0.00314609109449186631971007,0.00087348409566555197842963,0.0212951584426667346605644,0.999767559643146452863505,0.0129335715847994844884816,0.011070357341620616631328,9.77587329417633377204311,-0.00525210314870097703249252,0.000843248097667432844511126,-0.00803701660070638493338357,9.13869403433908722433898,3.73453126129077617179064,2.09756646999572771150611,1101.1301401383839220216,1096.19561490534920267237,1099.88034626676517291344,1114.31115443451608371106,-92.6204534248360005221912,-166.993227874506374064367,-322.914933372588109250501,-416.955769660778003071755,158.354122395597784134225
47.7824999999999988631316,0.886633495524003389931522,-1.11413351873799748581462,0.0575448790481244282224438,-0.01287920074850553917023,-0.0130826593208903871334847,-0.0120095768399290682426628,0.0031704481633270270059255,0.000831027050761205051017388,0.0212552144870953724220541,0.999768404966345558548824,0.015058738149238925368989,0.00861493005661580213416784,9.77622029031742378890613,-0.00515093973759486040142619,0.000815561311245024999141973,-0.0080969675023657740331462,9.13868429670535320497038,3.73453668445140074538813,2.0975550531605100523791,1101.13085352135249195271,1095.57138455446602165466,1099.14513159740045011858,1113.37466819381234017783,81.8252507418528409743885,-327.893236666127961598249,-259.340667095652065654576,-337.185344434747378272732,158.351831172546269499435
47.7850000000000036948222,0.99896703559685684492564,-1.08399840828135207715377,0.279980354331868575012976,-0.010459516312462209183809,-0.01601242099440932167842,-0.0113015551608770248304126,0.00318771955969266058972256,0.000776621964969220757168955,0.0212131038681371425491662,0.999769322110804381509297,0.017138636066193337764707,0.00600467618010647880000263,9.77643101976167194777645,-0.00505339024716711278373271,0.000772558500920855805230159,-0.00817552926288309632363305,9.13867687371706161059137,3.73454177197848036229288,2.09754541795948279414574,1101.53926639209339555237,1094.55614872201772413973,1098.58364293128624922247,1112.62522771234148422081,251.255345560920119396542,-494.732963662747067701275,-177.658915125857731709402,-262.736719049782720958319,158.349536842386697799157
47.7875000000000014210855,1.09126176176672995410399,-0.989301172589023725123525,0.465719551660677133497757,-0.00872830018329877679872375,-0.0187371393201802190209282,-0.00975797288632593816382066,0.00319476130542288138530749,0.000719350750011096742170258,0.0211741954754842455488362,0.999770198203548843274291,0.018994023085671891959425,0.00323098611299169752308913,9.77655271755276800149659,-0.00496182767902614025451458,0.000715107245381247313108231,-0.00827348212756229967057564,9.13867052860823925186651,3.73454624109662391973075,2.09753658185837421612518,1102.38713024915773530665,1093.09771973615102069743,1098.2568370217707069969,1112.06098459856275439961,445.027476539003146172035,-713.59846019419239837589,-91.1428989734678367540255,-221.896237007715086519966,158.347238487016198860147
47.7899999999999991473487,1.18541955343937943645471,-0.805064726199755886781873,0.617594096875440756733155,-0.00647581705933324928287087,-0.0215413654371524251884829,-0.00695311739602564281292896,0.00319292733708273707496361,0.000668792875752139185339951,0.0211424628864164895758471,0.999770937101158385651445,0.0204437024089779220692442,0.000371643619955910886609729,9.77663148814809446207619,-0.00487771719321063255275783,0.000644455678936756691001231,-0.00838989988002381524567763,9.13866397143079112197483,3.73454938960841875683627,2.09752691783689249049871,1103.76440377478638765751,1090.98815642105000733864,1098.12792843641932449827,1111.51574652730391790101,537.367577247821600394673,-796.745775094361192714132,-7.49653070624461470572442,-189.835865350044713295574,158.344474718606591068237
47.7925000000000039790393,1.24353493186226238265135,-0.598732838633234454306375,0.675999819736627038935239,-0.00393625256335056097206637,-0.0234588079675070691754168,-0.00441237104817019439723103,0.00318669701517753549760426,0.00062789709420740108525294,0.0211204280577599913526488,0.999771469148782565561362,0.0214420263404937576356968,-0.00243995993064020227913957,9.77670935983807964930747,-0.00480169279264936691570265,0.000562117534498074379774313,-0.0085220533636287901929629,9.13865711471643393792874,3.7345505460416879017771,2.09751449009979218374156,1105.07396813539821778249,1089.1139908606771768973,1098.2193543682394647476,1111.11180527181204524823,526.368081995045827170543,-720.627541541802770552749,73.8218847788707250856532,-161.474899631011027167915,158.342165489806660616523
47.7950000000000017053026,1.26280783287436548789628,-0.348082484626680177530744,0.670060647256420560680112,-0.000666263534812200331446108,-0.0247972941713436381694358,-0.00236880668557668460846855,0.00318184643341062195487368,0.00059736126016003568764412,0.021109088281214414412057,0.999771756639530106980374,0.0219911733350926195951214,-0.0050495917301825246625846,9.77682185195594222193449,-0.00473355936572064477096955,0.000469675948088094108185536,-0.00866568033093170243807979,9.13864947905109659131995,3.73454974196815836506858,2.09749821604501729410686,1106.39624418476296341396,1087.3850187133391500538,1098.49703786031386698596,1110.70837202914844965562,560.613627588109579846787,-667.053357316869551141281,165.458883035139905359756,-181.47846436666574732044,158.33984798411302108434
47.7974999999999994315658,1.21973462448412606207171,-0.0128418333806757517523423,0.610951976776112015699027,0.00383266596552216814997038,-0.0253315346489702240828645,-0.000668714354427109563400178,0.00318534348612299535868919,0.00057571665172668465195599,0.0211056420647782773392098,0.999771839567848763508096,0.0221381628135711439053779,-0.00728476785983606794916412,9.77699586946791754371588,-0.00467242760431909286145125,0.000368510054583416136238933,-0.00881543056095625623957979,9.13864041924979986220023,3.73454812803671742926781,2.09747758486826452184459,1107.87703627333621625439,1085.77872407409586230642,1099.04664878341441180964,1110.20441294997954173596,518.891900531442047395103,-477.174343756934433713468,240.705668639488607141175,-184.387276625826672216135,158.337055195226412251941
47.8000000000000042632564,1.12065943710134008348689,0.281356903057544682766888,0.536919705292599025447942,0.00750825128015276867937677,-0.0248114690349970634652976,0.00025816080518930396630814,0.00319867558651409575332103,0.000555638038123905191566221,0.0211066734346463322213872,0.999771789503503760521141,0.0220431864766178729764246,-0.00908733995683295991963035,9.77724864878792843114752,-0.00461698296234274233040829,0.000259784025115372121592094,-0.00896540499323428621836207,9.13862939797881601577956,3.73454693712370211500229,2.09745210844832996599507,1108.99070368742150094477,1084.99914699455325717281,1099.700566203511925778,1109.78643564601884463627,425.255918912817662658199,-175.728086493746701535201,304.688898040993649374286,-154.432124719517673838709,158.334716648099771418856
47.8025000000000019895197,0.960327808001547600369463,0.57632481508066846220828,0.454426352801032495953848,0.0104354150662692886364358,-0.0235243737839343283746452,0.000949253829366402323772234,0.00322473228126181777480896,0.000529477164743670731042458,0.0211093102446622792045527,0.99977166201849976268079,0.0218733951501906068171088,-0.0103770918828685332346851,9.77758681021732023452842,-0.00456567781471793870257114,0.000144348810462825060318623,-0.00910985955365604602174123,9.13861626175996910603772,3.73454688328051975787503,2.09742253877209972046103,1110.0033158679013922665,1084.90008364162667930941,1100.57009327362015937979,1109.432252326381558305,436.712180037317637015803,107.809024369505834783922,425.13558963507887256128,-120.638383481010023956514,158.332365044553881716638
47.8049999999999997157829,0.716011797072564903920977,0.919061912016858384433249,0.355867099810139086990546,0.012736446685782960158706,-0.0214250989684055051509581,0.00178587613782348162035085,0.00326033347624494302882669,0.000495102351019805105025728,0.0211127305869797457504866,0.999771484865998094626605,0.0216850525595721488336665,-0.0111957650231266324369894,9.77800727925648871519115,-0.00451694258073119438851029,2.30393804453082498117766e-05,-0.00924386528070711768756418,9.13860148828480056693024,3.73454740658536454844807,2.09739089067794903797903,1111.17426458760610330501,1085.53819211640029607224,1101.82624415168538689613,1109.18324372861434312654,432.07546024178276411476,338.445610027710813483282,480.189112478983474829874,-47.718957688924234616934,158.329526746067898557158
47.8075000000000045474735,0.485458608167246119524663,1.1878896756916959009942,0.276243059072148022803361,0.0138898756746312773691088,-0.0192197728949874517556662,0.00258052125018323015234745,0.00329753697064058895471739,0.000452944982153763258097418,0.0211161211127056623604314,0.999771300065547263713484,0.0214815396699842425798366,-0.0116829220115627734066788,9.77849815568362501494448,-0.00446953122798053169989485,-0.000103184182841141051717102,-0.00936371137729363409163419,9.13858578426918022330483,3.7345482716374154286143,2.09735802999352616282636,1112.16369316911141140736,1086.5923116917660991021,1102.97103883601630514022,1109.19365753793681506068,402.644347028466199844843,490.681187736321589909494,447.502566077353776563541,59.4147248160575855990828,158.327147160636712897031
47.8100000000000022737368,0.242907248885949000882789,1.42785729473816713763767,0.199802771317229066472265,0.014389304890727663832628,-0.0163523053629664981423186,0.00335087808816164666250725,0.00333227355261271054528982,0.000405350552310553967783752,0.0211202828136919200374688,0.999771103231179347758939,0.0212296274479190569262066,-0.0119076909053043022979068,9.77903990678949242010276,-0.00442273932416564850150786,-0.000233253279467068543777744,-0.0094671189745015871253031,9.13857048507997937747405,3.73454915542495191616013,2.09732488430227492770541,1113.18748632274946430698,1087.99159805508315912448,1104.06375698207330060541,1109.48031735269478303962,409.223016570703521210817,583.989134176712468615733,400.623958532924575592915,159.319487419415338536055,158.32475216668268558351
47.8125,-0.00171165875888096286061568,1.63190902130341974896055,0.127832575706548406957452,0.014295468773134268822278,-0.0128459141228129247042089,0.00384068687800983308081038,0.00336554355129687395725702,0.000358931829218821695989816,0.0211265377196078428523318,0.999770861414531308852816,0.0208141993601318187057103,-0.0118445481136454228154875,9.77960754161915168936048,-0.00437640993844695506964637,-0.000365953441693870305806424,-0.0095533226183562077599154,9.13855694692341558038606,3.73454983206689838937109,2.0972925385003540199591,1114.20980825196306795988,1089.51225736264700572065,1104.97415862867910618661,1109.99025497503316728398,390.344395560614771056862,601.540463781385824404424,289.197350634448582695768,243.962263912311726699045,158.322344230397476394501
47.8149999999999977262632,-0.245046999046453911619281,1.77524520791885409565225,0.0656386877703868387712305,0.0136646792491424418081181,-0.00855460782268107136627755,0.00384707706405049360345871,0.00340047554258167492730047,0.000322526696350892972103147,0.021135125401164502056961,0.999770559035234707145889,0.0200773378211413014438058,-0.0114317596191451757714486,9.78017309634994980171996,-0.00433083583204488080375949,-0.000499851057216250341946884,-0.00962296037000704047870148,9.13854524560496805918319,3.73455041815071853150698,2.09726237687679439858357,1115.13920830055076294229,1090.99930037398735294119,1105.50974373524422844639,1110.70012867225523223169,355.081214074471290587098,611.842503844269117507793,123.826926875954399065449,327.503125408534970119945,158.319920690121421102958
47.8175000000000025579538,-0.537524805680526185369672,1.85585567231035208912715,0.00640122857353549873371534,0.0127294673382038758813195,-0.00280123509749663317236479,0.00348711376115417269472285,0.00344053120390880578377546,0.000303327154232972250741396,0.0211438772976437969197683,0.999770231089141092617467,0.0188936923163619818755166,-0.0106081197634812079977351,9.78070798576898781107047,-0.00428659122812227212639957,-0.000633247528668408831385717,-0.00967777339348390233664254,9.1385351568114572273771,3.73455088943126245482063,2.09723538090394212574097,1115.98521432233633277065,1092.57146988186991620751,1105.59329326305919494189,1111.62777060207668000658,241.365335823333424514203,525.933937885205637030595,-64.9357920037923292966298,325.761057370133812582935,158.316994188146736632916
47.8200000000000002842171,-0.784130718059937614761168,1.83613866252126456402038,-0.031370613379127262887458,0.0115675996810582545210044,0.00216115579879680571803724,0.00305381206264610524994674,0.00348181113696291802406257,0.00029956045259825475743018,0.0211508780741070344377786,0.999769931835532088548746,0.0173107960605926869401827,-0.0094664970603265258253245,9.78118554296773368150753,-0.00424443254275078899612206,-0.000763983114649659646004654,-0.00972013843638214192210967,9.13852616769710124344783,3.73455072833269552390334,2.0972109342525784292377,1116.3460349796680475265,1093.62897006341472661006,1105.18506477522510067502,1112.32893395910673461913,52.5330686891288962669933,363.829828009478490002948,-244.71386438889996384205,237.082929480754586393232,158.314539680015144540448
47.8224999999999980104803,-1.03205446668956213329693,1.72194855724275441843929,-0.065142215460759961276338,0.00978136117271314470267285,0.0071302975979681687546119,0.00278062651852862630433294,0.00352075687234329167199509,0.000305558935263006950684705,0.0211559550824543252112164,0.999769680142839956005218,0.0154534278699991079603082,-0.00810091819890384340352441,9.78158270332018986437106,-0.00420503290393936957763943,-0.000889593860341919063540461,-0.00975266685581243318592382,9.13851693049528890355759,3.73454931928678446340086,2.09718800072669386835855,1116.24787966578173836751,1094.39061902191565422982,1104.36972394111580797471,1112.81318524947937476099,-155.194021025192995466568,270.79259701722338604668,-410.672256299830223724712,145.120270731302639433125,158.312067676992967335536
47.8250000000000028421709,-1.3207144719413157485377,1.48436879694856971312333,-0.116140024197315755438709,0.00731687661362940156700718,0.012623180257732824136041,0.00290434779136794930104459,0.00355374424553447140068263,0.00031743189997299675131695,0.021159295061496524725797,0.999769488901918745860087,0.0134127752983415494264507,-0.00661163040841415000636871,9.78188176500614758879237,-0.00416883545642115615342815,-0.00100741753216269870792321,-0.00977792879843382249649419,9.13850628107895879281841,3.73454601912469508206982,2.09716515653319657275233,1115.57006487454168564,1094.98293304850153617735,1103.13170349372489909001,1113.05453531276361900382,-333.864476765358801912953,172.079480125560820624742,-457.346769098506001682836,33.9937307169574296494829,158.309079120653734662483
47.8275000000000005684342,-1.53812806901585319430126,1.21938105586084777343103,-0.177195453696525145881324,0.00485969650451473309665795,0.0162865732001504122383739,0.00327889399783357982434695,0.00357432015956928895994427,0.000331059154866060380978388,0.0211638992764958296100009,0.999769319458699512459532,0.0112847364597161783916768,-0.00515921769426133658420497,9.7820717765460720727333,-0.00413622818318760011174762,-0.0011147107188749613877754,-0.00979831022633564224788572,9.13849462906376608373193,3.73454014545055423823783,2.09714075241098552027097,1114.57855728195409028558,1095.25101642254389844311,1102.08299009562210812874,1112.98315390306424887967,-465.237139949263337257435,73.357275152760266223595,-371.943857184689420591894,-62.0467842321541382943906,158.306568400191139289745
47.8299999999999982946974,-1.69879559004563840396429,0.914423303635010120693494,-0.260599245846268756654496,0.00115384323096428967683758,0.0186102688203029428826163,0.00343507234787317206059498,0.00358436452582170522740412,0.000343384308842207630965704,0.0211677246799021924472672,0.999769206525099707327797,0.00914940278775594299787155,-0.00374454207963314383844633,9.78214859204209652432382,-0.00410769621305259128446474,-0.00120921950707877879846452,-0.00981607839363488055006712,9.13848291327097861369566,3.73453186998869313129035,2.09711489424827757233061,1113.24387917479748466576,1095.34971942426500390866,1101.27198420780314336298,1112.74430139160313046887,-638.445221372504306600604,18.3882792040000424549362,-249.598399750047605039072,-95.7421057825250869655065,158.304034058888674962873
47.832500000000003126388,-1.77674940923104562884305,0.538723115882837499945879,-0.375505135962481806366497,-0.00481700601041825347825576,0.0198106789110712583346086,0.00282612360266700207017676,0.00358406864746575954186469,0.000354255751328326094415355,0.0211694254083810602662385,0.999769176538774617668537,0.00703099716542579609296348,-0.00240273602361575772112801,9.78211601937251984395516,-0.00408390047129005961251691,-0.00128925983526767323414375,-0.00983359704404025355972685,9.13847165064485444929687,3.73452211535600175906779,2.0970892223270527487955,1111.38633117508993564115,1095.34295781856394569331,1100.83499809687123160984,1112.50444337415137852076,-704.657171758575373132771,-15.3427262346589206032377,-46.810425284023651215648,-40.8213831050734725636175,158.30096198073786695204
47.8350000000000008526513,-1.71473214191263401140475,0.237521598370435099711884,-0.469095065339257599745793,-0.0104005005733275885521083,0.0199518543018879675188249,0.0018049332897814515403595,0.0035691178665614780793347,0.000366075501222191783401438,0.0211716711029797215182224,0.999769186380928487345443,0.00490366366049721242453829,-0.00125682809455383848185051,9.78198619366761334958937,-0.00406568856784443773133564,-0.00135389573222665835459944,-0.00985340749296744963792172,9.13846156851307789281691,3.73451155679885093974235,2.09706495275643156617207,1109.72059331600280529528,1095.27300579309167005704,1101.03793208138290538045,1112.54019447607765869179,-672.359515263608386703709,-35.1357001149018586261263,200.021885840214991958419,98.6052367118178239024928,158.298373337127770810184
47.8374999999999985789145,-1.50233460618197112168559,-0.0405292109563535202232387,-0.541348251981481398686924,-0.0158607745521270916688739,0.0197749071935973512459395,0.00048753836573445566687085,0.00354054423275536019402598,0.000382142631880384579020488,0.0211743322144592981126632,0.999769232982300692924582,0.00272784979099820277387289,-0.000323917530602124692507005,9.78177862430849565100743,-0.00405400732263080411377221,-0.00140334287100650359839116,-0.00987806980572676282537081,9.13845294954792564112722,3.73450081686066326369655,2.09704259180683783014842,1108.02453359877495131514,1095.16727931798959616572,1101.83510752607139693282,1112.99746955771001921676,-672.729911453890622397012,-46.0272798807401244403081,393.818350301970440341393,261.284998340263882710133,158.295751753152472929287
47.8400000000000034106051,-1.17021212652621664496166,-0.299103551124059341415062,-0.582360533262695212464166,-0.0206955980846765009995014,0.0193520488423591097149057,-0.00106581689577949921717004,0.00350401469587419828188857,0.000401969582715150342781124,0.0211744237835207321785091,0.999769358394094087572057,0.000541368949858303527555847,0.000470653666869491615898369,9.7815197577965946607037,-0.00404981289620050775857063,-0.00143900802193027408694415,-0.00990987709442951031357794,9.13844528138640832537476,3.73449078505901832514269,2.09702185143818731205556,1106.35694375873163153301,1095.0428693936878516979,1103.00702383289376484754,1113.84661946777964658395,-648.889192839019415259827,-54.0273138195239965853034,504.654759596829649126448,418.44625652603519938566,158.293100707821366768258
47.8425000000000011368684,-0.724251240925943506887563,-0.537185078071465649252048,-0.571852081970358638862706,-0.0241186607211403142292383,0.0184513181609264817484295,-0.00294700087069987457996656,0.00346617042556186761778636,0.000427341553744808497726504,0.0211719996646315897215196,0.999769537504466176969231,-0.00166095077458818310423005,0.00122583986002511302615403,9.78124237201518198503436,-0.00405379536334311580542122,-0.00146331413705666382556181,-0.00995063880407430489949405,9.13843767093823267089192,3.7344823387594230368336,2.09700261915611907426182,1104.78008763457819441101,1094.89714274889183798223,1104.3583813240568360925,1115.08970084034126557526,-658.199426119070494678454,-70.9268598027128263083796,549.527364933146145631326,590.992911318190635938663,158.290411948006209286177
47.8449999999999988631316,-0.123619655514069823332157,-0.802055320589719844548426,-0.489203987588260946761665,-0.0258978502253397920018774,0.0167016620630300663408185,-0.00544166897970600315498357,0.00343391595793328266786326,0.00045611324685186378086188,0.0211680992696893985338669,0.999769726095919297748082,-0.0038067814833128554158348,0.00204977853772646267938029,9.78098462335238139075955,-0.00406641167802597892216854,-0.00147951723968587603615099,-0.0100013863970946359494008,9.13842964330769902403517,3.73447580503347653646529,2.09698404360878054575323,1103.06594662813927243405,1094.68823509467461008171,1105.754660657556996739,1116.8015840243679122068,-588.035409558159926746157,-84.8881657401327629486332,415.040826669716409469402,619.704046976768381682632,158.287139541251235641539
47.8475000000000036948222,0.371495444591989354421457,-1.00565479336275220845209,-0.363548030226623908323091,-0.0249765511048805725902167,0.0147930276421672224351767,-0.00728784503584510839208077,0.00340911407314750539501724,0.000480589250165370314611668,0.0211611186973072323835865,0.999769953819217294110899,-0.00571756244902059396206795,0.00295624493837600560430801,9.78078930324148743125079,-0.00408790483971210004410235,-0.00149134544329700331234678,-0.0100622141130945457615509,9.13842165091616820404852,3.73447207675826620132398,2.0969645090600437242756,1101.83991058678589070041,1094.47270192019095702562,1106.43358545740647969069,1118.18822107522669284663,-436.960435699942706833099,-99.0909614743434445927051,123.794930574358986063999,494.232771017115737777203,158.284373009370995077916
47.8500000000000014210855,0.79151689598935470737473,-1.1885981168424315512766,-0.19434733052107724948776,-0.0214868052526426718540353,0.0126970414309434988242575,-0.00831330653374348811646133,0.00339057023066416125117728,0.000497789888378052437258037,0.0211515602436761381011099,0.99977021426266610149014,-0.00730911740219097189052988,0.00390822599445852375543708,9.78070199882112767397757,-0.00411812265325136889898561,-0.00150262501572098251291509,-0.0101323692205343585809318,9.13841328677197850538505,3.73447165201614117435724,2.09694260399216769741315,1100.88114444963844107406,1094.19278028730263940815,1106.37363531042910835822,1119.27274787945475509332,-350.692967512987422651349,-143.254541945673963709851,-205.530694572103612927094,364.324659115313181700913,158.281564399821320421324
47.8524999999999991473487,1.15708884346496465589382,-1.37285755354588245857883,0.0287317598168269905389849,-0.0157789320544412456359673,0.00949970966093493206228171,-0.00863852494150267949390987,0.00337418196690244696564487,0.000506540010418926882514168,0.0211429735691680206755017,0.999770447334710099518418,-0.00853538612028897913930336,0.00481957258967596197107852,9.78076967548546072350746,-0.00415659413941186269697559,-0.00151681655785503521037538,-0.0102104516334279946804253,9.13840363710807146446768,3.73447336148882191864118,2.09691793255736458334582,1100.08644574922254832927,1093.75642921046323863266,1105.40593198454689627397,1120.00984437080160205369,-228.04190672229353253897,-179.18111901558333443063,-476.029427729265307789319,163.979655120790766886785,158.278144822654297740883
47.8550000000000039790393,1.34030277972429345823002,-1.48201319502321271492917,0.206071484122398423943778,-0.0113511563166031181210114,0.00577318528975694512245243,-0.00799530577976616078916816,0.00335263484209861670204411,0.00050727736660663913167979,0.021140250622659659263114,0.999770574335310024949308,-0.00938561792792559981823963,0.00554827470752024959343984,9.78103938362732172606684,-0.0042026240620031875966367,-0.00153661185332047809000422,-0.0102947778271020931595281,9.1383925745587166744599,3.73447578874806929150054,2.0968900720776559865044,1099.74093491602639005578,1093.29687469222426443594,1103.99348817178156423324,1120.09264615505912843219,-69.9987683507157498752349,-202.826521615530424469398,-623.922897488318085379433,-66.7699775004279558743292,158.275254119230197602519
47.8575000000000017053026,1.42282733073444611626712,-1.52661512017622547077167,0.347077087345432355736108,-0.00819171261954438484353958,0.00129654984404089807653593,-0.00628078429221271255372683,0.00332638141192663060879964,0.000499797049750850207704145,0.0211447507476704467388462,0.999770564313229970210273,-0.00983665161134026494460514,0.00610894635774939659400573,9.7815561591810951114212,-0.00425547816609758277478504,-0.00156395930913440011841842,-0.0103837477678064317443418,9.13838197547218911154232,3.73447819219287246994554,2.09685986333733209718844,1099.73645190746879052313,1092.742296602385067672,1102.28631749710370968387,1119.67599448329929145984,77.6034711139596851126043,-258.092857253184831733961,-721.177789638542094508011,-261.471471038668369146762,158.272321290492783418813
47.8599999999999994315658,1.44857614438215276386757,-1.49676503968320639970102,0.457453809224796059673679,-0.00548747091066543492277052,-0.00406201731448528093049166,-0.00388571895094453082994401,0.00330028036590336885588992,0.000486417594775646975474581,0.0211568393549227198868756,0.999770392140682528925311,-0.00991695586094290190692924,0.00660697218318769680100999,9.78236219556623431969911,-0.00431435378509670199725923,-0.00159990465388365520407743,-0.0104762518986251853408964,9.1383734429872056637123,3.73448029939933778820205,2.09682917363062282234409,1100.12895227159583555476,1092.00641040595951380965,1100.38759922359213305754,1118.78528879986697575077,208.983528729943316193385,-271.03908138560433371822,-603.788325320292983633408,-356.32945432498632953866,158.26875442402607063741
47.8625000000000042632564,1.43101913342484876601191,-1.40819799407126677870394,0.502710756540328262964579,-0.00342395205670650024445956,-0.00791119498451442297592973,-0.00221807887021357660883858,0.00327834118846739288807846,0.000475313116782728989177798,0.0211767445557599423566764,0.99977003626220584120432,-0.00977472908089710781909254,0.00713547176459241455637184,9.78349634398101741794562,-0.00437812212349073491546303,-0.00164449945063518585507134,-0.0105718842917637539241538,9.1383663842662237186687,3.73448149997829004220762,2.09680034200404641353543,1100.78136955111904171645,1091.38710119545635279792,1099.26737587050070033001,1117.89434721167344832793,323.35012474133520754549,-231.902847269356755077752,-294.945555301896149558161,-347.709976061655140711082,158.265743820380464512709
47.8650000000000019895197,1.3777380472197684468938,-1.27059657005166970478172,0.515226510173046103879813,-0.000657163501606055841519627,-0.0105693668453107399857194,-0.00111363213094045837917023,0.00326555677635501258315731,0.000475674027115210182672933,0.0212010506302718650106787,0.99976954925793282136226,-0.0095833721689313929037457,0.00780736375916542962860589,9.78499330428814673155102,-0.0044451568428996437662426,-0.00169695819919069143186241,-0.0106707551674480455305982,9.13835953969364389593011,3.73448149332902312735882,2.09677502149340844184167,1101.74570289530333866423,1090.84689616961213687318,1098.91287144708189771336,1117.04673891955781073193,429.717898925200358917209,-188.700686286336974717415,3.05893530217241194080202,-311.680631676437485566566,158.262695700431777368067
47.8674999999999997157829,1.28554876713536203602928,-1.10477756342274724410402,0.515435367642677610966473,0.00279419262533102180298683,-0.0125597953193572701297009,-0.000396624272284131211985941,0.00326100874108143767154955,0.00049192633686154945728275,0.0212247329942029973326445,0.999769038976617063774199,-0.00943187025682540661208897,0.0086165407152247394662048,9.78688359506469751636359,-0.00451331769250438389479152,-0.00175563683028948872705266,-0.0107730420344483279054826,9.13835166258379949510982,3.73448012591203237775517,2.09675282928245909630505,1102.92995904574308951851,1090.44359776402552597574,1099.28267054701154847862,1116.33594405329267829075,512.17248278140857564722,-113.645332180918629205735,312.22440675862742409663,-244.030181400569489369445,158.259618491601401046864
47.8700000000000045474735,1.13268004627690621610725,-0.909839655543712155782998,0.514051622137745578555723,0.00649926796771388339685194,-0.0146140451509702094107235,9.3511729894289275042546e-05,0.00326258300204484725376419,0.000521638606613555660604375,0.0212449738659684535246885,0.999768573948639605042388,-0.00928216787687390423866596,0.00952790445058076390649759,9.78919210321067012614549,-0.00458006400507056550541751,-0.00181826240407540525717556,-0.0108784326575297445732771,9.13834125707721689479968,3.73447757151179837720179,2.09673246835567939072575,1104.30656530921169178328,1090.27866950870725304412,1100.47399348087583348388,1115.82658801255433900224,626.349063974064506510331,-9.03737274802089451952725,667.068318794440301644499,-190.23992771444045501994,158.256509169061047259675
47.8725000000000022737368,0.872694955105786651650135,-0.637544974337878267434121,0.515149964938922622081918,0.0103114155640421870790968,-0.0171778050997607317773586,0.000790515227755747085583438,0.00326695769163062952472609,0.000558593556662305250337663,0.0212576122920902672863708,0.999768258077973315245401,-0.0090294985809257384545834,0.0104771632906619435732232,9.79193675489313442028561,-0.00464263381782799734037726,-0.00188212712585353629177187,-0.0109857352631587100455501,9.13832774465035768685084,3.73447362427555207275987,2.09671245727955213311589,1106.06170436561501446704,1090.39841090028539838386,1102.61801214098545642628,1115.38474441471998943598,642.105324663400210738473,91.5662492623064849794901,855.157634138827347669576,-153.81656826003001015124,158.252745350897782827815
47.875,0.598909916675515408002184,-0.37500571891999151530328,0.51194788273547164880739,0.0125543292560865143298043,-0.0189283349973630270202118,0.00171646404334824015554262,0.00326698579867666042547691,0.000590971651724792761996297,0.0212626383875123836642018,0.999768121656760211379833,-0.00846742891965381744290298,0.0113181911541476790117322,9.79512759279672806655981,-0.00469849051323945835628715,-0.00194414483082702032636091,-0.0110926604249536632507134,9.13831271773991282714178,3.73446772912939506383623,2.09669136982970449878394,1107.51709193252577279054,1090.73650075501836909098,1104.74978165156608156394,1115.05750517125488840975,560.623247638350790111872,164.825930270185210702039,859.410963977379083189589,-147.098865704171743118422,158.249585263765197851171
47.8774999999999977262632,0.284194008407211318179009,-0.0778850856210733660800472,0.48894193877601932474164,0.0139865621378925508028201,-0.0199499481366709821572591,0.00319581078360343202524052,0.00325946958766602269685908,0.000609632084198253655117627,0.0212612035990309977684376,0.999768157665043899484658,-0.00744624703784288119456924,0.0119782731765342084773174,9.79876445954068842070228,-0.00474546574947953218176488,-0.00200126379065431988027446,-0.011195880480588565539235,9.13829710597083888501402,3.73446033538034427579078,2.09666771097079518426654,1108.86482060380421899026,1091.22254055163557495689,1106.91506696086844385718,1114.64925008619979962532,551.259456207017024098604,216.541524619040671950643,895.509926860582936569699,-213.264158687825357674228,158.246404811337527007709
47.8800000000000025579538,-0.110197994202514568118367,0.305087159278678687890363,0.420431292195491690399933,0.0147269014865132157054983,-0.0201598386471472310055297,0.00552375086837680884244151,0.00324201510660994136198143,0.000614034086813979246635697,0.0212577018420178898150397,0.9997682827736442678912,-0.00598946842735898626886026,0.0123992368093804247730638,9.80283614961218319194813,-0.00478180014139871923523062,-0.00205061042330915424200533,-0.0112913329438162970963511,9.13828116609483487309262,3.7344517616669326010026,2.09664072822538827267635,1110.27338921356226819626,1091.81920837811412638985,1109.22733128587128703657,1113.99118437781521606667,474.701535997367500385735,200.881182335285302542616,768.16870107342572282505,-265.757378642911589849973,158.242568726971313708418
47.8825000000000002842171,-0.424620519168827759148854,0.629645292450193960753779,0.324164927035374306196758,0.0141798456933943748531357,-0.0193776971151869807641344,0.00748078112592130087948883,0.00320958346076839111729595,0.000609913082607902628032304,0.0212596239484558920118662,0.999768350245814119148235,-0.00424899001059540412650328,0.0124694477444448198477644,9.80732039386472820297058,-0.00480625661316882914902981,-0.00208961310685001292603014,-0.0113746144884504275796022,9.13826513954313490728509,3.73444134848593689568474,2.09661057717683130263708,1111.23832828379227066762,1092.22694646331251533411,1110.7559104662375375483,1113.32046319298456182878,340.504136799373100075172,132.17675336466726321305,512.935403006133924463938,-272.618825800802937919798,158.239358100745590718361
47.8849999999999980104803,-0.686739101821160380367814,0.933898510557571781554032,0.197057879392411927632622,0.0123898327883567582752278,-0.0174668764675924778617677,0.00849627506055039560806108,0.00316651642655943563881005,0.000601706202834484480540533,0.0212701709426155495530342,0.99976827294133407963983,-0.00235093284509696118234068,0.0122573558297675508366176,9.81218283161699922345633,-0.0048182854590672853298261,-0.00211656104818168161116332,-0.0114413021057510246730748,9.13824971275115593982719,3.73442960087240916067231,2.09657825033256139946047,1111.9759098975575852819,1092.48009214493686158676,1111.79200830089962437341,1112.62809024881244113203,276.233582956997111068631,81.1818859806902111131421,348.486880942031348240562,-270.460181524547692788474,158.236135307499949931298
47.8875000000000028421709,-0.90130517154875333663,1.24259558488801991060768,0.035380460688507267552616,0.00916047154550846814968779,-0.0138600198574107841970049,0.00824636894444495671674389,0.00312146929162277582056606,0.00059143840912652520438314,0.021293176761123546597565,0.999767938900243069433316,-0.00037440714194698909711434,0.0119135262925604348827058,9.81737807531846939923525,-0.00481800924465518743550208,-0.00213066733643835475725536,-0.011487331609655379929813,9.13823651158244842918066,3.73441731317791791866512,2.09654492338756925917664,1112.61949619857796278666,1092.63285589321617408132,1112.49834487094858559431,1111.96816228536113158043,201.974515777179817632714,48.0083593719182246672972,184.729776476248019889681,-181.743659895571710194417,158.232255749457692672877
47.8900000000000005684342,-0.976449137445503545507108,1.43176678856610117840376,-0.0883604038677525266409774,0.00558119931788607619854714,-0.0100509673215317379274536,0.00742189121422396225896678,0.00307895553506698374870987,0.000581996881824004539708606,0.0213307011448137795461832,0.999767287562535966749522,0.00158188975032513313989657,0.0115078312086552003723483,9.82285155283961053385156,-0.00480592907782251971271492,-0.00213204877082084345504831,-0.0115092955745069950440618,9.13822516441184617974614,3.73440475314265452055906,2.09651101292420571908792,1112.98578247644400107674,1092.72013394179657552741,1112.71565718328133698378,1111.719371949334117744,120.001073251678462838754,57.963139500232465195495,32.4585493918061374074568,-4.64913504065830185396635,158.229013485870723343396
47.8924999999999982946974,-0.93747005806032746022538,1.53391047908808153543703,-0.189225792801387793229395,0.00153799016365981306223021,-0.00591316691933686452986585,0.00658046297544444876853609,0.00304554818910777016019442,0.000578096051798651579430033,0.0213777052649514361093441,0.999766402049659941297932,0.00338418831195202128581112,0.0111533398633655994602876,9.82854031433624442115615,-0.00478260966534265093141887,-0.00212198691054498334712664,-0.0115045419651642489428101,9.13821408930409262438843,3.73439266274354686458992,2.09647688533095832852382,1113.21950156483580940403,1092.92267159071707283147,1112.66063761790746866609,1111.94491661015786121425,77.2547449190883952496733,125.628953417234995981744,-51.4313725266411623238128,182.577400697980294808076,158.225762054050818505857
47.895000000000003126388,-0.818132423127924113259724,1.55931312213180395254142,-0.270700712572392365729002,-0.00173431086542517203831493,-0.00165488791907764695547634,0.00586427645075345005398759,0.00302484701713015341137392,0.000580467798502144597706798,0.0214241295328171169054521,0.999765485034071810233058,0.00497687371346668648575129,0.0109068826153163045411532,9.83437546006908824836046,-0.00474866820729801832057237,-0.00210275739444703950453697,-0.0114712085208922599799397,9.13820227933991979796247,3.73438264937815311839131,2.09644203446244770105977,1113.37205620103964065493,1093.34827870888307188579,1112.45850032064799961518,1112.63225895282448618673,46.3121520418771552840553,247.625938902966225896307,-102.210770685080660769017,383.861378662717527276982,158.222503027511692152984
47.8975000000000008526513,-0.640771137903837550986452,1.49535505411972469147486,-0.333444494135190616646014,-0.00322750606574265979167859,0.00230413799198516799221492,0.0052623300205901467341274,0.00301798590482695158407345,0.000588808632996763096738302,0.0214626465107703515156068,0.99976468989534494902216,0.00632629742358393684642515,0.0107816124226516527051523,9.84028406496319085761115,-0.00470476917134798802017093,-0.00207736538079629539169102,-0.0114083374871432902813995,9.13818890462230548621392,3.73437566171576573736957,2.09640595704243670738265,1113.45106232504531362792,1094.16080128523253733874,1112.14958376448180388252,1113.86422350347243082069,22.5939514593142973808426,457.635796389202027967258,-150.396065366794942974593,638.335914663174094130227,158.219234923473919707249
47.8999999999999985789145,-0.418268219848316857856219,1.32770763265781166495572,-0.393191199743848862624418,-0.00339141910734011347780537,0.00642306286929209078323533,0.00445060702348686314938631,0.00301797079522508676294179,0.000604122967138428601345523,0.0214930575033627641046152,0.999764038496261941979526,0.00737344261022756814610846,0.0106374243776656829396643,9.84619197658803102513048,-0.00465174322201020520872738,-0.00204901291882857291767883,-0.0113160698350428298025738,9.13817451099538047287751,3.73437074506539268270444,2.09636963028289224908463,1113.48502595833610939735,1095.63645769082700098807,1111.70651999381470886874,1115.82393852613745366398,6.41450311936422767900012,614.93613155785544677201,-172.320371361368472662434,761.012442389593957159377,158.21530357130933452936
47.9025000000000034106051,-0.257058883054141207313847,1.12384544613593218009839,-0.432190449414583455212124,-0.00289070438394322748801302,0.00938303677519286734309834,0.0034544407806829879013788,0.00301842452187535154745079,0.00062538182302895970344353,0.0215154705601868292963452,0.999763547144700948088314,0.0081039180497372610700868,0.0103520363421763725297886,9.85202519075046723173728,-0.00459081860760339639793148,-0.00202099545480237006642166,-0.0111956933051502761922169,9.13816000766779978903287,3.73436707726529659723269,2.09633430811983023644984,1113.48313484064215117542,1097.23548194302338743,1111.28798190767452069849,1117.66928571542234749359,-0.566689925881001976826212,686.754582112702109952806,-177.773734765833069104701,726.706681669739964490873,158.212020689898480441116
47.9050000000000011368684,-0.138787351058322933061717,0.867640291833115417929889,-0.460960866200039565132585,-0.0024316547710024126287276,0.0117814084501390720083336,0.00232852860930001263548017,0.0030194549946723574750107,0.000649399606511544811617009,0.0215305636802484642866595,0.999763203055807569974434,0.00855379828193983740569628,0.0099369101675742393942059,9.85771138754053843911151,-0.00452370719789037169927814,-0.00199657996233005641598113,-0.011049590109800121878747,9.13814707374978141274369,3.7343637467783175054592,2.0963014623264504265876,1113.48219250870670293807,1099.07023060139226799947,1110.81765131998508877587,1119.45747193448801226623,6.55366553101571636119616,813.700655709375268997974,-216.524320784143611717809,710.771219242097458845819,158.208733080031691997647
47.9074999999999988631316,-0.0436287065832866721715178,0.516708991866130507020216,-0.485415253859341699893548,-0.00227143626682628323176782,0.0136785726818613763422494,0.00114390379759938425920096,0.00302362224305918357233902,0.000673170625929599554353178,0.0215389267581666855877476,0.999762990587991784430244,0.00876256801900089990486897,0.00945890759352996379760725,9.86318226662999819609468,-0.00445244758761112816025651,-0.00197880321108517961622986,-0.0108810529725782093729558,9.13813665778561556862769,3.73436025326789300393671,2.09627238189347009367225,1113.5159031682971999544,1101.30398522156656326842,1110.20536030375478731003,1121.22314181162960267102,18.8829957501997149904582,786.954429581607996624371,-226.716340527057099052399,549.284111330181076482404,158.204786119875365102416
47.9100000000000036948222,0.00765788795315458514778584,0.200190154611129850215079,-0.498035682595124817861887,-0.00243440510930168722142364,0.0143747135224533573866212,0.000290092515991437064400843,0.00303538849116341286765719,0.000695826003063870312907724,0.0215406739611978571835582,0.999762898897556762101146,0.00873467479794271320359123,0.00902980423953388122715324,9.86837515621120786590836,-0.00437910012555597569217092,-0.00197044663912530892968533,-0.0106938926354176681160491,9.13812778539701042745946,3.73435710871634585217294,2.09624710482654297294403,1113.57660748745774981217,1103.00500274930232080806,1109.68406961734922333562,1122.20389249114032281796,23.0714191325087298878316,607.028913087841374363052,-199.66170811443379307093,271.727231274778318947938,158.201498784374763317828
47.9125000000000014210855,0.0447906330949697992216407,-0.129052829129344404091029,-0.499506663165734832166009,-0.00263481834823040862725296,0.0144366183586529511079233,-0.000596056002827600973567601,0.00306278475098585838826137,0.000715627913513325786439012,0.0215309084198396435971823,0.999763011996308348372509,0.00849949851407012790804885,0.00883705449901129452827675,9.87323392924556664240754,-0.00430553656227247900922794,-0.00197409279176546026066119,-0.0104918970984250771449897,9.13811905054229534073329,3.73435478660607200751542,2.09622539467021429260285,1113.63126026395980261441,1104.33912978700732310244,1109.20705176318210760655,1122.58177796800418946077,2.00270933774118287118426,469.234261916534933334333,-184.973560208422867390254,39.0915961390320205737225,158.19821808303979082666
47.9149999999999991473487,0.0862568100371246537783065,-0.526464477927675145174646,-0.478335889779003764488152,-0.00279242368203901558318392,0.0138904585424154906198035,-0.00194249062171693949105378,0.0031046354668385687906873,0.000726192553462951862798536,0.0215052002347694802553146,0.999763430515641204898714,0.00818080116656584241385808,0.00888854987868438473075372,9.87771087558849281151652,-0.00423342442288162160157761,-0.00199171783635112859683902,-0.0102783755022604426226929,9.13810945160409460186202,3.73435372992978953377019,2.09620528860189159203742,1113.58662103414644661825,1105.35117405888286157278,1108.75920181630795013916,1122.39935047183530514303,-53.9759290183334456969533,261.412119855279286184668,-134.76847924769043629567,-144.178230437154439869119,158.194295337870357798238
47.9175000000000039790393,0.12399824265479551799185,-0.848104507970699583729868,-0.431773953041910463213071,-0.00280738223681501397263616,0.0126248040537641093711274,-0.00340050764947129888562949,0.00315603741643487789234057,0.00072496138115573597465735,0.0214653653890933965309173,0.999764129153578817721382,0.00783191517557366850832423,0.00912229122043009543752135,9.88176628534537471182375,-0.00416413466016209501963097,-0.00202461242611499080135129,-0.0100559008869400660912685,9.13809869976991606677075,3.73435417676798797614879,2.0961852527582256477956,1113.36138061886799732747,1105.64619038628438829619,1108.53320936694331066974,1121.86088681581804848975,-149.94159011781962931309,6.37086534724986996991447,-55.3947847944699276467873,-247.977170881595611717785,158.191042967102902139231
47.9200000000000017053026,0.167374218763916782215517,-1.1405536057073351052793,-0.346193680399889569532235,-0.00238743006884212412288537,0.0103282406716633957249885,-0.00506949128103297529113203,0.00321072585492058549042071,0.000713039166403259825136041,0.0214180599512692332320185,0.999764981117702400403857,0.007439428291452739212819,0.0094510816677971995480867,9.88536806310215787618745,-0.00409891309842874609209451,-0.00207323444815362464138664,-0.00982624513086782780391104,9.13808683676521660288472,3.73435574066098885381848,2.09616380505130539546599,1112.83691308355696492072,1105.38302838561912722071,1108.48222789233545881871,1121.15946461742669271189,-268.022317739694699412212,-185.844157791494438924929,6.07517352664770005077344,-271.167356814677248166845,158.187813245377924431523
47.9224999999999994315658,0.21570895259099620577814,-1.39146108942132862296148,-0.228225914918509215079112,-0.0015463036261571215523869,0.00727449617310834545369502,-0.0065025854435854834115216,0.0032631612897433769603095,0.000689344866876174080030926,0.0213710771607595502452615,0.999765836567467092166339,0.0070390819167859674382326,0.00979930884469764479360876,9.88849121826275911928406,-0.00403916426754792265430005,-0.00213707493792841514770875,-0.00959050846360161822479196,9.13807523718092795661505,3.73435753819450688695269,2.09613997204465674073504,1112.02126903017074255331,1104.71696959732776122109,1108.5635852345765215432,1120.50505003174589546688,-392.311417092541262263694,-340.990657455229836614308,54.3794193042407769667079,-217.035551267170291112052,158.184606066049383343852
47.9250000000000042632564,0.273740220082512142329989,-1.57093128304675722084482,-0.082202472155790864971614,-0.000733883243875526063322579,0.00343281665590553907579929,-0.00713955401547604687206849,0.0033090554768625103990165,0.000655347062663508847860094,0.0213311800741330381825378,0.999766564306224125857625,0.00662185853148158400094392,0.0101133781471495973192098,9.89111741825706225483827,-0.00398641589324477685352122,-0.00221456797222767658855913,-0.0093495124998034355445764,9.1380657160982945441674,3.73435875344880896520294,2.09611469184907583951372,1110.87535599809325503884,1103.67807509834210577537,1108.75412498885680179228,1120.07428686109028603823,-551.021473101300216512755,-510.205424824164765595924,90.3056362168619699559713,-119.90412432213138060888,158.18143026852371235691
47.9275000000000019895197,0.365154710947604488335827,-1.67981625493857400499564,0.101929827792074378933762,-0.000263175110526854690810167,-0.00185107257815435907039037,-0.0069835667259460247266456,0.00334432170139391899896242,0.000614749702656182416861397,0.021302196497888763876416,0.999767096011913714015407,0.00613902142518059270454023,0.0103389229715325769998202,9.89323473955455590100883,-0.00394218620034802666451945,-0.00230309253304428283165572,-0.00910416224561977176221728,9.13805800230911557946456,3.7343586011969858162729,2.09608933586956069916596,1109.26616166466283175396,1102.16594247320563226822,1109.01511341566106239043,1119.90552941013493182254,-589.460881543745472299634,-574.722371115944724806468,86.7771011834854846256349,-12.4962655098101969031177,158.177660586275521836797
47.9299999999999997157829,0.466116316137996034019153,-1.67002564684069199074656,0.244418987268208653951262,-0.000112360524295276778105473,-0.00648390551967454112358702,-0.00623448116541616779301416,0.0033682285461120536028401,0.000575640768773296525491479,0.0212875213486316619548866,0.999767360298589147227233,0.00546025307125571745386905,0.010482410107596436266153,9.89483702016951660596078,-0.00390772370669968758388757,-0.00239914187542923955029361,-0.00885565195469167551478584,9.13805110797678921130682,3.73435624261702336923463,2.09606535060674925574631,1107.92805159037720841297,1100.80446324276499581174,1109.18801049477383457997,1120.01180553354129187937,-472.143985825263769129378,-539.985088220006446135812,47.2162575586693833429308,62.1774457186029607669298,158.174556925695014797384
47.9325000000000045474735,0.590683360760584696969033,-1.55144778434421892754358,0.357548652544781520035144,0.000171131305831868414267169,-0.0110042226178867184882559,-0.00498810770101138119259065,0.00338368250221480907150018,0.000547005334176736343620995,0.0212853972523147742801353,0.999767381381816311325395,0.00444168294021918610980926,0.010614055303441068123238,9.89592356985863652596436,-0.00388387767774470236276096,-0.00249860558272363810286554,-0.00860542435300274202725213,9.13804488749040366712961,3.73435100437561162678435,2.09604419342984771290617,1106.90544173553530526988,1099.46601703210421874246,1109.25119470345453009941,1120.21641663872810568137,-302.755026670892846141214,-561.248595441369843683788,-1.8116173922398783879828,67.1462633248777223116122,158.171496092240857933575
47.9350000000000022737368,0.745945300891767359985352,-1.29202862934034956587936,0.447665697369950821293827,0.00112483372030901143494297,-0.0157177723889205638030386,-0.00317727871196626845268218,0.00339399636631338092254695,0.000528021767700195560762966,0.0212884344746935259828913,0.999767303309845201120254,0.00313538379045143113937888,0.0107985732215404792166957,9.89649935961140059248464,-0.00387117794924499549272245,-0.00259705316443435956647035,-0.00835490391971424259387469,9.13803878694602644827683,3.73434313188223576673863,2.09602468891448312504622,1106.41427645702196969069,1097.99822026555671072856,1109.17895240781263055396,1120.34753685016585222911,-16.6500745502313733936717,-505.676654886843323311041,-46.2777127794163618546008,4.07132515261225425007297,158.167876478427274378191
47.9375,0.851857958768814760297516,-0.993059449743229905038788,0.483678717075198216779341,0.0027339967664743295740204,-0.0186207041907589486429142,-0.00170306052842321311961704,0.00340209953001786814461016,0.00051692060826585568399788,0.0212907630180283469201186,0.999767240872384554961627,0.00161299748175122627941169,0.011083033694102649435731,9.89657482241510955134345,-0.00386967085497823531231587,-0.00269004959523414010139075,-0.00810534547892465852270139,9.13803210772651297588709,3.73433279903710779734638,2.09600596321741239336234,1106.82219136278422411124,1096.93763375767230172642,1109.01980613955765875289,1120.23677326449114843854,350.793176357274944621167,-386.828461912170325831539,-71.0693528057809658093902,-98.6503357953539818936406,158.164907372492933745889
47.9399999999999977262632,0.890665116103034781858128,-0.631312593119735532276593,0.48549182986072486611917,0.00539083806236620617646782,-0.0204045455258277975973957,-0.000466200102228218622290451,0.00340864370014807563022408,0.000511983929391796738217479,0.0212918280170906297488198,0.999767204236708950659818,-5.58191173755922392940576e-05,0.011460290859304216037895,9.89616579827078268749574,-0.00387897184340264171778512,-0.00277346046724439177638688,-0.00785774868406431854783722,9.13802499706472204366037,3.73431989934247754447938,2.09598754623157956800128,1108.16824233880674910324,1096.064077955997618119,1108.82360564378404887975,1119.85428517118953095633,782.263134174045262625441,-342.034533907287936926878,-75.8293099443174867246853,-213.540313354615022944927,158.161990678098391072126
47.9425000000000025579538,0.81325849283027840108673,-0.151748644449468034212103,0.460194347172888484909237,0.00953883702493162934088478,-0.0214609237922325259140255,0.000787258254056068273486757,0.00340917641428809762432772,0.000509835173757692953523668,0.0212938006431542883878372,0.999767162905846884513039,-0.00177190756103211277672216,0.011813488850416886677408,9.89529364516099185777875,-0.00389836347429072926223936,-0.00284378277864601007596246,-0.00761287601319028325863592,9.13801781264658430359304,3.73430496671645206774315,2.09596831436197961195944,1110.73350703365645131271,1095.22746108813498722157,1108.6406595898358773411,1119.16907169771752705856,1049.48988314627945328539,-271.856288323803767070785,-45.5141367552863798096041,-264.110252140518639407674,158.158555329899854768883
47.9450000000000002842171,0.625544989853192512363478,0.267299852307496088599237,0.424954245870994007372445,0.0131916346887166521101298,-0.0215506083363727236890117,0.00171901506003719196750967,0.00340265131665684486886314,0.000509795141595835378696411,0.0212970766492605670383576,0.999767111736447944281281,-0.00349035397654167724168506,0.0120879442634656344979227,9.89398407385593081642128,-0.00392675833672525079198756,-0.00289862944599555451274941,-0.0073713714889265457771983,9.13801055814825247125555,3.73428902371184046060648,2.09594779105939466035124,1113.41569175454083051591,1094.70479651437790380442,1108.59603496000750055828,1118.53373391048626217525,1103.41490694354752122308,-170.614422452281928599405,14.8208922783076744167374,-235.344607505872176034245,158.155749554861898786839
47.9474999999999980104803,0.313934779514900896835172,0.683524238538905315465399,0.383577853800962542685227,0.0159422152740215927746448,-0.020777944816333888955473,0.00253326920580642257069259,0.00339170218381036007310181,0.000513136560976570508738059,0.0213017110009028481920623,0.999767040987561750320367,-0.0052063659641045298420714,0.0122982780507036662531739,9.89226695499676011991141,-0.00396275093012874324999162,-0.00293691541251092516975896,-0.00713399145649113580747169,9.13800248842475681954056,3.73427321648654242380871,2.09592621719773930522024,1116.25058156836917078181,1094.37438897587435349124,1108.71476405122734831821,1117.99234866018923639785,1180.95786340899007882399,-96.7528566617562120200091,92.1737156042110257203603,-189.803168793008126158384,158.153006833136601017031
47.9500000000000028421709,-0.161366385747129997829674,1.14700561551599822252001,0.33375047959696590993417,0.0170570472165794718988341,-0.0185730873921230027479012,0.00316309752002293153097523,0.0033813534450027734820643,0.000522442856029623078038815,0.0213074536363429684060478,0.999766940314345209372959,-0.00694372843314040345819027,0.012504866439353952423108,9.89017636374618724914853,-0.00400469967696079776758866,-0.00295887960152363231614014,-0.00690185665513949522104076,9.13799298560187800433141,3.73425823480112573093948,2.09590518811956805222962,1119.32048107158880156931,1094.22103223106887526228,1109.05690353802879144496,1117.58471806652073610167,1009.04965451503119311383,-14.5817918126720513782857,153.260360267189554406286,-102.375967006394063218977,158.1497931756171624329
47.9525000000000005684342,-0.594697548597258429659007,1.47403981697006680740003,0.293765310401641499549186,0.0159503977098057851680135,-0.0154065233442047602729907,0.00335491042989968053442129,0.00337882102342984980830609,0.00053904222561020531580972,0.0213118760139457234792371,0.999766838672123459019758,-0.00870461928361289383193622,0.012811057428504170341288,9.88775060425710883293959,-0.00405089789802088803827296,-0.00296599955568763000435251,-0.00667654455750807569736072,9.13798233386642166919955,3.73424484885581753346173,2.09588668417015444589424,1121.29582984094690800703,1094.30148001681095593085,1109.48106585256368816772,1117.48046882515700417571,626.087793421335049970367,70.9913971489831823191707,185.770112604437400705137,-0.0460738162474136278556891,158.147183394480123297399
47.9549999999999982946974,-1.00658986098728431279881,1.70253783338722208817728,0.249968327100017262409892,0.013052591367827480819952,-0.0107437739691049489315633,0.00357643974280635705553788,0.00338407047913535929950513,0.000564557925895907831807807,0.0213105870380192845281453,0.999766828068968993470378,-0.0105044590204094075158725,0.0131793392206927054144394,9.8850330527729859397823,-0.00409971811878398310902138,-0.00296065372674767651739458,-0.00646003445128572398314937,9.13797055489593823551786,3.73423406964460635748537,2.09587063908587012406315,1122.45092003869262953231,1094.57598921681346837431,1109.98575410105013361317,1117.58448769743949924305,319.588267992749251789064,133.163536411461876696194,203.85623446726216911884,63.646207024261634899176,158.144648860084288344297
47.957500000000003126388,-1.36286710819100176372842,1.82680649479925882872067,0.192705240366623037351346,0.00922175643776490527869782,-0.00518772380564876123276719,0.00421309109357681770696713,0.00339395242053847946694933,0.000596148575956275089508807,0.0213059469571601975412811,0.999766867184706087279267,-0.0122757379825901395686838,0.0135134749340767648662087,9.88207165483150795637357,-0.00414986588173185330652437,-0.00294579122551426797124718,-0.00625437676887661327812529,9.13795837652959086483406,3.7342255133862738425421,2.09585659807534741005952,1122.89377118091147167434,1094.96729769886860594852,1110.50034702490052040957,1117.79869986027847517107,24.2737737591472502174383,168.506874990321392715487,196.40341359553488587153,97.0004858126189333233924,158.142179803260233939
47.9600000000000008526513,-1.62130008971907613180008,1.81471853603761434925445,0.10454733049813862144628,0.0048067284293061259339841,0.000563489688696698111380901,0.00546065657702989384891801,0.00340388284421971930651662,0.000630208843418045738977995,0.0213006250144839801019536,0.999766914992913480197956,-0.0139406318932336313609621,0.0136948720364887463474268,9.87891818627810813779888,-0.00420036393938827499333621,-0.00292464892522379402498012,-0.00606146193292712767014541,9.13794651060318940949401,3.73421861997201265381818,2.09584344727953286735556,1122.57228890748842786707,1095.41852359176550635311,1110.96777116902831039624,1118.06949012650284203119,-272.660800466358239191322,189.95542683850541720858,185.558891806008944058703,121.106253678654965710848,158.139792897085669665103
47.9624999999999985789145,-1.79657249619904146875626,1.65566385518243031071961,-0.0450965188790869511703541,-0.000944651109087631416991182,0.00673902063100110387816599,0.00711813838731622811756283,0.00340870920535922897198766,0.000660817512127711724143064,0.0212934809888075810002661,0.999767016511801664968573,-0.0153799074871960247956615,0.0136001381966215015295596,9.87562755875630493562767,-0.00425052505223887447383113,-0.00290049468563356727113245,-0.00588286588294550764899338,9.13793528933532073210699,3.73421328717365730298638,2.09583003611578799763038,1121.53046717858092051756,1095.9170748330602691567,1111.42814148392972128931,1118.40423112867119925795,-452.317563064203170597466,162.933370982508080260232,150.096718193995513956907,125.164393819822720388402,158.137027000550745015062
47.9650000000000034106051,-1.82510149670042820524429,1.42904009967856104879047,-0.19667779245495276008171,-0.00604303985051837105890726,0.0107997077326486140558259,0.00773136937971000831604229,0.00340360359390322895004055,0.000686373015650313831811924,0.0212812844805721247676278,0.999767258493795440976726,-0.0165631634027608824755173,0.0131222945635080592841071,9.87225649191768361845334,-0.00429978515832227931037224,-0.00287638700074533673264887,-0.00571990365512256484364917,9.13792493931339677715187,3.73420880609079430811903,2.09581706568604086982077,1120.31070109216625496629,1096.23319044667846355878,1111.71825475999867194332,1118.69531209560227580369,-517.311610783698597515468,99.5868038301014024682445,98.2008608978456010163427,129.31272906428353053343,158.134806071134875082862
47.9675000000000011368684,-1.7376516834575170822319,1.14741446709308769769109,-0.346290572550769226722878,-0.0108209217219350332939154,0.0136415599432228237808395,0.00677364479001045950018467,0.00338738672423339595360381,0.00071055412442986199024475,0.0212652434716165857075953,0.999767617955631737736155,-0.0175655384204951060811428,0.0122373142116740593610125,9.86886195632812146527613,-0.00434760867465775260876093,-0.00285499129240620111436222,-0.00557365141579084424211521,9.13791463618927402023928,3.7342041416561508881955,2.09580539750230609996606,1118.94390912466110421519,1096.41500885221103089862,1111.91914578841920047125,1119.05079477399294773932,-595.975139631533238571137,54.4128614122240961137322,71.0801756677675058426757,188.482523365645164403759,158.132674109363506431691
47.9699999999999988631316,-1.51916789631249038450278,0.79689434653095669869316,-0.482804268560351079742077,-0.0155170393384687077542594,0.0157314301948959234245251,0.00441542056247644278815789,0.00336276367915463482438643,0.000738627400795847845887954,0.0212477905411125912726877,0.999768033889596563490443,-0.0184942935149316999010605,0.0110069218730405732342703,9.86550011687616823508051,-0.00439344362924959114941048,-0.0028385585806750828104239,-0.00544485033039447847980075,9.137903087929640122411,3.73419864536862489146074,2.09579529699776134776812,1117.33082539401129906764,1096.50525475373933659284,1112.07365563833718624664,1119.63772471242964456906,-567.457184538425963182817,22.8697494876424904930445,43.267578343716799338381,251.39821546173024557902,158.130219967986789697534
47.9725000000000036948222,-1.26113742910129933427754,0.526037035547455400497086,-0.539953786997369400424418,-0.0185949677946662846050874,0.0163765554658528537934625,0.00221374026557227430653252,0.00333651562593137484061256,0.000773168066523610155414692,0.0212295112220573095607179,0.99976847268420521164245,-0.0194039710027014769555542,0.00957993444327465831777957,9.86222528874249526609219,-0.0044368149976810487486456,-0.00282901796742168016793317,-0.00533370749385956612054205,9.13789049974736578008105,3.73419227627558125703899,2.09578720490281567023771,1116.10662320196752261836,1096.52935759964930184651,1112.13548368013789513498,1120.30778585130224200839,-452.604605308347743175545,17.4922782961313352245725,7.80125756413836946023821,305.21375841438231191205,158.128262213685303549937
47.9750000000000014210855,-0.944219358844597622670847,0.302078369137725455395582,-0.530080428286460847431272,-0.0209279972325067779859165,0.0160068276815469381912926,0.000238151629997537350562353,0.0033106056680243969685129,0.00080786359417570551780946,0.0212133415371143704830637,0.999768871969767713991928,-0.0201774345027591582579785,0.00801374353284672186203963,9.85908988260724150620717,-0.00447753158343350884246226,-0.00282796470401707952802006,-0.00523967021902812645633984,9.13787878832261668549108,3.73418511323449431316135,2.09578078004444634530046,1115.06780236746840273554,1096.5927161452200380154,1112.11266192615789805131,1121.16379350450233687297,-412.991086987142807629425,58.7527764455523993092356,-39.7371213386029324965421,398.5175351639995824371,158.126395227167222401476
47.9774999999999991473487,-0.513367074441136272966446,0.0921672721806848505021748,-0.448934031749428419377779,-0.0230517420944506418178932,0.0151000435683289347538194,-0.00170893833548266802814519,0.00328580054865593726778905,0.000835130703026959464452261,0.0212022766112794670834152,0.999769172350848611685592,-0.020674364008573156703541,0.00634812252086733308509281,9.85614219117599965613863,-0.00451558404866831807761285,-0.00283685299693018332101158,-0.00516124684858046064994674,9.137868575800615289495,3.73417744839187015770676,2.095774715242563868145,1114.04166776703368668677,1096.82312148187679667899,1111.93679807344506116351,1122.30037352712042775238,-345.257762473653031065624,121.192870185297422835902,-99.4311607996169755097071,406.862569531968915725884,158.124259406226030932885
47.9800000000000039790393,-0.123235743277255102579026,-0.0483496155118854908927517,-0.337579708960921542892919,-0.0242811226863307062784347,0.0148109430472017078450619,-0.00288032301772421636329446,0.00325882494074570963973891,0.000855735573423741478771287,0.0211950002853434280036815,0.999769407787827746325604,-0.0209216672447339289975243,0.00455199190433826228474601,9.8534247136454276017048,-0.00455086995714426220671633,-0.00285711082944198118890866,-0.00509600747699723473360667,9.13785840691152806414266,3.73416987018441126622292,2.0957671226653595830669,1113.3415135550992545177,1097.19868049614683513937,1111.61550612215955879947,1123.1981063521632222546,-258.746972656494506281888,190.166020923464230918398,-175.830845661085817255298,308.315603756479106323241,158.12256628357201293511
47.9825000000000017053026,0.282302853904269956952788,-0.183727361346881362669237,-0.202967104531978831394312,-0.0246323270009776995603801,0.0154478506381855555662508,-0.00333881972070752168837982,0.00322957401694584167808899,0.000866623179383910896556031,0.0211869630408194897785989,0.999769673877599296396568,-0.0208699678145249471750144,0.00265933469129386174101271,9.85097307475796846176763,-0.00458321334168119640106731,-0.00289022833624739483929234,-0.00504056324835379810506142,9.13784755470384268960515,3.73416338234249023386724,2.09575621208922102667316,1112.74793290375055221375,1097.77395158649460427114,1111.05764384513918230368,1123.84195154590361198643,-227.675596772976575721259,254.705311257934880586618,-266.052211100091938078549,188.698483989572821428737,158.120962594875919648985
47.9849999999999994315658,0.681860404360521532574069,-0.334955536413721111088648,-0.0661316820009959921433662,-0.0238545974456861979706712,0.0162357477463462504529979,-0.00314036032737971667824772,0.00320231873777447996823331,0.000867025926232306782051595,0.0211735173083047456543682,0.999770054079578418537722,-0.0205129674017198622426594,0.000794147306877379666190109,9.84881488389376968939359,-0.00461233585644348249854563,-0.00293763812755784038677209,-0.0049910037285353916688968,9.13783561294936497176877,3.73415889415776991455687,2.09574119596648245078541,1112.20313557123540704197,1098.47220705243535121554,1110.28524506666030902124,1124.14159877211022831034,-212.494460473526913801834,288.754903243886985819699,-355.907729908540034102771,20.4994529953077915251924,158.119432562003169095988
47.9875000000000042632564,1.04483454309760115386041,-0.512365654173549289751577,0.0581537374429508813200584,-0.0214798991019693394366463,0.0162998084331440890037968,-0.0024532366053413548652451,0.0031812980295090062879404,0.000862131704181117201543638,0.021155816789600174337993,0.999770505063715120286361,-0.0199609523085772823380868,-0.000916241322707692096294352,9.84696967697685998643919,-0.00463796331741230666301234,-0.00300037338656761794902783,-0.00494352451831813963223361,9.13782231345023276958273,3.73415633089895404594927,2.09572298661531242203182,1111.68546060138237407955,1099.21772610271477788046,1109.27810519559557178582,1123.94444881088020338211,-225.033743963034254420563,306.67328063812192340265,-478.95501531459609623198,-193.780597509604376682546,158.11799065540105857508
47.9900000000000019895197,1.40045288841356230236102,-0.74086779472310226868359,0.18517680668366748308884,-0.0170633732482260297436127,0.0149307975917160346696066,-0.00159411187792425591489009,0.00317067667949572171842698,0.0008584057486894406492281,0.0211413656496734318757102,0.999770849936039152083822,-0.0193483163656958528919816,-0.00234570092074164876505549,9.84544941768259818104525,-0.0046600388684456157950553,-0.00307875117601427543412296,-0.00489494681103786258291599,9.13780786564427494056417,3.73415499999493061267231,2.09570307547886924837144,1111.07796685141966008814,1100.00557345562674527173,1107.89046999008610328019,1123.17269578456171075231,-220.708930250585325438806,247.86199433897115795844,-519.256110104169465557788,-346.233426911336437115096,158.116361261841859686683
47.9924999999999997157829,1.60995277326262442585403,-0.923449544655668197457032,0.274819251733884994948198,-0.0124622307217412669338996,0.0125848393432707403999382,-0.00103475595030428388181043,0.00317338162450841662631795,0.00085716681068721269857319,0.0211378312881211928575542,0.999770918135115760350118,-0.0187074009698723238426243,-0.00339701558871206149570199,9.84425955392753593287125,-0.00467890116027411782917422,-0.0031721569542831557289575,-0.00484304605910124055107024,9.13779407212993355358321,3.73415353820750084423707,2.09568397748156476367853,1110.58191595013045116502,1100.45703607440850646526,1106.68182464507708573365,1122.21328167632509575924,-195.019270561206496950035,115.767931864352135562513,-470.876523223873959977936,-403.369811453124498257239,158.115086730620220123456
47.9950000000000045474735,1.72009313703796107297705,-1.07330463040615908809627,0.3539715389604027873105,-0.00765550398131747793228907,0.00957554392050797772983906,-0.000635002323174638488162413,0.00318567824571203877040415,0.000854273657771823782466902,0.0211478575549230683738866,0.999770669274785750424428,-0.0179643779609226610094463,-0.00411081134865073916095923,9.84340026292285052988973,-0.00469526722444235308784322,-0.00327892766113562633689682,-0.00478668808679314373294433,9.13778201899684994202744,3.73415102213473204528782,2.09566607450426811709576,1110.10287049861312880239,1100.58441311494880210375,1105.53608737396552896826,1121.15584672729505655298,-203.184833674172949713466,-33.5164549086413430245557,-470.045498927752873896679,-433.891943994518385352421,158.113897676326786267964
47.9975000000000022737368,1.74598927065204501118956,-1.19707369338811364656294,0.440599190757043845945162,-0.00246405424101836393116494,0.0058420728507292355585756,-0.000154326868748682244532333,0.00320401504629326408860046,0.000848811424206729410631145,0.0211678872265264987617694,0.999770190614381770721764,-0.0171071291875618536337811,-0.00452895249619106321503637,9.84286643429587826403804,-0.00470998029714008153295834,-0.00339648472327929188893658,-0.00472576425669887258129709,9.13777084592147126329564,3.73414694181028217201401,2.09564934679357905977781,1109.5659917817590667255,1100.28945379986521402316,1104.33159715043711912585,1120.04382195635139396472,-185.252888496857167410781,-184.196878317183461604145,-406.461413318089796575805,-354.110812576758803515986,158.112568623910988208081
48,1.69221043168151297209079,-1.24721150531915037085184,0.502161622131798601742503,0.00135619549058252114766276,0.00264213379120466869062755,0.000451163446666088261468447,0.00322693162009731132969237,0.000839762263089427279071086,0.0211939106096295584724665,0.999769573381775855658304,-0.0161187319890937937050257,-0.00465965750303344583560516,9.84264874830011216033654,-0.00472389345027736905213711,-0.00352145968488107611801818,-0.00466098044886003714387668,9.13776007461042105717297,3.73414094268575036394964,2.09563442939689226207634,1109.1766060561296853848,1099.66342872336372238351,1103.50378030737692824914,1119.38529266441287290945,-132.644383314193561318461,-319.338477571472424187959,-293.530165811028837197227,-198.13679319267805567506,158.111542120021738355717
48.0024999999999977262632,1.57497833358252115054654,-1.24045642062160910157331,0.539425295659775150269866,0.00499432577942588318969941,-0.000370011389307272188595871,0.00153246953177009004667952,0.00324788171757059256072875,0.000825871541310983932858425,0.0212226637398535145084821,0.999768908752703522324623,-0.014977904401865940048344,-0.00461988663179214303911024,9.84273505467105458421884,-0.00473777282380681737106176,-0.00364985187990789737566555,-0.00459368789096262827159611,9.13774959028142674810624,3.73413199263288486662304,2.09562196004540490790191,1108.90276986518870216969,1098.69276141200930396735,1102.86394632138330962334,1119.05313799038890465454,-74.698696096955231382708,-482.723631741945098383439,-240.111691924871536230057,-89.215324814813186549145,158.110599539364017118714
48.0050000000000025579538,1.37257295848280791439322,-1.16789973205327868299719,0.533634688756448816171485,0.00932401119412101103689494,-0.00367750446029141680320818,0.00358999160051102052595984,0.00326695847139517282428645,0.00080760635835779460284245,0.0212495218910111506593896,0.99976829416981527476338,-0.0136929289200904170942241,-0.00440445820220083938956179,9.84311000379024747530821,-0.00475221615850424453086909,-0.00377748716220544563521022,-0.00452550692412366853401018,9.13773950150077673981741,3.73411998939882883163932,2.09561260762841694571534,1108.80311257564471816295,1097.24981056465276196832,1102.30322184775195637485,1118.93921604033857875038,17.2586510056046726901968,-553.056750523491132298659,-171.479039364570354564421,-21.6601553494800249666241,158.109565711845931446078
48.0075000000000002842171,1.15983480252141846200686,-1.05401665870556660031809,0.472197122603012608976769,0.0125688634287302921505036,-0.00648544713215938335021393,0.00589611353495655878681481,0.00328695498042164612959026,0.000788141583977688053516686,0.0212726207040130760317354,0.999767758303483189408212,-0.0123230408762454897442229,-0.00396309879015075555708236,9.84375553726096264028911,-0.0047676358791714475507395,-0.00390033342228144133678747,-0.00445796263682372330416914,9.13772966304468425846608,3.73410577157394252267864,2.09560588743714282244923,1108.98906312021676967561,1095.92747765939043347316,1102.00655112456001916144,1118.94483721364144912513,144.754416204291146641481,-526.116252750285752881609,-81.0321361839042140218226,-14.8950857375574692298414,158.108785741008631475779
48.0099999999999980104803,0.912582368511485331197264,-0.885125410995404426905964,0.347462623340301590690871,0.0150703364091473585029135,-0.00936498414199016075698534,0.00829197618729255944702849,0.00330893365630943346242243,0.000769290299500048732790625,0.0212972624562518461632799,0.99976718216831261809574,-0.0109006316206139812485798,-0.0032887648148035852901927,9.84465128622985297113246,-0.0047842967772204906054534,-0.00401476950897259373535197,-0.00439207672176892410798033,9.13772018621161130624841,3.73408983369543223673759,2.09560079484896188972698,1109.52688465666551564937,1094.61922930090372574341,1101.8980611668328037922,1118.86474061165085913672,276.332325436255416661879,-501.793075408766299005947,-9.42333437601037005038052,-70.8226953865597863568837,158.108091386391635069231
48.0125000000000028421709,0.646730812721788228536468,-0.675169339629331122232259,0.182422608450054757334158,0.0171324173105270004258127,-0.0118152764123996539130657,0.00992372275902791110835377,0.00333759876709226275398601,0.000751136551964908904914509,0.0213249371006672613915178,0.999766516471161659218581,-0.0094224138779375431196339,-0.00231137595697241543524214,9.84577374273625594014447,-0.00480218988719252701941054,-0.00411799953522809080580513,-0.00432800395706480281465822,9.13771148929373211444727,3.7340727802326205697625,2.09559743629740857784327,1110.37072474739875360683,1093.41851228234531845374,1101.95943445267994320602,1118.59072373670846900495,400.843868608557841071161,-433.491840119637515726936,67.6117331582754275132174,-172.671329360312370226893,158.107469037708511905294
48.0150000000000005684342,0.372408200983084358703934,-0.429639795632922871782,0.00134036218486886793410662,0.0185836710132668836426006,-0.0132422581130610776678491,0.00984688629953126177973832,0.00337319162999848154438354,0.000733690037436391718529693,0.0213520162185140936761396,0.999765835661501900410997,-0.00788600631151789230322002,-0.00105521993658345275557409,9.84709617754545440959646,-0.00482092345735580553311994,-0.00420817100195200292922504,-0.00426487940553245837432828,9.1377029760888852649714,3.7340552964940392222104,2.09559452554056369066871,1111.53110399970933031,1092.45177010030442943389,1102.23611983262435387587,1118.00138396484885561222,553.385214094353955260885,-346.566108400062660166441,169.59075261408506207772,-328.956160482656684962421,158.106935036752645373781
48.0174999999999982946974,0.055766093729712848392488,-0.118186464048431166817821,-0.187242965084107759743404,0.0190946122663344167169619,-0.0139070016903172014033352,0.00809802216687782218385028,0.00341479312031392262180574,0.000719931152287137370721082,0.0213756291220905426941901,0.99976520121280842978706,-0.00634906104908301502365298,0.000429196228981063021556963,9.84858768319898381093935,-0.00483968835502991429758923,-0.00428443394361235473793981,-0.00420069813368679524645533,9.13769343941367040429213,3.73403780053890743673151,2.0955905283544913331184,1113.13765081786800692498,1091.68568174034658113669,1102.80738821574959729332,1116.94594293429668141471,595.361623455269295845937,-200.439581378429693359067,243.689692411920020731486,-424.316362628598028550186,158.106398152430585923867
48.020000000000003126388,-0.180080029250979545274447,0.137400118126098758075671,-0.296714954952192633275132,0.018499092152218465229252,-0.0136104295717641727431202,0.00615874741075281544738784,0.00345918967111141697351462,0.000708498606349091818341901,0.0213939496428590114618373,0.99976466529413987593955,-0.00478628949166951325744357,0.00204158261689667969163153,9.8502130648562946646507,-0.00485738542424306047468052,-0.00434692239832374510699609,-0.00413234306450759904250081,9.13768219730360975461281,3.73402111773589640009163,2.09558324278170493570883,1114.50791211698719962442,1091.44957219341176823946,1103.45456829468457726762,1115.87980215170478004438,520.567868967970866833639,-3.10159687655710092357708,283.089379267758658897947,-424.770387585987066358939,158.106038035377082451305
48.0225000000000008526513,-0.3705102625883758271641,0.370804095912280140545647,-0.350274772058700500920736,0.0172774460813253059876526,-0.012549460681209087531407,0.00468008922146102672445789,0.00350025707349051456301892,0.000695149806143178301993946,0.021404526093951367626822,0.999764306932873769717673,-0.0031188615846644077156391,0.00362214331149008500476683,9.85193268775310393436939,-0.00487278494364542114763994,-0.00439666508286744046191119,-0.00405597188323855370462034,9.1376692029899722058417,3.73400592995282698538517,2.09557112843813797553594,1115.74049016270919310045,1091.67017375596378769842,1104.22283511208911477297,1114.82209099636565952096,483.862022439628958636604,191.290083544610098442718,349.128568476952864330087,-412.015466288277821149677,158.105768474702500725471
48.0249999999999985789145,-0.538174314595473712863338,0.611955158905048257622639,-0.364109488263406000374545,0.0153199487980981083334875,-0.0108240655945868041731828,0.00372269893472280694740606,0.00353497896793417100066992,0.000679821147041901815977205,0.0214058588070642034917324,0.999764170910671268188707,-0.00135114777539006337969685,0.0050748704601926708512849,9.85370209467728663810249,-0.00488472363924021164838241,-0.00443540722483872201092892,-0.00396766257779924622073331,9.13765484789377779861752,3.73399330746606938902232,2.0955542600081957793634,1116.92722222918314400886,1092.40602261113394888525,1105.20021113706775395258,1113.81972482026526449772,379.911448483095512074215,324.879973599097183978301,354.885225221233099546225,-293.552799134008523651573,158.105548546768233109105
48.0275000000000034106051,-0.628689983844299415949308,0.775547399206782395175708,-0.348413360679909855921466,0.0135638186992926793733583,-0.0088846352354664277078955,0.00328486560920596137869154,0.00356420143758610788800589,0.00066252458546995599171503,0.0214037371123521127924683,0.999764130044400678443139,0.0005104717882496792591418,0.00638229969003971386865004,9.85547290446343104974858,-0.00489240295620570805196214,-0.00446522920087020006030265,-0.0038641018026093422628453,9.13764042084195082793485,3.73398249569399087732791,2.09553453500216413374346,1117.64004740512564239907,1093.2945736239601046691,1105.9972612381961880601,1113.35432700069486600114,233.912603926063127346424,371.585440759000448451843,302.913854134366943071655,-93.0897727986554315293688,158.105450000498450435771
48.0300000000000011368684,-0.677533851678090215386874,0.899050702766977072322163,-0.318084305481882656518877,0.0120141088237135460620175,-0.00655789043394901932648722,0.00262632243374365942356619,0.00359054005329885028013903,0.000640019332656863019527516,0.0213998130379582304771979,0.999764141631054203962492,0.00252211077183363795162219,0.00756403953708911086506461,9.85719442081009233902478,-0.00489539478199606768737961,-0.00448830964520992390515142,-0.00374317099803958032444573,9.13762719231605125003171,3.73397240987028755654364,2.09551439899836644542575,1118.09678524881405792257,1094.26394981492990154948,1106.71478040774036344374,1113.3542759562717492372,156.90237813879039663334,394.563807641447567675641,290.036495508175050872524,98.6759841993249864344762,158.105436680171123953187
48.0324999999999988631316,-0.702546363910004467712156,1.00577728264825716486541,-0.274883892132314511247415,0.0103385772467308196392866,-0.00391455106991987593356708,0.00165533290925949606517409,0.00361690869290815083733626,0.000613965980783912046968298,0.0213922863998371702576318,0.999764232443135725247885,0.00464113800972545259559965,0.00865224331192521872724299,9.85881543425483819476085,-0.00489349170777865407483409,-0.00450669898314495255553513,-0.00360433036788477580147916,9.13761573713889596604076,3.7339626476839935520502,2.0954961252999417808951,1118.42455929581888085522,1095.26739266216554824496,1107.44744371573574426293,1113.84770692169104222558,92.359653862602542062632,313.037437931256079082232,246.818585692436641920722,240.412479824785606297155,158.105514990237480787982
48.0350000000000036948222,-0.704122286206581571299523,1.06531672850159098153711,-0.240391360416926075371791,0.00911660559188483786419166,-0.00181284146627391459273559,0.000970944713146723917783498,0.00364025625360038388236839,0.000592759279315093834741845,0.0213823948997254181803029,0.999764380089696480524708,0.00668761944350955168242523,0.00956955247619215021437356,9.86028699435742872481114,-0.00488654716841305236663118,-0.00452212101758899323589169,-0.00344864932013991916034956,9.1376053227285964908333,3.73395275122840653025946,2.09548060012540648955337,1118.55858351812730688835,1095.82913700458698258444,1107.94887333620317804161,1114.55633835539629217237,26.9778343889218596984847,154.673249311475046852138,180.804272532848983701115,305.646461062659057006385,158.105655032092954570544
48.0375000000000014210855,-0.690165617866795533252855,1.09684112956063550825547,-0.217445917583866499267486,0.00793624998747983860514221,0.000537243244650618739441383,0.000546815278199985050321119,0.00365647586175271233424611,0.000585706673356077133635322,0.0213729898945558167977499,0.999764532712226317023863,0.00846122499674554703896767,0.0102236947002676756279804,9.86156415324424528989766,-0.00487432990432666232716308,-0.00453600952456028033016322,-0.00327844061712482572057414,9.13759387921425414447185,3.73394243789387170195937,2.09546689805176855614377,1118.55944846776355916518,1096.04075890872331910941,1108.35146507840045160265,1115.37593922700511939183,-26.9094184923477861559604,34.5502474768496057322409,147.149544878900229605279,314.501746771806665492477,158.105867546157298875187
48.0399999999999991473487,-0.66075269036602080063858,1.10321579169026162681178,-0.211348094356385601821913,0.0064446301755645531497696,0.00312014684822702406674644,0.000328671977654355906839356,0.00366284194682613226806689,0.000595999885084558755042605,0.0213646793178168502291836,0.999764685671905684039018,0.00988093486659636331681522,0.0105527815934267771291744,9.86260755069990580068406,-0.00485653876172842131203611,-0.00454959636916919991922459,-0.00309687981685503313164509,9.13758086925061618899235,3.7339313319211013819654,2.09545537053680064332184,1118.42403642566569033079,1096.0018882419710735121,1108.68462106059701000049,1116.12884708925389531942,-98.4589207226641605075201,-50.0228141413316365060382,118.674254502351004703087,254.809284647405235091355,158.106136159830128917747
48.0425000000000039790393,-0.605140257603971165600854,1.07483861517337375701686,-0.231241898774827814300181,0.00457680609518446197825359,0.00581727314310847513217917,0.000275839065727369835406141,0.00366075784903242178527916,0.000618245090799984407456402,0.0213543997950188836620899,0.999764900779305576428158,0.0110351476623821789790902,0.0105785649847966387038234,9.86338450525627052911659,-0.00483296645315680131749225,-0.00456401403611200566501349,-0.00290769479298826983085235,9.13756721340847377632599,3.73391948977649246188548,2.0954462589972338015798,1118.06715386414998647524,1095.79064483801653295814,1108.94483635091251017002,1116.6499856502427974192,-222.619482957884230245327,-93.0310670101313661461973,100.326711248174945012579,157.307063371864842338255,158.106467570912485598456
48.0450000000000017053026,-0.501236817272953549817771,0.995706151186014465359619,-0.284791368939199318610633,0.00247825670649492839359151,0.00905173446771973151669943,0.00024177073812572079380967,0.00365426507363626447769112,0.000643350918112531853544633,0.0213427116490911769619565,0.999765154993209725908798,0.0120851787065554775596476,0.0103789289875020687703433,9.86387018289388706193677,-0.00480367873615266272740998,-0.00458031004305530474451924,-0.00271494169531045527465896,9.13755447619522520597002,3.73390687571447443815487,2.09543972011787360543167,1117.31093901087569975061,1095.53673290692017872061,1109.18625461683814137359,1116.91538240611362198251,-337.248394625100672783446,-70.1240472658538465111633,79.1836563676308173853613,40.3445320239737554857129,158.106931585404964835107
48.0474999999999994315658,-0.384185978984404818969978,0.890894055750830138329377,-0.346438213392018024006092,0.00117684141443697852687233,0.0114345062670127371046158,8.85480847439729947499776e-05,0.00364532104597778709373368,0.000665278855841467298311287,0.0213308811544435546203591,0.999765417475990458839874,0.0131302777089297838947202,0.0099973706609384829779863,9.86404871934229809937733,-0.00476894184068706126350401,-0.00459955355371744704223724,-0.00252280121427467122000032,9.13754327236292240854709,3.73389382505621192365197,2.09543567272653019628592,1116.38091189102601674676,1095.44002460168758261716,1109.34075463275030415389,1116.85170831036248273449,-429.628416800558909471874,-3.69956374411041810645884,53.9608825863703245317993,-65.9771570514411820340683,158.107368942520082555347
48.0500000000000042632564,-0.241630993367922347614396,0.74708816075545125823254,-0.406749918595015691469285,0.00040545001287903715408989,0.0132280071936779382302252,-0.000402070855119456883625811,0.00363400549969888041201838,0.00068307726827298263783117,0.021319314171871949631365,0.999765680368108866638011,0.0141677604342743609922017,0.00944758386169685521194239,9.86391331387367031879876,-0.0047290589020415520898899,-0.00462293798798438498182106,-0.00233528752691229734075873,9.13753281508054726600676,3.73388101444535136508307,2.09543325156680504406381,1115.16279692687180613575,1095.51823508819961716654,1109.45605902977013101918,1116.58549662085624731844,-581.26993534767552773701,64.9954521977755916850583,38.0437803116170485395742,-132.746077338902381370644,158.107853415242487926662
48.0525000000000019895197,-0.0510891590236182899231743,0.53084948073894788755922,-0.445026892898825965350085,-5.14499717819968201051178e-05,0.0152304672893940305777871,-0.00162384856692740107628192,0.00362170171293964976433344,0.000697385289590243947696613,0.0213063544807824932492135,0.999765975394352857108515,0.0151635054942811028921845,0.00877428850524583636705245,9.86346544832001015379319,-0.00468423322693207761641121,-0.004651816777635908381483,-0.00215593188095126791700706,9.13752274502213879259216,3.73386909394617294566387,2.09543281638682676870644,1113.47456221428615208424,1095.76500186267662684259,1109.53097353430848670541,1116.18797792366763133032,-632.466782520516517251963,97.7578364387661764567383,8.41314067725617320547826,-135.592435426756850347374,158.108482869719836116928
48.0549999999999997157829,0.116148548885761981885878,0.315234138381333850453814,-0.421805296042849053872459,-0.000191640807521212605665437,0.0168295582245738435667182,-0.00328636479218672025379155,0.00360677972047948039099885,0.000710205470560089369147505,0.0212917653686402752466478,0.999766315603472288664477,0.0160549875349853821138169,0.00796729039953612827584806,9.86271440835675683445061,-0.00463452330596350429992025,-0.00468756305063298961410823,-0.00198760388265440670826911,9.13751261975389716951668,3.73385812245009240939453,2.09543414369913083561414,1112.00046301427209982648,1096.00702427039300346223,1109.49812473315637362248,1115.90753444372307967569,-570.086350111141086927091,78.3735405265869502500209,-48.8449370234070769924983,-79.4557924382891656023276,158.109042822728241617369
48.0575000000000045474735,0.281022558101513053596676,0.069880520363849812914836,-0.314794102598968839057392,-4.33229655516427524832024e-05,0.0178087781238657483218191,-0.00553665331167592714156633,0.00359180525822927823598185,0.000724418124874733602470978,0.0212763621835895117007098,0.999766677566574224478302,0.0167641568416979254430021,0.0071026500598209488246404,9.86167525891172935814666,-0.00457983435954713823112794,-0.00473145682068260367558743,-0.0018322332306009300132571,9.13750179019724839690753,3.73384814240490880976608,2.09543626106962888044905,1110.62413046372898861591,1096.15686956530976203794,1109.28674884919132637151,1115.79069896147598228708,-548.39494616643742119777,20.7986215220337733455835,-154.100831072322137060837,-0.315505183061598026839079,158.109634057726452738279
48.0600000000000022737368,0.457660941743161853167976,-0.239290323463554943650422,-0.079879438609031613860445,0.00100976919581651945409528,0.0178851250715886256337228,-0.00824400131877831184035177,0.00358175224251027152569393,0.000741070560644693787644144,0.0212598679808331351981376,0.999767051962718422686294,0.0172504155149552050596551,0.00630534529023228651478661,9.86036745477358955724867,-0.00451998059485551797326286,-0.00478452423021629488081308,-0.0016906789476017738873409,9.13748982349182448103875,3.73383911641742072262673,2.09543810364419114122825,1109.25848828343850982492,1096.11101737800322553085,1108.72762057779436872806,1115.90595691780777087843,-436.639797843678593380901,-61.6545299401529121041676,-265.712731659428470720741,84.4290131365000178220726,158.110373750896911815289
48.0625,0.571284236640745346491599,-0.489232783184527619813053,0.189439081880673182434194,0.00270648901796008206285804,0.0170129876899919839361441,-0.0095097251369537765669504,0.0035725800910171041230301,0.00075621935082520388027999,0.0212466790754461641588247,0.999767360009036765156054,0.0175686067658141070735311,0.00552142909616730459543277,9.85881420826197008011604,-0.00445489318087000010087939,-0.00484728561784456262601095,-0.00156283753208132634472671,9.1374770399454980918108,3.73383008191509890849602,2.09543855161251135754696,1108.44093147451258118963,1095.84859691560927785758,1107.95818519089539222477,1116.21284402715809846995,-254.363194297961285883503,-145.287449259872374796032,-370.67493549490853865791,154.187737950045800516818,158.111011323634642167235
48.0649999999999977262632,0.635114887039051279060686,-0.705406057333891500782386,0.490814456161811518697391,0.00495318609141967396147788,0.0153601090124582412982379,-0.00876216234666162344102425,0.00356277924418348925991729,0.000768804015432305058383444,0.021239853076426961492329,0.99976754017573443711342,0.0177189192874124407106606,0.00474798545898945378862521,9.8570398435878807674726,-0.0043846901797368401099142,-0.00491975772121515646934098,-0.00144778156780145904336532,9.13746446745189722093983,3.73382103877215909548681,2.09543717122746508962905,1107.98667231194986015907,1095.3845801317045243195,1106.87424590032151172636,1116.67689560755729871744,-125.532528473267475987996,-204.670763660428633556876,-474.550991883627887091279,194.786733212677461324347,158.11166646373058597419
48.0675000000000025579538,0.654245136113285497003744,-0.875636529917890205076958,0.775713016189163773184134,0.00718364844005174585372941,0.0131414151265959889408608,-0.00647711812529828349221939,0.00355447772715027912257546,0.000783063525997588333847632,0.0212368286987803731036273,0.999767632575944920070299,0.0176002604176579320605089,0.00405479681135117314694227,9.85506831910167058197203,-0.00430970341066996831536073,-0.00500145528711876032751382,-0.00134404397536277237998337,9.1374523917100578529471,3.73381184860737524999763,2.09543465167217535238819,1107.81326883214592271543,1094.82524309730661116191,1105.58543023147603889811,1117.18677769322198400914,-11.7753731945807675884907,-223.249207393359426987445,-538.882370062944460187282,188.565615238479892923351,158.112333177907686376784
48.0700000000000002842171,0.626460308614153693618221,-0.972958845548279160908578,0.993897591008277681012828,0.00891994703717241890772449,0.0104474321598887268103262,-0.00317767775718885009395009,0.00354747079172784609418789,0.000805122154847665960457348,0.0212364181482209944673567,0.999767655409109501363218,0.0170759226048489906601979,0.00346375242314556769374079,9.85292254247550935986055,-0.00423054880341333216370314,-0.00509130039510168486832642,-0.0012499056878831952231701,9.13744047109700474607052,3.7338021522377773386836,2.09543177978661665505911,1107.927795445976926203,1094.26833409473715619242,1104.17983405000541097252,1117.61972368375018049846,104.749673339124228732544,-216.443615848826482306322,-601.888628096868956163235,137.797516533999271359789,158.113010576772865078965
48.0724999999999980104803,0.556119216739815458439011,-0.990996695229136137506032,1.13788365269857383310637,0.010543474632374092922471,0.00708809603950314587317294,0.00128367500096674943058095,0.00354393729703477572412496,0.000836769145162655886803493,0.0212418411281967769999035,0.999767528252982873304688,0.0160988198060584564164088,0.00303795654652943419860023,9.85062294817566197480119,-0.00414816329446034658123832,-0.00518763649553464524510904,-0.00116346086136400296909277,9.13742836424555271435111,3.73379152897563626467559,2.09542860496859928431945,1108.33701719884106751124,1093.74302501806346299418,1102.57598709099443112791,1117.87576527589135366725,189.919194100269265845782,-155.812900919465704419054,-541.358926194966898037819,29.4606904965198097556822,158.113832022017845702067
48.0750000000000028421709,0.480307216826405813936418,-0.919575191136208780484651,1.14629810812607568770716,0.0114182722108694487822556,0.00430526522302205737896541,0.00523949214529488473818253,0.00354275420498366758192965,0.000875654405368435774341396,0.0212586555686534069142812,0.999767137047870901866986,0.0147057244050793154560575,0.00276893793646745128844699,9.84818751267027359119766,-0.00406380569058564528744926,-0.00528831173742835489171021,-0.00108278769308837465555617,9.13741684133482046092922,3.73377968329731180219255,2.09542440611314662035625,1108.87739141647875840135,1093.48926959013942905585,1101.47303941902919177664,1117.7670271362328549003,254.401553821668954924462,-59.9031751507630403352778,-360.664552568639123819594,-122.038482822819204898224,158.114521251923093814185
48.0775000000000005684342,0.399190441483183333648554,-0.761175665243178034558014,1.04292064542594831166866,0.0116105886896755092219102,0.00178277616877450676216577,0.00908701210089139614634046,0.00354375526692791726485199,0.000916673455979524439730943,0.0212889674677182727524638,0.999766441602557009993291,0.0129921329047355260666308,0.00266064709788935843670643,9.84563128223341621492182,-0.00397898594836413634079353,-0.00539087331864446933638035,-0.00100605289468452948828392,9.13740658095581892439441,3.73376603336922796572139,2.09541945687438602163866,1109.6090249679500630009,1093.44350914230949456396,1100.77266432815031294012,1117.26557286177694550133,361.794843031395259913552,19.7708589781721180145269,-195.31678910024794504352,-303.106706400106418186624,158.11521280415843193623
48.0799999999999982946974,0.297382800243197520373428,-0.484448561882090289465452,0.820201368006040709701665,0.0117061471070611898548375,-0.00058647877955366302729634,0.0126152097840903400227663,0.00354673439894938281533032,0.000955961416678854903304641,0.0213289305301531707803608,0.999765528301588046744541,0.0110335807322066853375375,0.00271112506021603527628372,9.84296673899573626442816,-0.00389532960803680482556044,-0.00549277749322442995077997,-0.000931704840429805497027671,9.1373978292979689541653,3.73375086372558184777404,2.09541445240885515488571,1110.68636563163408936816,1093.58812388503019974451,1100.49645547352884022985,1116.25149360423370126227,421.279824074929820199031,76.8806078437198721076129,-6.24248812837003086428922,-419.632662167636169670004,158.116042860666368596867
