t,ang acc x,ang acc y,ang acc z,ang vel x,ang vel y,ang vel z,quat x,quat y,quat z,quat w,acc x,acc y,acc z,vel x,vel y,vel z,pos x,pos y,pos z,mot 1,mot 2,mot 3,mot 4,dmot 1,dmot 2,dmot 3,dmot 4,vbat
0.00500000000000000010408341,-3.82265855455144931696054,5.32613451286240913162828,-0.490610536532357033312479,0.00824654674173565076233938,0.106083230783978688105407,-0.0129074743366670643962557,0.0186677600297280067709327,-0.0139138700837635811979887,0.750448011809402792948731,0.660489133754011414900731,0.3198575056828501517181,0.342486142492726963748595,11.2555064448954738054454,-0.125875529528334390017008,-0.0366064043583380419044637,0.7913518932739584954561,1.98934267851350199407534,0.378224347812537109447817,0.152899880545610961091185,1226.27341057705007187906,1221.23694777518812770722,1248.96459369910644454649,1139.66911510096520032675,-545.381169016400349391915,-2059.65833315985992157948,115.190906562384057565396,-1534.71791586544009078352,164.143735724916240314997
0.00749999999999999972244424,-3.0808557529635098859444,6.27202950528749525460626,0.0922199704815311743777428,-0.00191711102668631070203298,0.12054742359418710306862,-0.0164476893806237874084974,0.0183769345491463648167851,-0.0137837409603486314019216,0.750534040465934304542373,0.6604999008337252286438,0.322537789563198007414258,0.319421351795862562550354,11.2680407287720569797784,-0.126784874499390382007746,-0.0359112271366243129833151,0.79474660596172985727037,1.98949756682374201410823,0.377840095950592869122886,0.154876209517907148516258,1224.90995765450907128979,1216.08780194228847904014,1249.25257096551240465487,1135.83232031130160066823,-600.536660158650192897767,-2030.43458300212478206959,28.1275847965844150166959,-1547.10618170852285402361,164.160305417992532284188
0.0100000000000000002081668,-2.25666723108978484191312,7.1791213434815164262659,0.713376586730825601456729,-0.00933883092040294765512343,0.137588246467539726536344,-0.0176415781497375676045714,0.0180978181964038184470489,-0.0136359263398412328821552,0.750608348226549981774269,0.660509959242873812002017,0.32512208015515764447656,0.296718639110424675653377,11.2804278566905509251228,-0.127693136781026200798905,-0.0351902542716240884779211,0.79816726950155225672745,1.98965267094042697060274,0.377451681614682565957253,0.156852519273725066195624,1223.27072727625682091457,1211.08477486017750379688,1249.10523162308936662157,1131.93358419242258605664,-685.794211601023448565684,-1922.99860438292807884864,-218.742944153655088257437,-1573.67587417525078308245,164.176360867748911687158
0.0125000000000000006938894,-1.48193196644781455262319,7.98766648990222183357446,1.28637228571753126082911,-0.012274777728447655231192,0.157121842348466822514297,-0.0142836341199219160613687,0.0178371582776586934393492,-0.013468920681658304999706,0.750668484916871547873995,0.660517036459070894238721,0.327687203409216365468382,0.274461873051070448514821,11.2925681321184310235139,-0.128588930701459047689639,-0.034437735384682421901914,0.801627320225778094986424,1.98980883805697494892684,0.37705946280440189033456,0.158829278721609568059137,1221.48098659650395347853,1206.47280892037383637216,1248.15885624474412907148,1127.96394094042534561595,-783.785260956665410958522,-1895.88946739982043254713,-645.483893987557280524925,-1747.96279794409224450646,164.191795899442126938084
0.0149999999999999994448885,-0.793505080641737858826446,8.80204403102479560061511,1.78860605200580979889935,-0.0106472373508845283979207,0.182940704171113133202908,-0.00615658337847867914716105,0.0175937426905683827471627,-0.0132791479637371576116855,0.750711917042751530892986,0.660519688902961754628507,0.33013333724272381219933,0.252659298639741902725575,11.3043419781905747356632,-0.129472250403640631866153,-0.0336554466540954222431026,0.805137713124207898829354,1.98996441737406937200205,0.376664970300339518871624,0.160806968952785234172609,1219.35180097147349442821,1201.60532752317840277101,1245.87781215315158078738,1123.19377020270212597097,-761.766753502933966046839,-1650.58147298363996924309,-1033.15413182463066732453,-1729.07580148385000029521,164.209600537395033370558
0.0175000000000000016653345,-0.516423437664412454672913,9.34054436933020149069762,1.9864094018348568138066,-0.00673855256613856840042232,0.205845194445009732620022,0.00155689685785780703060344,0.0173591387191120473387773,-0.0130679732568938587050633,0.750742375571951559010131,0.660517407666752598416338,0.332299371705504165142031,0.231140845300976727205722,11.315610811090339282714,-0.130347110268978383373906,-0.0328595519858490767162174,0.808706651877378890347359,1.99011689160968918699268,0.376268478052749599793714,0.16278659833302377979436,1217.67215282898928307986,1198.21990155545563538908,1242.99308558562097459799,1119.31856193300609447761,-651.001550600085352016322,-1196.68647640064568804519,-1329.61266752317874306755,-1495.96968959285709388496,164.223840166408848517676
0.0200000000000000004163336,-0.581380203643773851851506,9.74512675209958523225851,1.92924844357508673553525,-0.00345903639684068831688935,0.229230677113073461059756,0.00824707765974149083210154,0.0171099657856699088886998,-0.0128374663420525812057571,0.750761573280704364030669,0.660511216407600132427547,0.333767145234500406392186,0.209520200526199518176185,11.3262256081536669682919,-0.131235118641291004237814,-0.0320857188345772537108047,0.8123361574798124706831,1.99026449969433349984627,0.375869030481073285177018,0.164771248942395892589374,1216.09679321847306709969,1195.62189514117517319391,1239.22974881553568593517,1115.71392175473783936468,-686.924019928210668695101,-952.589728253906741883839,-1785.58976839845036010956,-1482.51169846357765891298,164.237460232898513368127
0.0224999999999999991673327,-0.989136433005833648479665,10.1094812358109464867084,1.59093000037889575892791,-0.00311892176116039835861993,0.257192572476078462617721,0.0145522547817668081171494,0.0168183215914328478002293,-0.0125900228826651434249628,0.750769358160418454062324,0.660501381912735885393317,0.334034631534417869591636,0.187360869285592035460297,11.3360219702446354261838,-0.132163756218058731084497,-0.0313769753083060209952748,0.816023674307557067564289,1.99040631027303516198401,0.3754651089279546494204,0.166764404782775932378769,1214.23753272934823144169,1193.4569529141861039534,1234.06513674362872734491,1111.90600344068820959365,-697.689250786015577432408,-638.485651364180625932931,-1931.40805058128489690716,-1283.90579440306260039506,164.253089253402208669286
0.0250000000000000013877788,-1.50914014505370208674151,10.3382971921393416181445,1.12375736429542194549924,-0.00636083252514407521821527,0.280090997703220434544846,0.0182518095002548834393519,0.0164702028100645429808946,-0.0123261092771130512796285,0.750766629131267015928586,0.660488040035880130673718,0.332796576766225149501821,0.164493525527340173075785,11.3448119441176906718738,-0.133146722528799249518627,-0.0307602067442163673582911,0.819765778455798566071167,1.99054252042378743148276,0.37505778055877703192067,0.168769041433589145340122,1212.6083469645429886441,1192.42946688435426949582,1229.5727085626292591769,1109.29439278272252522584,-697.810849715096878753684,-265.423083058703866754513,-1750.78064757822153296729,-905.963744180871572098113,164.26551865707881461276
0.0275000000000000001387779,-2.08911176071539772536312,10.5053105950995284700866,0.52292403006284460253994,-0.0125712340559808281870158,0.30270719821817521077989,0.0202122536473576357163306,0.0160635737668252606691333,-0.0120471857367245045039583,0.750752578187031116563332,0.660472187962725554299936,0.329958549387487420911924,0.140940543069577595147734,11.3523942163023949802891,-0.134182881961068256604364,-0.0302515705698560496972327,0.82355815490853001570315,1.99067391804374183017501,0.374647621169237610150304,0.17078634910616080633261,1210.74847848077274647949,1192.12983749889258433541,1225.31123350573761854321,1107.37618471978385059629,-906.822965291440141299972,6.70749471664749208343892,-1745.61094092087023454951,-671.700396109281768985966,164.277332207007475517457
0.029999999999999998889777,-2.73039188992650050380462,10.6138644137577511372683,-0.280109942807090617211685,-0.0220913195208566892624447,0.330878484817586082655794,0.0204844611722187312785604,0.0156085351957746584078413,-0.0117592862656584352248901,0.750728485383680088638414,0.660455734402654592862802,0.325697305751012744501338,0.116857706968786528856086,11.3585624925154498043867,-0.135252226886630688706958,-0.029859138040158713506278,0.827396504328637538705493,1.99080140299635766076847,0.374235104768287918375336,0.172816994435549209363501,1208.07423213808579021133,1192.46300435793750693847,1220.84465385802491255163,1105.93589080217611808621,-1077.93890404655007841939,211.469649136779452192059,-1501.30293202673760788457,-383.739367197722401670035,164.290798434404280214949
0.032500000000000001110223,-3.15757829812078938402919,10.584961482326027848444,-0.965130878073325315646969,-0.0307363802844099927302768,0.355810129531939745017866,0.0189202065449107642569615,0.0151183402974679435837313,-0.0114640548358306022108666,0.750692891199528533618945,0.660442487427860935866875,0.320177528156986301866027,0.0925518051397620777898112,11.3631217085122919741025,-0.136336232111483546258768,-0.0295820678217535784626513,0.831273751772834468276585,1.9909250480320994647343,0.373820048020323814075283,0.17486108752233853191882,1205.35878396053999495052,1193.18718574457648173848,1217.80471884560392936692,1105.45748788379523830372,-1209.7619304587612987234,350.002612328398470253887,-1076.11430554184062202694,-45.5718542581052616924353,164.301430284279632587641
0.0350000000000000033306691,-3.43263630140323350303788,10.3639172337545559798855,-1.60611291353377860779972,-0.0395542263537594293576483,0.381665437907273807915942,0.0153945715944619303250374,0.0146002953792586653847252,-0.0111532663293297841511365,0.750645042768305459368605,0.660433722003526901822568,0.313319828909562836383174,0.0684334036543260693097324,11.3659024712313367899696,-0.137435788766571226338087,-0.029411384125025891167482,0.835177612746949127320306,1.9910443751606987650149,0.373402267698258516492871,0.176920279622389292617513,1202.02542248579197803338,1194.21301741957950071082,1215.46408233031570489402,1105.70803153088559156458,-1445.55221514697291240736,437.582145019314566525281,-844.705746560839997982839,218.173217385810971791216,164.311452437228552980741
0.0374999999999999986122212,-3.56794955683348113950615,9.93504219148783107584677,-2.16876604208100554060934,-0.0487767806223797506515183,0.407676913450481404055381,0.0102933553758805303862678,0.0140646408782973651729886,-0.0108198073504188752025357,0.750584387323413371184699,0.660430460358876092463731,0.305119334951457488180893,0.0449580414956224846956268,11.3667588498629932303174,-0.13854833574998776102305,-0.0293338955461324088491715,0.839094863393757939284967,1.99115939165391786502823,0.372982068536401367708777,0.178995592953184984308379,1198.13102288480513379909,1195.37509646967305343424,1213.58119011279973165074,1106.54835397072429259424,-1691.82636491073117213091,473.985936894132692032144,-689.511088952122349837737,477.412200477238229723298,164.320971630672630681147
0.0400000000000000008326673,-3.5323792119444292758601,9.21714307160318568890034,-2.59439992003567132528019,-0.0582501931663478994538607,0.432941019160183515612772,0.00373146902982912599330834,0.0135193846986120906616957,-0.0104583916693409828546635,0.750514180985823675662516,0.660433953603006607124826,0.295571305483913970846288,0.0225294704001578957597296,11.3655749534893324437235,-0.139673845158681919631505,-0.029337593984389981338623,0.843011031546339939524159,1.99127072441183128326259,0.372560429147355653967111,0.181087461360863649639796,1193.56629066123832672019,1196.58294710405016303412,1212.01652688555509485013,1108.09509253327178157633,-2140.21192433387841447257,518.733715269353979238076,-680.816438818646361141873,843.007325557891022071999,164.329888225642463339682
0.0425000000000000030531133,-3.30740275436449238100067,8.01440598678641968888314,-2.90641564907577132359506,-0.0689329544949937589315425,0.460703372791672949304598,-0.00508319058618866490006916,0.0129704935121598471242654,-0.010072080104674321909819,0.750439663129082390469193,0.660445499769425681257928,0.28477630142636922716548,0.00138400728545013534942498,11.3622642851720758727652,-0.140807245983406909006774,-0.0294195794669509236296534,0.846912328860401242280886,1.99137870236333447415689,0.372139600796349945266428,0.183195965516064374067895,1187.42996326313573263178,1197.96876504601982560416,1210.17710791870649700286,1110.76339059851375168364,-2325.93077933270387802622,486.889740057495373548591,-710.878555656518415162282,1108.2726351722162689839,164.33989738937222568893
0.0449999999999999983346655,-2.99115606801548494786402,6.75817468241453855881673,-2.98247671185049512132537,-0.0769590171470873468662077,0.480586130964608504445579,-0.0125120041790103900258835,0.0124218871344581247018191,-0.00966823809259122896042626,0.750368316228386622590563,0.66046537641122970985208,0.272882803624123926322653,-0.0183484119583725915902939,11.3567702243500985304081,-0.141942712492615419339614,-0.0295804454748292110222163,0.850786078831511138886867,1.99148559844160777387856,0.371721635242209524907508,0.185319728084430673797911,1181.93663676457481415127,1199.01739580433763876499,1208.46213410727250447962,1113.63645570913286064751,-2218.43678900272698228946,392.010544436425504954968,-760.407275081024977225752,1264.42208519956761847425,164.347667634627697452743
0.0475000000000000005551115,-2.57873133963314016270374,5.31375810421980254716345,-2.85533516708925372284966,-0.0839453182906028244625318,0.496104134658781781297421,-0.0194875246613434027764811,0.0118872654126587484757493,-0.00925523244600163184914177,0.750306071145163344660034,0.660493141188861931922816,0.260242445808962941100617,-0.036417564669672740362838,11.3490610005985583796928,-0.143061540128813058370127,-0.0298074893744892446822981,0.85462409864323762853644,1.99159435487511604634392,0.371307425796827683672774,0.187455855231757700929407,1176.33777931812210226781,1199.92881776820195227629,1206.37507154330137382203,1117.08550102451158636541,-2407.85189875054811636801,369.59833769969884542661,-1023.68911929238402080955,1605.68080042639712701202,164.354851987799321477723
0.0500000000000000027755576,-2.02506056710201010062633,3.48603609606108122420665,-2.45793441129720946491943,-0.0906533475794323861940427,0.508801042851436791103481,-0.0275775008124358698979872,0.0113751686965798144007822,-0.00884685866311685220608751,0.750261596947710218685756,0.660526586533691673075452,0.247222202279577141226241,-0.0527608943322769377570758,11.3391333444404942554229,-0.144145858917346603167431,-0.0300960999087790011252697,0.858420129277795873612433,1.99170922560237051435195,0.370897562326594543158365,0.189601223335128382663228,1169.89737727082206220075,1200.86538749283613469743,1203.3436885108105798281,1121.66485971126485310378,-2256.19576122771923110122,318.68207744164482164706,-1197.3220954119376528979,1705.35495090716813137988,164.362804175908934212202
0.0524999999999999980571097,-1.55632024189612860887166,1.98367015652768663436234,-1.91799609320123809474978,-0.0945459874175178516253482,0.514177670635607264593148,-0.0344006726060112275056291,0.0108787468042614438035187,-0.00846132586622481801252871,0.75024011807614965352542,0.660563026892645566157114,0.234017022180468214909155,-0.0676447074338602238885443,11.3270115780478892730798,-0.145192112996133687596867,-0.0304625769414416727731698,0.862167145905364251667891,1.99183256281677545374009,0.370491639129005234654102,0.191754981168877569608355,1165.05680051198351065977,1201.52222815541017553187,1200.38846106624168896815,1125.61227577904742247483,-1766.51941241989425179781,235.584388784582301923365,-1250.71468951819110770884,1539.86803000707436694938,164.36887983598262508167
0.0550000000000000002775558,-1.1267228909745483633742,0.61098234391260808351376,-1.17160860028503610585915,-0.0967499220002470405876949,0.514777931865543547651498,-0.0412537112193478300303795,0.0103943372564980415773128,-0.00811201946282096714169185,0.750242402673330310847177,0.660599776704291485884823,0.220828583470721040438178,-0.0812328770743479255944663,11.3127392924061656032109,-0.146197253005399235847861,-0.0309128385154596244110969,0.865860522557656553388483,1.9919640886417628866667,0.370088290260558117061862,0.193916777747071777948662,1161.06478020872259548923,1202.04330943675904563861,1197.09011506321962770016,1129.36419986130022152793,-1424.94232696690096418024,179.722661225377862592723,-1349.54493866502957644116,1419.11584706035546332714,164.374390884652257227572
0.0575000000000000024980018,-0.756274220169292576976261,-0.595449519909591162836193,-0.290245140397944134669217,-0.0978129404409947139642512,0.512490782352001295052446,-0.0469366566345129423987181,0.0099172299999398597081246,-0.00780298372551465908159019,0.750263108507383758016829,0.66063363043084666337279,0.207725986843724702568537,-0.093577926463530886058706,11.2963788588513942556801,-0.147169091767703319462157,-0.0314425947687612811209945,0.86949601919368491032003,1.99210288410975144834936,0.369685654794355056385058,0.196087353528184293871561,1157.93208887714899901766,1202.42084146153706569748,1193.6407363729165354016,1132.70785501434920661268,-1031.76613177188346526236,101.619062615054701836925,-1374.77429313494280904706,1191.42454800057817010384,164.379439081046569981481
0.059999999999999997779554,-0.473006473401813287704698,-1.56610777468922535149431,0.657375802306004675124029,-0.0979101507654201730357357,0.508168538078578424510567,-0.0480377185207966420077419,0.00943426495755044294821978,-0.00753274594208642404163934,0.750300823921072890243522,0.660660377177798019410204,0.194574221113182233011685,-0.104800378763589718822402,11.2780077936735914079236,-0.148132339886519248661756,-0.03204951603552398664565,0.873068128755596140067041,1.99224721279712979615795,0.369283025935611908252554,0.198266543201674722007866,1155.90594954986318043666,1202.55140474983431886358,1190.21624359754491706553,1135.32132260130310896784,-650.546273033387819850759,-26.242051819053827443895,-1444.24297297900989178743,946.797942256398982863175,164.383935312404560136201
0.0625,-0.229453434776770909264698,-2.45090630735247749782957,1.69634392258465171998694,-0.0976645463421811355075874,0.501815939486230822019763,-0.0418443489099655091534302,0.00894523585018011657687964,-0.00729636790346597976369969,0.750353436780062277300374,0.66067968617053396407357,0.181427156175405168703207,-0.114804520578084295889809,11.2577098204108452250694,-0.149097976730843545523086,-0.0327141799936897445522099,0.876575840840045139579217,1.99239563912036854453902,0.36888039964014168736739,0.200452602157808773553072,1154.67935751198206162371,1202.28963120244179663132,1186.41952150802148935327,1137.44184472563119925326,-280.834749931545729850768,-187.773810876342224673863,-1302.91037875131110013172,605.923090916348314749484,164.388700232927533306793
0.065000000000000002220446,-0.0869502887037437027784037,-2.96387234892350948101125,2.35829490986313983214018,-0.0976828757793978680323832,0.495663389494759243358857,-0.0323532344146942665852329,0.00844753963575399849372793,-0.00708143697352833518393611,0.750413262618110699087026,0.660691856523179410487501,0.168206824120815279233199,-0.123440526491417484900026,11.2355770809287829337109,-0.150087800223795142517957,-0.0334130556393030589412696,0.880017810663817678928922,1.99254605684496421957874,0.368476912398842337825755,0.20264314009587178211369,1154.50177580020545065054,1201.61253569545260688756,1183.70169170378835588053,1138.35093805588485338376,50.9275517104469628293373,-389.388029781957470731868,-964.691462823929214209784,204.982536237412034552108,164.392150742293921439341
0.0675000000000000044408921,0.0280338092718558709592891,-3.25588440985124760729263,2.72281920933706711451805,-0.0982211949271976636488546,0.488414660814017242973506,-0.0218648886796093434858879,0.00793953947452565554632198,-0.00687384345011364614880245,0.750475140757103531541361,0.660695561719338853023942,0.154841385894150723734342,-0.13055168062466068756855,11.211705088624871251568,-0.151124081650069908011602,-0.0341201546229129085152643,0.883393542363841044462447,1.99269583408176287342428,0.368073099354378041603297,0.204836100238011825647177,1154.93399527053429665102,1200.34269105353200757236,1181.59606419390183873475,1138.46675740681826027867,265.904944959083650246612,-707.490637666159500440699,-777.807434972145756546524,-96.7411285855631888352946,164.395067057355703354915
0.0700000000000000066613381,0.173633940889582394362378,-3.3595462569705549782384,2.81223109708604557255285,-0.0993274088094681095739702,0.478359488077350070156513,-0.0103540725902076854308964,0.00741198032646209897800205,-0.00666184549933020696277364,0.750535482687684107894199,0.660690664330736865395011,0.141177212324463896564453,-0.136166991697675460182282,11.186190566375888266748,-0.152236105359256190805439,-0.0348232255794684239513792,0.886700815795694818888251,1.99284313454435091372829,0.367670566158524225741644,0.207032274597185178555137,1155.83130052500087003864,1198.07508250712180597475,1179.8126545289276236872,1137.86723241295703701326,352.018043062617607574794,-946.105140567762646242045,-545.089734746307954083022,-318.928955825913988064713,164.397955307029604909985
0.0724999999999999950039964,0.3183562043341228720017,-3.24807575207557874819031,2.64528375613548183409307,-0.100249445252514737814131,0.469250680926095398159958,-0.00273639014175628726699419,0.00686078487132036479723141,-0.00643199957518208759871259,0.750591749225076432239234,0.660677674217229893294245,0.127129988140678135133399,-0.140238828738173754162588,11.1591305834043375000419,-0.153447783605049792310382,-0.0355031476510572624460949,0.889937629678653863152249,1.99298698587482903121781,0.367270886537958196615961,0.209233748425036863993753,1156.69408548584738127829,1195.61216535069320343609,1178.87061552017030408024,1136.87211262768869346473,337.61351046960106714323,-1067.55366798738782563305,-301.595614032021899220126,-482.820122086878654954489,164.39985726442762370425
0.0749999999999999972244424,0.485263181887177208473361,-2.95404475316832026976499,2.31904746982783649400517,-0.100542775180702606552252,0.460710366724155107043259,0.00238195666801319701905149,0.00628818830267796266553226,-0.00618104591347655874661315,0.750639013221047424195831,0.660660652647970914053133,0.112873654270876200289564,-0.142821901992585487128906,11.1306202498453608029649,-0.154761231900739981703907,-0.0361492773477965489981045,0.893103669892414187003737,1.99312880383904622583202,0.366874739898068291665822,0.211443235066094692431449,1157.51936807734887224797,1192.7373141671848770784,1178.30467645876751703327,1135.45313180252264828596,341.580377237869186046737,-1290.21544388356119270611,-218.688989553902302986899,-715.096203436996120217373,164.401241920061096379868
0.0774999999999999994448885,0.679648789088595162155571,-2.44096216155334699848822,1.85225988208177194671578,-0.0995402506570375877892332,0.452470887230947638180112,0.00619469160462793148880234,0.00570047684285586268859713,-0.00590872484891424333552923,0.750673548396103562652115,0.660643257185345667004128,0.098687372938638134867162,-0.143981325551824218544894,11.1007571682471173346585,-0.156167701686317828002615,-0.0367504199772594949968685,0.896198411452302834412365,1.99327054960928107263385,0.366480559265412730862721,0.213663739994560564205983,1158.40198737203672862961,1189.16108813127539178822,1177.77717057240079157054,1133.29663161050370945304,309.210180707168262870255,-1271.81362455980774939235,-208.186755484666520032988,-865.163450715726071393874,164.402316345584097234678
0.0800000000000000016653345,0.800779857496414337880708,-1.92778167316889414983905,1.46153743461952956295136,-0.0975343801712662550329469,0.447449356486125937593101,0.00793633943620549071884529,0.00510829329385662118945266,-0.00561919840814602104817066,0.750694767940455420784929,0.660628716451484132576866,0.0849732601859799485666258,-0.143806749764821661941028,11.0696433796390358850203,-0.157644893530341695386809,-0.0372957276677485377591736,0.899221652306732566195535,1.99341519751337026278293,0.366087112640566203491943,0.215896471807144163523873,1159.0654189808847149834,1186.37824604438583264709,1177.26374268134418343834,1131.12731454894401394995,261.833716605678773703403,-1003.28376144743651821045,-256.15579756881720641104,-939.916938680425232632842,164.402732439605898662194
0.0825000000000000038857806,0.834140069232791603326405,-1.38402836649575422534042,1.10745516711339164750427,-0.0946537317590057936111947,0.444121591005835369969645,0.00909228334575504226755527,0.00451637470075045080464271,-0.0053177001052592638360994,0.750703518181713547186007,0.660619394012363914114871,0.072029916928587095492631,-0.142500936261920257974722,11.0373880340390435605968,-0.159174272145355122365373,-0.037782786898889468563123,0.902170627221279275431698,1.99356497825756284747456,0.365692325215761449008767,0.218140763958077243955813,1159.71115595506512363499,1184.1446693240382046497,1176.49639158455670440162,1128.59704691710157931084,262.036328864678353056661,-763.438954649790730400127,-361.009451021208974452747,-1060.80209285614637337858,164.4026655326440504723
0.0850000000000000061062266,0.767615529669799623313509,-0.853549437958801782144747,0.786147168278548580389042,-0.0914334164275149990919189,0.442082657701304448938373,0.0103227163529991915191797,0.00392685840923468355151416,-0.00501339516608232012295776,0.750703047193231221001497,0.66061450214621642018642,0.0601439177842000155527202,-0.14037159612312186118821,11.0041079795511826944221,-0.160733419425113710499176,-0.038217389020634200125226,0.905041927374112376014637,1.99372040667754624188035,0.365293811689980041368386,0.220395129384305027420154,1160.37560062520810788556,1182.56105127113687558449,1175.45869542623813686077,1125.82330408466327753558,268.085609915533268576837,-453.627943887749609075399,-474.146348176054345913144,-1143.56155451673566858517,164.402210739325568056302
0.0875000000000000083266727,0.564682457865032350063927,-0.376254919324665870750124,0.485066989915487911666503,-0.088294146206287602018925,0.441342893421999671321743,0.011941903433369632087091,0.0033412417925544131598603,-0.00471486986928150442199836,0.750697924145303896459325,0.660611265667769509413176,0.0495520716032177635512745,-0.137721219092729885158377,10.9699299382249115808463,-0.162298978946021632552288,-0.0386063256732631365775177,0.907831824550597188405732,1.99387984598590484175418,0.364889463105278033516754,0.222657365662630279956602,1161.05158400464279111475,1181.8765296045994546148,1174.12565984367643068254,1122.87923914451789642044,279.747323963738892871334,-96.8769250734114422130006,-623.711751349993619442102,-1290.22007576691316899087,164.401305751192865045596
0.0899999999999999966693309,0.171022151964360824560885,0.100159733980883874915335,0.11486355464901754075413,-0.0853406064455735635654321,0.441434472939071953501156,0.0141777616464351281788669,0.00276070886368970369595388,-0.00443168772998460760992323,0.75069220532837088732947,0.660607349357743789397546,0.0404664415290099319100214,-0.134862202850839912882108,10.9349907196936300124435,-0.163844792812121359260047,-0.0389606751650368732242669,0.910536824347062290208044,1.9940411047999804239339,0.364478232571161686603745,0.224926305265746168116081,1161.77433724502679979196,1182.07666664576981929713,1172.34013666948817444791,1119.37220370582872419618,224.057661357347086550362,219.038446629838716717131,-653.342718550858421622252,-1242.04973962460144321085,164.399724803375761439383
0.092499999999999998889777,-0.254618354617393682914894,0.398865213326615120070784,-0.215483469990437770391623,-0.0839849958664052875789707,0.442182893216387762347352,0.0158403215080523233904142,0.0021932068230993829842379,-0.00416777812441720789393695,0.750686650512651931776986,0.660602814582643249607941,0.033093130190111411104148,-0.131901124824171711580334,10.8994388513189264244829,-0.165340765358168356735646,-0.0392796527765431335854629,0.913154747052786985861417,1.99420247927564009415846,0.364059347656582765750954,0.227201975187920152121634,1162.17187231142952441587,1182.97172183774864606676,1170.8589462509221448272,1116.66899044639490057307,77.6583032974939868608999,459.343674299043016162614,-554.881199973942329961574,-984.358705047133298648987,164.398014997778744827883
0.095000000000000001110223,-0.724039019442928921677094,0.57866963282397132495305,-0.561360836357237436011758,-0.0843737196477501172342528,0.443656542720900992637922,0.0162937863084231561450199,0.00164677564261945532340936,-0.0039136096650743803018746,0.750676184140469215932967,0.660598264469270834986503,0.0274101698523502197712975,-0.128705063663727969913708,10.863434175168798390132,-0.166772397623620588502646,-0.0395478258176551189517767,0.915681441303373033768764,1.99436240743436288269663,0.363633063932129907414037,0.229485708384304210039062,1162.16262876151427008153,1184.37338501726503636746,1169.56573066961846052436,1114.45041018059305315546,-142.208503491610713354021,660.127204446006885518727,-502.895746525291087891674,-807.790729991437956414302,164.395921244002636285586
0.0975000000000000033306691,-1.24812071110082101199623,0.642175532068719356892927,-0.952918267416897002419773,-0.0877788748097641097212218,0.445971857111065961287721,0.0144290014612461735266091,0.00112065083118692673976036,-0.0036616895964767274748719,0.750655966148077835597974,0.660593847208469142628928,0.0232477380089167531829197,-0.125279853764478421584982,10.8271430464094571277656,-0.168135855768953484945527,-0.0397651429866357555842349,0.918110550086357113386271,1.9945182266738055165689,0.363200255159646823166497,0.231779516736446283831086,1161.46082979397147028067,1186.27235785997868333652,1168.344467518295687114,1112.63003679643770738039,-396.623515064947810060403,676.082511858339216814784,-394.576447911094533083087,-494.528598079750281613087,164.392988874338698224165
0.100000000000000005551115,-1.58427358728836509271787,0.562430330515019116788267,-1.21757180794392083633682,-0.0928518213283353460729685,0.447857342013063153274288,0.0110437482916093121509959,0.000611235041676160798136686,-0.0034045597433930542899394,0.750625959898758687849352,0.660589763273473962179594,0.020360762656006833187794,-0.121646341981715616631377,10.7907376373716239470468,-0.169433353265875219495484,-0.0399356346480281357291808,0.920435253755953031173931,1.99466831044417958196391,0.362762266083824724827167,0.234083574956348738904666,1160.17951118618952932593,1187.75379757655673529371,1167.59284843006298615364,1111.97776719019429947366,-669.445606973476401435619,511.067011647127856122097,-267.43789899442140267638,-56.9244662744494647199645,164.390210703730900831943
0.102500000000000007771561,-1.75365154654560240210515,0.345258179765227657398441,-1.37281676985348166653012,-0.0988884469349606554100518,0.449161520583507944959223,0.00682053338515773831945976,0.000116472540257229610930964,-0.00314404295708021553137912,0.750588819036300702869369,0.660587033706113380127078,0.0186367970446522854266469,-0.117925268922748988087434,10.7543932936534787359051,-0.170656354140927224438684,-0.0400747863565975928623608,0.922651643260140152946747,1.99481209307538276398475,0.362320241874140580584651,0.236396813587360143937843,1158.11360175910408543132,1188.82769291821432489087,1167.00727802332357896375,1112.3454144650654598081,-1079.40209795715622931311,327.062046977926627278066,-258.382071422011506456329,406.785310938949692172173,164.387101068231800127251
0.104999999999999996114219,-1.73105611935267322820664,-0.0672349528598822632208254,-1.40003388826927421817459,-0.105768814558523702173964,0.449752833103479354726062,0.00159285092497036444639247,-0.00036106234650616115958513,-0.00288630978751639073742741,0.750553670678267725868693,0.660586581386455873321495,0.0180786886934089785494706,-0.114211621594931977963228,10.718286967362775641277,-0.171787851571487709678721,-0.0401969894304445643506973,0.924759457603092860367155,1.99495072860319844210153,0.361876268805305323361665,0.238718030120630891888212,1154.78250069640375841118,1189.38910781144636530371,1166.30093807295293117932,1114.01169374488904395548,-1338.52793002716020964726,64.3414827410198455481805,-287.255046025393880881893,809.283154683272755391954,164.383001380615837661026
0.107499999999999998334665,-1.52499854869228279596882,-0.530054390406814790459578,-1.2813673408447521229192,-0.110517621368909732537666,0.449317162588070528883577,-0.0025514158343657128251436,-0.000824733808004127493147817,-0.00263746762688180785838554,0.750532281314578164632678,0.660587958251311557766883,0.0185775928337462321870976,-0.11065495870298583391822,10.682593493266477224779,-0.172822436758893915875746,-0.0403219956335843301986621,0.926758474317591618429901,1.99508478115325527113555,0.361433867522822027673612,0.241044270691836398645691,1151.42096210896829688863,1189.14940033191942347912,1165.57100279319661240152,1116.39183023848181619542,-1419.44792015292341602617,-245.120101776273941140971,-343.502669554436295129562,1135.01356412220866332063,164.379287092884453613806
0.110000000000000000555112,-1.14546025340484880494785,-1.10481512981498997127972,-1.02179788551859940248789,-0.113823679091787394179747,0.447831250507351064094053,-0.00618612950219760496239907,-0.00128005941895552462737873,-0.0023999460880219365514765,0.750527786811833519386994,0.660590329730296521582034,0.0199318224152629508427736,-0.107350833305686954588509,10.6474827715081534762476,-0.17376480111269260175888,-0.0404674593052476716525945,0.928649115410397074654725,1.99521358323047737215461,0.360994804591731111020891,0.243373185007882630870313,1147.68526109563913450984,1188.16350730256499446114,1164.58342472518074828258,1119.68676156550009181956,-1512.62623070101517441799,-504.375523910084211820504,-443.319543011375174046407,1439.07709297777591928025,164.375271744974270404782
0.112500000000000002775558,-0.644152283784715007364241,-1.75952536954377447564468,-0.661171477050379929885082,-0.116054636200930302858403,0.445441239353024709402007,-0.00916186763938862946954345,-0.0017328998643911012154939,-0.00217513262958488051701522,0.750534074070723034033392,0.660592627525931841425688,0.0219202130907877809629092,-0.104362127825494921395943,10.6131160790204681632076,-0.174623593815837446774353,-0.0406499090078807009951412,0.930433209552520179563828,1.99533792205373439188065,0.360557791281196082788796,0.245705566403690151000561,1143.85783095546321419533,1186.62752271236900014628,1163.35440507813973454176,1123.58721570337070261303,-1497.30895200186614601989,-715.139509780419075468672,-544.828497311891169374576,1650.79360267950369234313,164.37101133705908750926
0.115000000000000004996004,-0.0240857992559851130653925,-2.48403753664687343416517,-0.211613998244676526638841,-0.117028471883123069696708,0.441647832726097200328752,-0.0110369410404084732080232,-0.0021932197259070520742319,-0.00196095691217941601319774,0.750545813501607539386384,0.660593751258186756558644,0.0242143446314158766741187,-0.101738302475891745357828,10.5796426726396219919479,-0.175419713929311826827728,-0.0408830669971660676242919,0.932112094568788185355857,1.99546016797680114684965,0.360122158745927511969143,0.248042649408651172393547,1140.19871633562979695853,1184.58780975366289567319,1161.85928223862129016197,1127.94072957889761710248,-1506.56199403992877705605,-960.670318329265683132689,-704.76421512257661561307,1926.88716762577132612932,164.366460810406408654671
0.11750000000000000721645,0.818494718046976599268305,-3.37734252348046926073266,0.370853659901771548490501,-0.116431467587996440027354,0.434456751079083824951255,-0.011502120986252035994557,-0.00266385391916364221501223,-0.00175343999125399802041514,0.750558208468891874254325,0.660595630854055815284198,0.026585539268447318239641,-0.0993893507175121204699764,10.5471973635261111468253,-0.176168205295289898026923,-0.0411665761533885968259661,0.933690302741339461789494,1.99558223177972471340524,0.359688155691328614871338,0.250386023616901542965252,1136.32502098526356348884,1181.82417112072266718314,1159.83058400252684805309,1133.22165154149956833862,-1298.16889814206001574348,-1024.19158541324782163429,-771.200446147123898299469,1866.83241620048988806957,164.360672760270006165229
0.119999999999999995559108,1.56993562465757396928723,-4.08385815480456138004683,0.838253091894750723689356,-0.114401021363752894433041,0.425588997253024015066103,-0.0100478693264784198907469,-0.00312756808152900170685862,-0.00155387998487344449784209,0.75057131174986602140109,0.660598096517562294316406,0.0292119932571127394194122,-0.097028028662944243443178,10.5158977033909586396021,-0.176851386049936443178865,-0.041477526567115140243569,0.935181084685190455729753,1.99570615015728303198728,0.35925765349787058822173,0.252733463679760683717745,1133.70787184491950938536,1179.46685182659666679683,1158.00328000788567806012,1137.27489165990004948981,-892.673058043421292495623,-907.104612191371302287735,-747.435755270090794510907,1452.65133892098947399063,164.355583173934917340375
0.122499999999999997779554,2.32387033570829348860798,-4.67430359273183793078488,1.21867980480041926405477,-0.110506412915505114469283,0.41383479353197577532697,-0.00650275242787570068037084,-0.00356314052712418134066796,-0.00135981771299131456998133,0.750589286095172503188167,0.660599525995124392530045,0.0322983762220325765213147,-0.0942596376728469798056409,10.4858415127766164687273,-0.177451965683102202975263,-0.0417780455923202898027569,0.936599890970124304701017,1.99583519001975928652826,0.358833409547535120420747,0.255081489559285279344891,1131.86165569504646555288,1177.28864805976581919822,1156.09340522617640090175,1140.48490823610450206615,-618.974144979073912509193,-871.040914030208227814001,-847.72437536625977827498,1119.55614945627439738018,164.350226167785109510078
0.125,3.15883788151430744406412,-5.17337015095670071929135,1.50740199218088721799802,-0.103029746612317701925932,0.397633191323563450758627,-0.000249083314664386764464288,-0.00395615880367507048720466,-0.00116615141334188180885501,0.750617174946463960871768,0.660598317985732430557277,0.0359241937617470613597348,-0.0907554719254860808863583,10.4571050464790538114812,-0.177966044480517338044478,-0.0420319598507438579870765,0.937960793890698418806551,1.99597125343817127784973,0.358416683469672647799342,0.257428533902301026614623,1130.61300112002413698065,1175.11164725644562167872,1153.76465813105437518971,1142.87267240718142602418,-293.290207257132067297789,-700.127189399972280625661,-850.572831206044725149695,581.343687623393066132849,164.343500191335522231384
0.127500000000000002220446,3.73547028990940832571255,-5.38078052818129037859762,1.58022135756065718048546,-0.0942284210839581942709131,0.383292590172068570186781,0.00577628256342026247249777,-0.00429781343264720987890071,-0.000964665034488437029766561,0.750654723454729277953845,0.660593668761626284791078,0.0400588986803998986507835,-0.0862317026631953531534691,10.4297430525403971302012,-0.178400936225329376227933,-0.0422053812797419103386432,0.939276100447118622582821,1.99611488339525156021637,0.35800765449811533525093,0.25977382521093095313347,1130.3952046587608037953,1173.78801211276595495292,1151.84054107014617329696,1143.39162667422147023899,81.3542479928855044590819,-410.445409887415394223353,-751.877247304900492963498,-120.611024325989887984178,164.337656554882755699509
0.130000000000000004440892,4.11831968417136451421356,-5.3607767646166788466644,1.48142516095767495798441,-0.0832031152706725063428195,0.368936922088173635536634,0.0113214798965523295165569,-0.00458607959534800598694337,-0.000749508093712949368184195,0.750699148753322775817765,0.660587504703557204521758,0.0446195813871179264298306,-0.0805525832167872934963526,10.4037893451962570878777,-0.178769229188883743697502,-0.0422770070729829305911096,0.940556078072299794889943,1.99626419044011971237751,0.357604365630218079541436,0.262117537608380857250268,1131.01977235998856485821,1173.0594202070085430023,1150.00527189452986931428,1142.26961728555147601583,458.650701267424267371098,-182.87333791099609925368,-767.250679684774922861834,-846.402987868622517453332,164.331577355772708415316
0.132500000000000006661338,4.29610644571867439367452,-5.09601744985494065076637,1.21178738512224493106828,-0.0686608684073249930790439,0.352560419174371975081783,0.0161229651539762791623289,-0.00482731757053678385560591,-0.000522180919942779957730605,0.750748535048164633565193,0.660580769330638917224974,0.0495128628993015545978196,-0.0738294909593097264943751,10.379258821111015720362,-0.179084496889579836143014,-0.04224659141433343562122,0.941808468061586467889867,1.99641787874174592154475,0.357204898471040976914992,0.264461186146001225871771,1132.68845816509792712168,1172.873645423210973604,1148.00428767172229527205,1139.15961173487835367268,749.941924787980724431691,33.8407487041876890998537,-686.087890655562091524189,-1381.84192469843651451811,164.324025234097405245848
0.135000000000000008881784,4.19323852047176526269823,-4.70985180251353074964982,0.914356043987926248028941,-0.0562989643466844727481835,0.340163898913717233085663,0.018292476335700472850343,-0.00503215593742907529861697,-0.000285426992984099921809443,0.750797305886958254994568,0.660573728450115194021919,0.0546118496475558393155048,-0.0662660960940554683018533,10.3561517204108266554385,-0.179362341873238878564578,-0.0421233160158016595175923,0.943038082415101563960036,1.99657482250057616290917,0.356807205307906882829627,0.266805459505157493982352,1134.76948198392847189098,1173.22862395052948158991,1146.57483244125205601449,1135.36040766205928775889,946.834257686486239435908,221.924704682259999799498,-510.133744536823996895691,-1679.3456410696746843314,164.317529110824608551411
0.13750000000000001110223,3.84590925358652668819559,-4.20867272887233490052949,0.607625059532087896663199,-0.0448681221049854056515116,0.329477896574373096960642,0.0188014234502383095759548,-0.00520881994466101776175559,-4.573602508296545305971e-05,0.750840568012748565962511,0.660565702780122832038501,0.0598901135490764943702935,-0.0581034872622624709581629,10.3344575191077847620136,-0.179607805873164078080961,-0.0419206030971609189261784,0.944248935885114271115981,1.9967336897470044920766,0.356410696429576123733796,0.269151371514383730421116,1137.4226294535303622979,1173.98326894662227459776,1145.45361894903817301383,1130.76288352952997229295,1125.79787282174856954953,346.182178735807326575014,-394.403896121638922522834,-1892.69101412219083613309,164.3108366693024606775
0.140000000000000013322676,3.33370027932994261732347,-3.65964664174441622890299,0.332675443834950457233646,-0.0354040505053773643662218,0.320326436462558372664233,0.0183283021292607074814729,-0.00537347347715112864247056,0.000189542547246260848544525,0.750878158593987099500566,0.660555720153433001406995,0.0652169800349597234001564,-0.0497134346866587098490164,10.3141601430998992583454,-0.179833687879917547558506,-0.0416645956284643140254964,0.945440097007028024123088,1.99689380680921169108899,0.356012961413801398702361,0.271501022939418079626961,1140.3984713480372192862,1174.95953484420851964387,1144.60281296064385969657,1125.89695259144832562015,1222.82709481487358971208,421.338373751359142715955,-281.314806548516344264499,-1916.97477405186714349838,164.303992158794926581322
0.142500000000000015543122,2.6884674983509224688305,-3.10886653451087591193414,0.121791255860311378733662,-0.0289220665836909598955806,0.313056038559415550359688,0.0173149477265507750756157,-0.0055423721173396981246051,0.000413923183688936851230833,0.750909487061243940964061,0.660543414335573508822108,0.0704514091173191470129922,-0.0414599466812717309949221,10.2952426876757243690008,-0.180051466172897661754959,-0.0413837053229968443446296,0.946607886010815580135613,1.99705466592971636607956,0.355613066984199921449772,0.273857194727538055811777,1143.5367649276047359308,1176.08996081537907230086,1144.04704491629559015564,1121.17800965927062861738,1354.6899955265025710105,514.024190058583030804584,-196.997059917021942965221,-1936.31366620062181027606,164.29697755471826781104
0.144999999999999990007993,1.84520387815066211345538,-2.50752476311895167171429,-0.0545406518370079446134113,-0.0239741520124793563994992,0.306195507014858370187227,0.0165080050208356379770613,-0.00573197492445778802178102,0.000627839113685587897964457,0.750929967614358040428613,0.660532491318963077553406,0.0753531677370211094846297,-0.033602507276101756250597,10.2776918800631644757004,-0.180279053837094582757317,-0.0411020108417735827166517,0.94774507705064658935612,1.99721393808018454762987,0.355209893530374964942808,0.276221627720256102112018,1147.17192132566970030894,1177.52965579450142286078,1143.61782766105875452922,1116.2153842604452620435,1265.32179074684472652734,535.259920651335733055021,-139.989710931150256101319,-1642.84958029534982415498,164.288380965867844452077
0.147499999999999992228439,1.13308582928218104513007,-2.08899201818589697055017,-0.151656865665454748670626,-0.0215879974382074679706278,0.301576560278269789616701,0.0166476249177302214332652,-0.00595728126454640304759947,0.000831479920309610188999816,0.750938147381502330013348,0.660527174374029080183846,0.0797032520941903799283068,-0.0263819716468427362121574,10.2615006709238265614204,-0.180530580068809731741908,-0.0408446409361824525063867,0.948843327405984870992484,1.99736931657033078835184,0.354802131256778841006394,0.278594277189672889782912,1149.86337388133893000486,1178.76626041863573846058,1143.34709636163984214363,1112.96376175779391815013,958.509543087529095828359,500.197142890646773594199,-119.478389765390502930131,-1070.19743263358486728976,164.281081074102559114181
0.149999999999999994448885,0.447008904247987837177192,-1.77986575890205389605114,-0.216875421302465204442811,-0.0206698915613724824857922,0.297680522306569605994753,0.0172344652173429396802007,-0.00622610711316216435678994,0.00102574596415007531467756,0.750934850371914097699744,0.660528139348373843908746,0.083376198855546673760486,-0.0199261618836926723830061,10.2466697066936660576175,-0.180810300832554893268878,-0.0406279386147723187150405,0.949895641455591799307001,1.99751793462874283058284,0.354388145601860105049496,0.280975010022712523571897,1151.96446904110734976712,1180.03064150895465900248,1143.02043571223180151719,1110.86439709727733315958,748.834849458852886527893,561.478860746546615700936,-183.346834306621360610734,-636.701221474776843933796,164.273656057446999056992
0.152499999999999996669331,-0.327331618975152283113061,-1.54647564262645209609559,-0.266433827773134124239363,-0.0209743651748169751547479,0.293475263088576743264468,0.0175712200575628592347233,-0.00654227151279146521695163,0.00121690928861234058319662,0.750920697318354091187587,0.660533513866069843523121,0.0862257428955949534188363,-0.0142193973929275255252414,10.2332086526639098877922,-0.181123630735791851797956,-0.040456740897059549622039,0.950895280281400578914486,1.9976566730755480616466,0.353967079884526913957643,0.283362911643483816881428,1153.6075481286331978481,1181.57365472236847381282,1142.43036219010673448793,1109.78025565042003108829,443.166597744447756213049,565.778723915718273929087,-256.672928471334444111562,-165.940156360420445480486,164.264620509541742876536
0.154999999999999998889777,-0.927152741561017013083301,-1.46707022417902144262314,-0.276310244833209261994256,-0.0222123588654243690754253,0.290284022085644577426677,0.0171317979163693977218141,-0.0069031612656793601284777,0.00140834037450071137068108,0.750893140186293828186592,0.660543633636421212429468,0.0882331600255285564138319,-0.00919470232904531087347877,10.2211352022219301716177,-0.18146382366696214849533,-0.0403337500275865457055602,0.951838736611522184816181,1.99778498851200869701472,0.353539670437001851688308,0.285757158347021977817803,1154.1803020298295905377,1182.85953512853325264587,1141.73707106987512815977,1110.03469631547523022164,69.0033121529722279774433,501.651862097332468692912,-307.977310309933898224699,309.76130871044887271637,164.25700010626533753566
0.157500000000000001110223,-1.4757575063343817411976,-1.50095867226882040412761,-0.235580715357071396320876,-0.0244904053435202051502984,0.28725914152408921209414,0.015803976828809688376376,-0.00729875197596624100682128,0.00160212369223481005710286,0.750851677236937131709738,0.660559162204342520396949,0.0895016946061008011881199,-0.00469698448259812245675349,10.2104737464599075735805,-0.181813824033754317666123,-0.0402527248645577970243004,0.952726407487137771923358,1.99790445019921802938256,0.353109451271996555021815,0.288157204835851221691456,1153.95256468939805927221,1184.08191403285513843002,1140.89047563855706357572,1111.32906219397227687296,-256.446110418664602548233,497.92098465554727226845,-371.723807654097640806867,753.114114369872595489142,164.249301312722138845857
0.160000000000000003330669,-2.06122969486015783502353,-1.65609767510467875695213,-0.112667168089581576362335,-0.0287324958899388555044752,0.283535110791454436629522,0.0137372400656217592829211,-0.00771867982941291507631432,0.0018010339652533254636152,0.750797522492650415415483,0.660579073805133476504636,0.090123446040418525582183,-0.000550281774415253832621886,10.2012545113906192284503,-0.182159598169714886939374,-0.0402026796498110572386508,0.953560447623808871142614,1.99801864624952885129971,0.352680086999766995159433,0.29056058335766266065292,1152.89807147773626638809,1185.34914005181099128095,1139.87845203160463825043,1113.80026688732459660969,-485.210996606519529450452,408.513986470051918331592,-335.217375798265209141391,1012.28784960753637278685,164.239989606812855527096
0.162500000000000005551115,-2.46885677425645377880414,-1.86084304079632611994555,0.0485334794168947314396689,-0.0337637690579335181251253,0.279924041783894628210305,0.0126380370062985723095261,-0.00815466229809949302853589,0.00200340435413644008671996,0.750736393121559708596635,0.660600989665441895581921,0.0902154040282943381345859,0.00332830235041754740610287,10.1935112393425981736073,-0.182487441123619642535658,-0.0401767824151189889558822,0.954345194757301062971067,1.9981318486138688328424,0.35225402324985866098217,0.292964761348318836198246,1151.52650970636545935122,1186.12448396520539972698,1139.21438875956573610893,1116.39050144200996328436,-605.897899910132196055201,225.535158744332676405975,-186.965284162579166604701,1089.59008407168676058063,164.232181071346957423884
0.165000000000000007771561,-2.76115892260260675783456,-2.11038121326337213545798,0.247972403275238784114975,-0.0403587945828949162807575,0.27519916212598677374146,0.0131047934462141021233483,-0.00858854001136511585601241,0.00220315926897489454752699,0.750676653469217414205161,0.660619619574204675060969,0.0901052945900137902679461,0.0070870264816250347350568,10.1872760972013303160111,-0.182766737512594562575785,-0.0401569784260623618976638,0.955091048168026479636694,1.99824774701227636519718,0.351832770403514294432767,0.295370015404965158278827,1149.86858197818560256565,1186.47681584553265565773,1138.94362561079174156475,1119.24821730768303496006,-674.835889648738316282106,56.4627058069617717706024,-19.3300488599106579101772,1146.35048718496273068013,164.224335798432974797834
0.167500000000000009992007,-2.93326016092259456158331,-2.3681735828983776492862,0.455714707773861860129472,-0.0479184667128067509622724,0.26951032297354204914086,0.0145917573680827330345755,-0.00900294022270998507695428,0.00239140057161588625786464,0.750623766406577574983316,0.660632150492198255697929,0.0901488351848898639140373,0.0108191408056318855157585,10.1825781875547178856323,-0.182966266250749437505263,-0.0401281985155353959626723,0.95581050782548493405244,1.99836957305684248531463,0.351418194001930694891911,0.297776779085458020990274,1148.15233025812176492764,1186.40679749424020883453,1139.11773851526618273056,1122.12225387793478148524,-659.635921899870822926459,-136.344420982186306900985,191.045311173729544407252,1108.45487134174527454888,164.216469985626844163562
0.170000000000000012212453,-2.93895578280698455131414,-2.60370237546368787917572,0.650720900531882917583459,-0.0561066062883200655786453,0.263032118558494731885844,0.0165047594579343648302228,-0.00938388436550751173226281,0.00256257039035070934701599,0.750580882961463302649463,0.660638193221544933741995,0.0906103477543772073410366,0.0146193027760409197113312,10.1794408169936332342331,-0.183065207173090993553188,-0.0400735360791179620609803,0.956515990800276272310043,1.99849885213531508476592,0.351011575339628456582375,0.300182780108451174871931,1146.57040236868624560884,1185.7950937406217235548,1139.89885216666039013944,1124.79049166439176588028,-622.931349163945355940086,-386.883870011115163833892,481.004402656571528495988,1081.06606363708033313742,164.208590895029146849993
0.172500000000000014432899,-2.74522371070616877375414,-2.82827505054037597886918,0.852737898440870334404451,-0.0660353044676702527482348,0.254633787932047550572889,0.0188371807393051503287662,-0.00972181067371611501437556,0.00271438327746965349027142,0.750551341700074425844491,0.660637557223842764031474,0.0916515188168899042064908,0.0185657257555686475147816,10.1778785735593171324354,-0.183054072706565013062274,-0.0399757139013774062674678,0.957219183258376737910567,1.99863424582432758214168,0.350612474155941378217705,0.302587709393180415151647,1145.03767351230203530577,1184.47237814418463131005,1141.52276052854904264677,1127.5275841961201876984,-482.4611148127582964662,-566.548705739614433696261,694.023324905173808474501,907.94235080857026787271,164.199134820780585641842
0.175000000000000016653345,-2.42928974692385235556458,-2.95083192922632164822971,0.986893362775166926859072,-0.0737840733695683398396525,0.247140809658268872928133,0.020859200723301607460769,-0.0100110980599938184654185,0.00284570674826815136343461,0.750539142068063380719423,0.660630278439089169140175,0.0933690496049964235858454,0.0226931157407035885564817,10.1778946833126795468161,-0.182930609105758423815757,-0.0398207007979198418512468,0.957931117560649525444205,1.99877278793543888824047,0.350219454441769662000894,0.304991611986643484932813,1144.15809679462245185277,1182.96235021192364911258,1143.36896879118626202398,1129.33020341843462119868,-263.240389629528522164037,-657.744700615652050146309,811.974792736877247989469,622.755285485166723447037,164.191263540710394863709
0.177499999999999991118216,-1.993084780222143859163,-2.99649373576824418208275,1.07646776027637525174896,-0.07996625776653096262514,0.239547164611914997767173,0.0231917583933653054240054,-0.0102439036174078196977932,0.00295435906595469715066327,0.75054722218846547932003,0.660617693109993187050577,0.0959184071452150455172614,0.0270426852563221478686906,10.1794779296793400646948,-0.182687336933148453121944,-0.0395947398266651984233278,0.95866407962464217362708,1.99891276235087111956545,0.349831448516536136494892,0.307393306569602120514872,1143.72147156415439894772,1181.18365464110638640705,1145.58263449223341012839,1130.64136062354600653634,-98.9178169436404459702317,-798.88259220884185651812,1023.70519503643231473689,491.68105481826614777674,164.183412163142151030115
0.179999999999999993338662,-1.40292108375639856809869,-2.96261144457126901485822,1.11882917462291797683349,-0.0846251532689535068687547,0.230869532369197466570299,0.0264658021659402650782589,-0.0104202943478688501294238,0.00303949047502141906154649,0.750573777401012720567053,0.660601499854050588922405,0.0993252268425007245333802,0.0315639034005269561444784,10.1826037005997349638164,-0.182328530819331174894771,-0.0392950120924833931623787,0.959427269416503358812065,1.99905411799224164148825,0.349447963820190776740304,0.309792505715751842476635,1143.66350770990425189666,1178.96793725087945858832,1148.48749476636839972343,1131.78860869252594056888,44.5802269113755329499327,-789.782609080474912843783,1086.31043761551973148016,382.033491251149484924099,164.174024970451682747807
0.182499999999999995559108,-0.913598752417941306624982,-2.86489405102297745031592,1.0896582686632150238637,-0.0864223362977279835339672,0.224022540860923963235152,0.0294526434077598368854733,-0.0105529694166620092998787,0.00310894580474368065897695,0.750613449035883117943513,0.660583280713453069310503,0.103312522202998746667646,0.0361653964656618379103215,10.1872351632058908421641,-0.181886073159405942112343,-0.0389250619018299756635137,0.960223318827092664484724,1.99919613946689289640801,0.349067229681837842836245,0.312190855269681266648263,1143.94437269871127682563,1177.23474159570400843222,1151.01418668031101333327,1132.55152807980175566627,166.681334562144769506631,-629.535607737170153086481,1019.21667142373644310283,306.364027442168378456699,164.166238707280683684075
0.184999999999999997779554,-0.485915491822502154661834,-2.70025994783757328221441,0.98518802845088837560894,-0.0868027222955158606065851,0.217483837866839974095612,0.0325716975977678110942826,-0.01066457097792386510271,0.0031725207772788231903871,0.750662162934934373836882,0.660563545721234324226145,0.107431105906695828489106,0.0406496586367136661377408,10.1933239498376728704443,-0.181407088052665615984793,-0.0385001128363457040260087,0.961049963643971993931814,1.99933734304760601929729,0.348687722101277408626174,0.314591649426710084913594,1144.49691438271497645474,1175.82025921219360498071,1153.58357812348708648642,1133.32042882973678388225,293.063012454285569674539,-514.173901870480676734587,1135.22815503665606229333,377.772822275209932740836,164.158498623238273239622
0.1875,-0.0886204257639407050328728,-2.42929337952639201603233,0.77367322341371869143245,-0.0859376880845759416605034,0.210209022861318928221408,0.036338687865755690820091,-0.0107788820333106754451036,0.00323893270061592804254236,0.750718337714043615349624,0.660540428531261269995412,0.111232169640212680272739,0.0447873183440745878391986,10.2008097062099096774546,-0.180937521301563264408685,-0.038039850155007146059738,0.961903335991351471356836,1.99947396460633974868415,0.348309097951658319658463,0.316997517349136503916895,1145.40968776098270609509,1174.66387208635160277481,1156.69032745549429819221,1134.44039219117780703527,368.312418448612902466266,-321.410463844813136802259,1140.17840611891097069019,458.690122970801496649074,164.149272733721517170125
0.190000000000000002220446,0.131804220789402903868393,-2.14412669264829336412959,0.538148760542363713277325,-0.0844578849787042257313274,0.204612213271586657059586,0.0390905718141729072168111,-0.0109126560121449011492301,0.00331306917354539775394384,0.750777682521041711538601,0.660512079247159267225697,0.114424442955707222902006,0.048389745051191042357619,10.2096194187002708986256,-0.180506608870927370835702,-0.0375636361861418632823728,0.962781315083080180272646,1.99960472354464124933315,0.347929540427569850002953,0.319409212704510836466909,1146.33847647495804267237,1174.21320689296953787562,1159.28447015408164588735,1135.61387944459079335502,395.173027390137235670409,-76.4330143526421323940667,1029.01823393417453189613,518.977694064505612914218,164.141642192970181213241
0.192500000000000004440892,0.24423154380518244388476,-1.79988202343972591989996,0.274255229657064947268452,-0.0830526930644213123855479,0.199438316518128544441169,0.0404319304171153817706319,-0.0110670686669625904091641,0.00339407428202987771284627,0.750834476841671927260791,0.660479020873681599290705,0.117028971315978252976109,0.051398481618911244506176,10.2196662307291958882161,-0.180112136070235268059392,-0.0370820974213331641666791,0.963687021849541691764784,1.99972899760202582619684,0.347547699770925144768796,0.321825030220599772601275,1147.38555289793339397875,1174.28170701458839175757,1161.83541862516517539916,1137.03528066150033737358,426.238770922827427511947,99.9295485594301737819478,998.895438582029782992322,595.876391632099853268301,164.134077864796211088105
0.195000000000000006661338,0.287499711756495968106861,-1.41211692574249281229015,0.0218929382861645267788209,-0.0822371718944913815407816,0.194946803296946996608696,0.0400956208289813334499918,-0.0112451223652515041456779,0.00347764614485150235639876,0.750886803732012220180536,0.660442422017822994284586,0.119081866418062287671376,0.053686257665867674615523,10.2308554335060613027508,-0.179749096367413679908864,-0.0366135388076780643462627,0.964623179349377801727883,1.99984738553596819166103,0.347164094414061485949219,0.32424395753868651137708,1148.46967032957218179945,1174.71285463576668917085,1164.27894734699179934978,1138.59326140275129546353,421.363817740302295078436,235.135901521561919480519,927.004693780690217863594,626.632625899946447134425,164.126572593487253470812
0.197500000000000008881784,0.280332626821819197449059,-0.986858845371661574930044,-0.176764338808524268387146,-0.0820773897012229969316621,0.191778329292850630016787,0.0381970253750816973736804,-0.011453153612266514169149,0.00356349212188052794081372,0.75093136666975146553682,0.660403451299938271112921,0.120507116439708489297189,0.0551527405084814500990653,10.2430866229410462153737,-0.179421745402002674740771,-0.0361753414852186427896896,0.965590468815662017476598,1.99996008405798164631051,0.346778684124073088845819,0.326665055150110017478937,1149.49237198663490744366,1175.45738652219620234973,1166.47044209406863046752,1140.16844379100007245142,401.356673648569653778395,365.960419328711964226386,871.940702037590313011606,651.498945293450901772303,164.119142696381288715202
0.20000000000000001110223,0.251604299323629099216504,-0.461714783464222233710927,-0.326313912172005227141369,-0.0821923508612583259003159,0.189603756027166364672709,0.0356243435894904938998629,-0.0116867871176252070136714,0.00365308222274677652299801,0.750970394653626915903999,0.660363277339989118708274,0.121364420120739752162464,0.0558789778908443598992584,10.2562513927397205293346,-0.179121024987692833985164,-0.0357669710773422591665316,0.966592443853795169061982,2.00006700686308613867936,0.346392384357402771666301,0.329087350110142007331149,1150.47645369781503177364,1176.54265673241025069728,1168.63865085717975489388,1141.85075612921855281456,293.419659882056009791995,407.045467594980095782375,698.021211374452263953572,550.469165983258335472783,164.110318207711827653839
0.202500000000000013322676,0.229749898671793739701741,-0.0356149687417375224174343,-0.38010215082940268516154,-0.0822588055066740680976167,0.189014356443847314492857,0.0340613368532514462772021,-0.0119353659613067788342056,0.00374599151742846135301757,0.751002883403872334433515,0.6603224867771003703254,0.121828207838256707962188,0.0560128093700825377410091,10.2702363178440982949269,-0.178826443329147100058663,-0.035382084254211645935051,0.967634588893989344704494,2.00016894899858765910494,0.346005074468906603790685,0.331511093874335138753651,1150.9594702860451889137,1177.49261386017110453395,1169.96054815094089462946,1142.92078962091636640253,95.9667488126796399683371,365.160286603531517357624,418.612234025431064310396,331.049808078887224382925,164.103042938740799172592
0.205000000000000015543122,0.220854448500661160181835,0.349775170870124330058104,-0.383068177754590233341503,-0.0822377976991727072109128,0.189553148488064704402234,0.0333360939884952064971024,-0.0121875888700564982691787,0.00384255270173568599934022,0.751026348625365769429152,0.66027985082033280317404,0.122066856286030533951248,0.0557312855910652923951965,10.284926373944792032944,-0.178518086250064406117488,-0.0350105325239954759397598,0.968721848553556919014795,2.00026819662920907205717,0.34561672768802781385844,0.333936886133447186075784,1150.95628744187843039981,1178.36845816542790998938,1170.73171202730691220495,1143.50600516961299035756,-129.37674121881161681813,343.475937596712981303426,226.923103837907348179215,132.824146635084503031976,164.095850986800712689728
0.207500000000000017763568,0.225440061842251654455893,0.733594666703780817762492,-0.359897884496641728979682,-0.0816393196326723052935748,0.191468088422101917478457,0.0329818386534273186305732,-0.0124422482323257848485509,0.00395042635110662721659169,0.751036643377770873897248,0.66023535266230903850726,0.121988403210733648007746,0.0551955341780163907805523,10.300209753084825337055,-0.178200875359216331927925,-0.0346429052787391028589425,0.969853908992573288117001,2.00036649868163518561914,0.345227368775940512968248,0.336365985759689956058338,1150.31258657995113026118,1179.20999354815467086155,1171.09516367013043236511,1143.58491035409178948612,-338.44821285747616457229,259.393250282029214304202,68.4972576576459175612399,-68.0529324999045854838187,164.087318040469938296155
0.209999999999999992228439,0.238299021754535017558752,0.967696722357587191254424,-0.336070335976216882922785,-0.0804625940133531780684706,0.194119103150373173427568,0.0325242324842475380441975,-0.0127026341007268218225024,0.00407457038393088492866934,0.751033696891893587377353,0.660189523936654754088238,0.121466209946284819931606,0.0544674188099758191383692,10.3159779673003981770307,-0.177884278336397583242245,-0.0342764595774714825315854,0.971028818500672907809701,2.00046628872066634130533,0.344838072460668942920137,0.338799809038393517912624,1149.26404637759105753503,1179.66542441683805009234,1171.07419831559514022956,1143.16574050711346899334,-501.645127126996669630898,122.713294980667910749617,-26.0176157558818275106205,-241.40267534421695927449,164.080288503894024643159
0.212499999999999994448885,0.261206443438932844891553,1.09650504376822355290244,-0.32038172469678188880593,-0.0789393774818526183789658,0.197661999982555347532553,0.0317093824023800402445161,-0.0129725316439625853320861,0.00421394031756689227408152,0.751019398965362294795511,0.660143377006033205134372,0.120447404229327398317295,0.0535098945529553712829873,10.3321260611750176394708,-0.177572602311650701301105,-0.0339155587150068091317756,0.972245002466057828272028,2.00056740724476966875045,0.344449254604029753146222,0.341239962206702385216772,1147.80436094431615856593,1179.82356002305800757313,1170.96507559135102383152,1142.37789697737071037409,-691.534481629104789135454,7.43870665323810786873082,-8.46846456979618977811697,-382.03720774276882821141,164.073342634674531836936
0.214999999999999996669331,0.317371248842865938399882,1.1283167077483051699005,-0.3221246739977104978081,-0.0775037364147969781713599,0.202069825604736602597811,0.0307393421857267284957871,-0.0132469927759669477834725,0.00435491506290685333885326,0.751004112094014630862659,0.66009790401742152177178,0.119191977457975717413774,0.0522059658122831019011478,10.3485511753187946482058,-0.177243451628805975817116,-0.0335683297558348123224015,0.973505702706463971196627,2.00067024302711926608822,0.344064403747574909520068,0.343685826746335854053882,1145.80637396944553074718,1179.70261795010424066277,1171.03185599274615924514,1141.25555446839962314698,-734.95282590488318419375,-78.5896617546767828343945,89.1512613495705465993524,-397.838693059884121794312,164.06510278863137841654
0.217499999999999998889777,0.410758560723672727643674,1.06633949093737645519298,-0.349383249193079892247482,-0.0771256159446969263848715,0.205056756038613813286631,0.0301478070179613637236127,-0.0135179025186489051163496,0.00449021225780822392376068,0.750999560272115229686563,0.660053535655219625333245,0.117929574580978330233805,0.0505757037599929640259155,10.365154903727262336588,-0.176879924915698122367402,-0.0332281132119830110993597,0.974814090044764602893679,2.00077600155729218300849,0.343686807248345493892572,0.346135505677775290322984,1144.12959681479173923435,1179.43061171428462330368,1171.41083189809887699084,1140.38870351207128805981,-628.856132811505972313171,-110.11555196791950095303,229.654243897811994656877,-281.901286853962801615125,164.058314165412923557597
0.220000000000000001110223,0.57985956092301094155772,0.940335178050263564841771,-0.412453660847312664206044,-0.0776419434937430097409816,0.207023046803103266677581,0.0298166294862372005525231,-0.0137796661526723707158482,0.00461927577939607106327635,0.751011575721524438087329,0.660010609906951928316232,0.116764220117078015848122,0.0487061262322985230599492,10.3818456284775706421897,-0.176478883081260889964526,-0.0328825607447904011415574,0.976171587654749428608625,2.00088551899306521519861,0.343318573520254244346717,0.348587268234357039453641,1142.66209330538799804344,1179.15204019026464266062,1172.18012721223522021319,1139.84604803412980800204,-525.556062794111767288996,-80.7456437128166015781972,357.959476600080620301014,-133.054637323266319981485,164.051604455546566896373
0.222500000000000003330669,0.819413407691451767256297,0.782125086122743340411034,-0.507331318517204143958566,-0.0782535674977800216334245,0.208411562215130130581997,0.029488023995314940201018,-0.0140373196337275039924375,0.00474008132720207548543856,0.751043582455936054032009,0.659969651136307899896849,0.115661623145208558582908,0.046511430319637468711047,10.3985412826806680186564,-0.176051633114966327164908,-0.0325362385194360725915175,0.977576859899604633241665,2.00099692605020429425622,0.342958565137938098388304,0.351041379147483567635391,1141.50181650082117812417,1179.02688349572053994052,1173.20062928109928179765,1139.72343032545495589147,-370.762538875350969647116,25.7202951197541338501651,429.838861981306365578348,71.8109030320646866130119,164.044958540563925453171
0.225000000000000005551115,1.12350861758315967442456,0.60202043360438839414428,-0.633053888495426875238081,-0.0775664214263541290650394,0.209421796367276119577028,0.0288163982911641761153199,-0.0142968860016208058894005,0.00485564857787460207177999,0.751093219585154181494602,0.659931522478398591147197,0.11450829679034232877477,0.0439673898136131238723046,10.415166918673719465005,-0.175617353983586937937744,-0.0321901661461988161661019,0.979027452290416766444991,2.00110653646243141778882,0.342604256284845254398874,0.35349909950492225396701,1140.8082806110112414899,1179.28064166586341343645,1174.3293215221417540306,1140.20510254929013171932,-193.830620765311152808863,240.623997197417111237883,460.051521476361415352585,350.240175201952013139817,164.038387372186093671189
0.227500000000000007771561,1.49940435991875009591467,0.369597011033100886212566,-0.795813985463748263526895,-0.0741341997211016068280998,0.210280720063430653921088,0.0272625196392441045134536,-0.0145631777226367057492817,0.00497283197086981210155443,0.751154882575844062841952,0.659898330781837461067596,0.113162433521285299420356,0.041124140683781180982681,10.4316545481049427479547,-0.175197676286366871289957,-0.0318406663470812145710909,0.980520610885431187497829,2.00121201753539024181805,0.34225453079710510539968,0.355960734580700766116479,1140.53266339699462150747,1180.23000348170762663358,1175.50088688848109086393,1141.47463120146471737826,-22.116620790939101937056,475.38134407254761981676,357.421862288674333285599,561.550655138261845422676,164.030585355728646845819
0.230000000000000009992007,1.76195379863298673406291,0.161262174331998880960626,-0.916220388575954891585695,-0.0693112133705208605105597,0.210755070196089189238364,0.0252395457883993479253348,-0.014835524267944533854946,0.00509531263072423787341414,0.751216920208558236460306,0.659871898194403061488345,0.11161479115845079901348,0.0380572166880880149997246,10.4479425774212160149546,-0.174800909883118277265979,-0.0314842608067005605421151,0.982055836764710088360175,2.00131241630616107940455,0.341908524844628913808009,0.358426295603357314423221,1140.69769750705654587364,1181.65754838622615352506,1176.11643083358512740233,1143.01285582498144322017,115.571904305443140970056,712.648091135542244956014,137.769735838719384446449,677.133161371193068589491,164.024150826154027527082
0.232500000000000012212453,1.90662342864592648794542,-0.0688581289254074496719582,-0.987420760404649211494643,-0.0630506775343573355741,0.211014138077640633905929,0.0225499995424767209206696,-0.0151125564855563252614212,0.00522022583313047367631343,0.751269246225759301793801,0.659851500062158424775305,0.109961993728994789076836,0.034747586445930740695065,10.4639775776609909030412,-0.174424549757410535244517,-0.0311262830267886314583592,0.983634054507853683446683,2.00140967202303388106088,0.341565647718316933723059,0.360894879823703607080176,1141.1105229185218377097,1183.79324393738534126896,1176.1897355676746883546,1144.86029700832068556338,192.387580359672767826851,1096.9590114392294708523,-100.534664964516110785553,833.92915693980205560365,164.017783150458626550972
0.235000000000000014432899,1.89816072373521294025522,-0.377941639443220178673499,-0.981652797762260775904508,-0.0548281374332041590569098,0.210995649522343980963868,0.018514400447200277111115,-0.0153895017810391568358064,0.00534376261999898721083424,0.751306975573051261108048,0.659835754894129933312286,0.10837102223660863287158,0.0312082793321122389795796,10.4797141318017477118474,-0.17405818222463448341486,-0.0307684554765831758116335,0.985257324077820406671435,2.00150635986845948366408,0.341225654142660927981012,0.363364404323574807786912,1141.65963540885491056542,1187.14234344342230542679,1175.61375750876254642208,1147.18250160968045747722,180.509998849583837454702,1342.7769885717214037868,-303.215368010750978555734,836.256109787245009101753,164.010216645883133423922
0.237500000000000016653345,1.73539636277631625915774,-0.663804306558167023233352,-0.885722424157464716110155,-0.0485660624659745923659138,0.210535684847212939407868,0.0144791989743410093316456,-0.0156572848187223820359826,0.00545694769273217736293979,0.751331740764876077065537,0.659822938303840866858252,0.107149690533361624522612,0.0274320396005818326057302,10.4951153183703436155838,-0.173676425684364088564138,-0.0304137452090192314524408,0.986929577221225540206717,2.00160274077704780637532,0.340888617660585424573583,0.365835782680917265263787,1142.01307291276975774963,1190.50712888024395397224,1174.67365872762093204074,1149.04157755725691458792,100.856676781859746938608,1432.00586514895553591487,-424.395072851122847623628,701.047041546465720784909,164.003972783996971429588
0.239999999999999991118216,1.44137654991606067866883,-0.969465693999950306469771,-0.700650119519860448136228,-0.0441779177951507270871723,0.209285240213416656729351,0.0104441379522111875421952,-0.015912011105755831386066,0.00555590413301678461704958,0.751345778422337851054635,0.659810934707233287532802,0.106449688896339794696999,0.0234245626408897053560842,10.5101556685259076573402,-0.173266122730584115618768,-0.0300649131651169430889947,0.988651459565471846246965,2.00169710620920993093819,0.340553934503334654326778,0.368311479564056298841024,1142.16391879276420695533,1194.30237276916705013718,1173.49178214450694213156,1150.68773681741276959656,29.8901798416865425167543,1555.76715780335507588461,-465.770871860288366406166,615.011716319762058446941,163.997793627765531709883
0.242499999999999993338662,1.07791504288631068142479,-1.27512134430917156713292,-0.470296765932146698663274,-0.0413972791562321820735271,0.207088662916888238685331,0.00754359849009756267684823,-0.0161569576508550187543545,0.0056445553834451956190521,0.75134762197789106696888,0.659801571659380803325234,0.106191531872127264968242,0.0192238784159183065392007,10.5248221988348102939881,-0.172832626900889185783683,-0.0297250591722370664793385,0.990419079871994512132005,2.00178800168109205515066,0.340220351759138894820467,0.370793689316164520874963,1142.16252381197818976943,1198.28596466926069297187,1172.34480436831950100895,1152.1166361388557106693,-13.194327278006300119273,1590.48418742608964748797,-391.027749228259949632047,523.939755763467019278323,163.991669982842267927481
0.244999999999999995559108,0.681146613609323603455437,-1.55214685611848324242601,-0.246898614526704807126123,-0.0401508762082494197187543,0.203507796599756013433691,0.00740923090140392735097885,-0.0164006736079432210995144,0.00573139338681305510192487,0.751340359477092656348418,0.659796927878316785687218,0.106138923192228562530914,0.0148728619672167453047429,10.5391144702540096034227,-0.172393297518388721734084,-0.0293971093161289019624061,0.992225370807471307443848,2.00187385539985651661254,0.339884668917169285862201,0.373283019133631044361721,1142.09794715637417539256,1202.25479370629750519583,1171.53664339836564067809,1153.30743559623010696669,3.79741732608635729206981,1677.62338175516401861387,-213.107124143971105922901,490.033699589957450371003,163.985617056621634901603
0.247499999999999997779554,0.220098129463087266444177,-1.81274369498455145688354,-0.0711305360804224129367412,-0.0402982001648061471943407,0.197808587789710998983139,0.0102077087419261587630803,-0.0166573457905706823201086,0.00582369407399776963657478,0.751328841382293277639803,0.659795172525295181564786,0.105969310726346188644698,0.0103211358099583663805454,10.553044830157205069554,-0.171971186233153244815597,-0.0290921908138038441682394,0.994061361724271064232994,2.00195308093354151779408,0.33954357244525656955858,0.375778953942703719537377,1142.18151089860862157366,1206.67408157803652102302,1171.27926874759964448458,1154.5668046368055001949,92.3359612494095074453071,1519.69495032499116859981,53.8024378378849590376376,454.505503555673897153611,163.978442172488826145127
0.25,-0.126757922363488928496622,-1.94825384054866046490417,-0.0388015997576866764062764,-0.0412587713169783112943101,0.192460327311744699985141,0.0130780861560016430783504,-0.0169346056484119406038147,0.00592109858476868537030535,0.75131089962535890780515,0.659793386446079876961335,0.105551910668619769451126,0.00549530491620254385454203,10.566635461478053770179,-0.171569052905872321268532,-0.0288251244197943665148465,0.995921266180003650347885,2.00202597956522376776434,0.339195928209160058042215,0.378280999076157142813059,1142.55962696262122335611,1209.85326845792246786004,1171.80565558755506572197,1155.57996311400847844197,242.235769188118638339802,1127.99965393369257071754,372.827368739762846416852,419.800687896030979118223,163.972543423324481182135
0.252500000000000002220446,-0.424720622711698692075544,-1.98660248244020909424989,-0.121268596759959393360795,-0.042326887515895798841381,0.186965943683849111778272,0.0145423733610368852153805,-0.0172265674790726547316311,0.00602212420450959091261511,0.751287538711494007337421,0.659788650441183732731076,0.104973582328911102523605,0.000496293774186480629584395,10.5799167699537619569128,-0.171168462166180951333772,-0.0285926763479197251771602,0.997803597045106460683428,2.00209577161453067262187,0.338844076905644664421402,0.380789091481072816680609,1143.39268974454921590223,1212.31407984770498842408,1173.14340559129846042197,1156.66580807628565708001,468.726181919464181646617,892.898104317463662482623,753.030597431415344544803,504.65585014103407957009,163.966737392493740799182
0.255000000000000004440892,-0.729517910658209478569347,-1.92356365749852642466067,-0.299837517887604154687153,-0.0435785787501769064644641,0.180441267005200273176868,0.0141680868413720136012035,-0.0175235613565781801759247,0.00612355423269197313151935,0.751267172453596976389179,0.659778721436391824006762,0.104397251424936776675878,-0.00454780132954760857311172,10.592928708352282285432,-0.170744422566035003452356,-0.0283858575692542969282073,0.999708548916386385840838,2.00216606204342717489908,0.338492224484537085338332,0.383302447011163394119393,1144.90325787221854625386,1214.3177589795097901515,1175.5708085747121458553,1158.10324236471365111356,610.586847378044126344321,573.262357744078599353088,993.699055601654436031822,542.794304545895556657342,163.959888946065575510147
0.257500000000000006661338,-0.942499632080015969926023,-1.79352902705162375873726,-0.4633318936745804417221,-0.0446615837198118467710195,0.175484421946510926737517,0.0124807502327985552631473,-0.0178139221396615317349887,0.00622256484850564669381034,0.751256655978603249401715,0.659764557671026596885611,0.104003131242686785995488,-0.00947136414360371520215764,10.6057200333476462361659,-0.17027132323370580690991,-0.0281914847943119870055106,1.00163712182889730328839,2.00223946581522804777364,0.338143641222533153367635,0.385820724948322590908134,1146.44562398143943937612,1215.18039163642538369459,1178.1119008693067371496,1159.37977959901513713703,619.149146924928004409594,187.549944252395846433501,1074.30603587676978349918,506.095422964198860427132,163.954288685758371002521
0.260000000000000008881784,-1.10590616150130971462318,-1.60957969491546037943408,-0.585800380756372640611573,-0.0459757653959122006281923,0.171501075694419857775586,0.0103244650147201362522242,-0.0180815609045229773454988,0.00631809031615070820775415,0.751259388736085997884118,0.659749354700357670822086,0.104011138286175586209481,-0.0140173350521513931377093,10.6183463644631039812793,-0.169721336435418479471338,-0.0279874970581697676830224,1.00359157239715202081243,2.00231755249759668657816,0.337800918799047555918236,0.388344007272250213436138,1147.99900360684318911808,1215.25550870077177023632,1180.94233875409599932027,1160.63371947953464768943,615.370885479659932570939,-124.626522809194170804403,1253.52459743489703214436,518.844681458403556462144,163.948807427096454603088
0.26250000000000001110223,-1.21481162205242143592443,-1.36190357228830460911695,-0.637799856344429372256855,-0.0481063512800884163223003,0.167741789929230278310968,0.00762353462339060601593577,-0.0183111973142936756975274,0.00641220671223958951084887,0.751274606280557311066559,0.659735870179706584970347,0.104581582223938457376633,-0.0178910532028987226405015,10.6308692236021684607294,-0.169074102537992515538079,-0.0277480778675886358142222,1.00557358966461851679242,2.00239845736864818803724,0.337465059472985717814453,0.390872703725701542420978,1149.52247840883774188114,1214.55725902237941227213,1184.37952385648122799466,1161.97400300630715719308,465.301098933332070828328,-364.723461423863795971556,1229.40464605894590022217,451.240856907451927781949,163.942375581940410711468
0.265000000000000013322676,-1.19572817098668138235951,-1.15551888769076160912164,-0.578991132035010847012302,-0.0506565113612169812262742,0.165226243921759385901993,0.00503666149575880076755263,-0.0185022909484609289487711,0.00650253026003687860379099,0.751301213312421167778155,0.659723351298701188305529,0.105704093531211323897523,-0.0210813297292593640475111,10.643355259454889250037,-0.168327509337258679478211,-0.0274730537319119796912936,1.00758167510328311422541,2.00247896281802484352852,0.337135269483134714096906,0.393407328103023146148587,1150.32550910150985146174,1213.43189139365244955115,1187.08936198439073450572,1162.88992376407190931786,214.619504415941065644802,-533.268665772311123873806,1018.05584911503410694422,325.447244086080615943501,163.937142101621589063143
0.267500000000000015543122,-1.00703477344488434574998,-0.968071976805406908539453,-0.402624826360032606054062,-0.0545248046402603131488362,0.163287351164377425583041,0.00224177915306917512408558,-0.0186607578158812965896107,0.0065906309855232481781373,0.751331816009568997927204,0.659710111214118932743133,0.107212436429090868239555,-0.0236092634648936497421268,10.6558725201953290451229,-0.167495896079526557231887,-0.0271665902572807496651031,1.00961218930647778080356,2.00255768137802903083866,0.336810651694724738636211,0.395950072711336753528144,1150.59557593091744820413,1211.89091569351785437902,1189.46980310205640307686,1163.60123922673756169388,40.6250888476278859684498,-662.136190437967684374598,882.694055547971515807149,262.608883074153482084512,163.932044739588121728957
0.270000000000000017763568,-0.640598292076641206982401,-0.803721850534958925926787,-0.137121404005096841904887,-0.0594344283568631684411265,0.161867023799175252518623,-7.45439117129378329279499e-05,-0.0187967253142214303640589,0.00668363211506262967775971,0.751356428260939290808551,0.659694614534900858338062,0.108802249622762692293776,-0.0254722511592900338617262,10.6684874618283309644085,-0.166608501523311969272356,-0.0268313384543277314020493,1.01166011031619440529994,2.00263349035289950350602,0.336489322840477167453344,0.398500972618415716386409,1150.52863454574799106922,1210.12121044146260828711,1191.5028322621305960638,1164.20296817944267786515,-56.586847262951728509961,-734.106082216839467946556,724.529604951657574929413,235.335758496012005025477,163.927063174573163450987
0.272500000000000019984014,-0.0466194384218372448458467,-0.666365393612790235522425,0.2012043566375902869936,-0.0645735367660733444727938,0.160862518702251711122386,-0.000912264793027138076557392,-0.0189186207345498069720691,0.00678994440353280093863875,0.751365307687997807661873,0.65967623732794722357653,0.110189386206093808961981,-0.0266298445601306013608145,10.6812607157669567925495,-0.165694662552872490346445,-0.0264664404824949475725226,1.01372200390401534519924,2.00270424001907754174567,0.336170337321041790001885,0.401058978635541407697929,1150.31264169460268931289,1208.22038528243365362869,1193.09245112681469436211,1164.77791801921762271377,-51.3270749136153909830682,-828.226094605496882650186,604.17533389031575552508,271.851398087482948540128,163.922223889708845945279
0.27500000000000002220446,0.873831046896573426785437,-0.517664340958277513493613,0.622455613104659910561622,-0.0682000605931322306796361,0.159582793214401275072589,0.000357519496504830837282224,-0.0190357542204715735056908,0.00691069011485607401917841,0.751357879489009894413698,0.659654614886506118764942,0.111195388407756362569856,-0.0271810055163677413703205,10.6942436009878463210043,-0.164776212823987078248678,-0.0260817516196976927067563,1.01579723395518928263925,2.00276956459319421810505,0.335855066484270936566503,0.40362133263307936603681,1150.27199917117991390114,1205.98007996843512046325,1194.52370893158217768359,1165.56222516988009374472,71.4008421849939054482093,-786.325500745623912735027,456.843431567585469110782,316.381689734316466910968,163.916583966889760404229
0.277500000000000024424907,1.71447799957827817785017,-0.388609773653964485351509,0.929864581420055791305401,-0.0661376096982051464578944,0.157997399199589660945264,0.00330492020516801737750612,-0.0191533868365675388756308,0.00704275202297166644932469,0.751340219376839701936888,0.659629382516110140954879,0.111784636767127965040203,-0.0272463944874418509400904,10.7074745907935735544925,-0.163863876208440423232204,-0.0256866209502939028819224,1.01788885587690014489226,2.00283065640740698398758,0.335544334720660697435335,0.406185550133385087079319,1150.66964590552765912435,1204.28875777870553065441,1195.37666828465262369718,1166.35982646788920646941,283.990238788555643623113,-607.103908673024648123828,287.242146377957169534056,358.903837541356210749655,163.912025546593014269092
0.280000000000000026645353,2.47182200883446778760799,-0.233408827262437501559589,1.13500038694130500616097,-0.0575709398090334042996652,0.15582415784570360917094,0.00753944438271575249899126,-0.0192704960837960272146407,0.00718532529016341695027315,0.751317101365671646817646,0.659600175522292331287133,0.112005609070023132156635,-0.0268297783887234478350514,10.7209770781218622914821,-0.162962348327341188802819,-0.0252779655682476983580287,1.02000269819148958738708,2.00288954066286484234638,0.335239260803692096235551,0.408751076297524718050624,1151.69195036512269325613,1202.94456042506999438046,1195.95991966347196466813,1167.35674435758687650377,595.342085580159050550719,-475.878006215679818069475,214.156980557618027205535,494.203138513148132915376,163.907617280591892949815
0.282500000000000028865799,3.12616587819607127940458,-0.01326570997046370992134,1.22705641744632298895112,-0.0439027513168221972250649,0.153752792715666053435797,0.0128280174518538916950128,-0.0193875705419622665348633,0.00733275567379473077606056,0.751300095365185938156571,0.659566594327124389174344,0.111970145827974709717978,-0.0260458048506730446836066,10.7347581009024608533764,-0.162072131832115107208381,-0.0248598518600987652971135,1.02214594072638620403382,2.00294838792920781855855,0.334941332851089401678735,0.411317589496180635588729,1153.64635633342845721927,1201.90936774762712957454,1196.44745318744071482797,1168.83084216045494940772,813.70876971973234503821,-261.61599276942956748826,156.755994094100827851435,595.158625554813056623971,163.902505723890584476976
0.285000000000000031086245,3.40172069292620449232345,0.1806887395877067314931,1.17250524048172466429207,-0.0325010939092020903484759,0.153572329060464723982093,0.0168236897171303821652,-0.0195045457250237544433169,0.0074775293525797884020001,0.751301411724503376277084,0.659528095568224115297085,0.111840622608489786982133,-0.0250417012723588364164762,10.7488072668543495069571,-0.161189883098928399274286,-0.0244375027882934164891182,1.02432649459897961996546,2.00300806083332627594018,0.334650643222903554363512,0.413884969560294690982261,1155.76049421372135839192,1201.63648046122284540616,1196.74369963394246951793,1170.33253748536094462906,898.44871611630799179693,29.1445010405368272188298,107.68402237126782949872,668.241956380506394452823,163.898398879675085026975
0.287500000000000033306691,3.3985331757302739141835,0.349243995730019962664414,1.00078135897384346009176,-0.0223945255190796249644691,0.155148996019934676260377,0.0200543904513169161940578,-0.0196289469747953082556791,0.00761647094184570751240759,0.751325879184453260251075,0.659484460136950390030108,0.111604448994049476606705,-0.0240100355669768464328406,10.7630985622177881566586,-0.160328783669220570340386,-0.0240207610557779394078182,1.02654898597657795455973,2.0030691221383305489212,0.334367436700066744670323,0.416454516920174488969764,1158.13859991401000115729,1202.05509025282981383498,1196.98587329929705447285,1172.17205194235748422216,1045.97324315787932391686,342.180433424849809398438,99.9969920986596889633802,894.69088044789714331273,163.894456391303918962876
0.289999999999999980015986,3.13333412399543753679154,0.485868850151295883499358,0.700090193011145611734491,-0.0123605891285906242110793,0.157889412158743608349809,0.0228905230672689849469315,-0.0197691835378957583846393,0.00774299378817777921718557,0.751374468905492531867196,0.659436967309739441311933,0.111289756312028198514952,-0.0232186224412647482240324,10.7775891370709331340549,-0.159497160201930110456914,-0.0236270064568075942312841,1.02881745380733424788389,2.00313335381407098267914,0.334092150422054201541755,0.419027420838771369471232,1160.99036042951070157869,1203.3473826283470771159,1197.24368459443576284684,1174.80599188760038487089,1007.29881185171620927576,588.001895169105978311563,88.040659673198192081145,1033.08118818405228012125,163.889923159681814013311
0.292499999999999982236432,2.75651934665901121590537,0.534055484882188236106515,0.407245996208799976301407,-0.00560672788073989392804153,0.160086474261483896475156,0.0242777029713401870658629,-0.0199236582919649421463681,0.00784942891370891959734735,0.751442060804644706983879,0.659387633344573176330528,0.111103633496820564108276,-0.0228165929021314009550458,10.7922190433110571916586,-0.158684203898383335840094,-0.0232636643697656068929813,1.03113745716762528203958,2.00320121366259584760883,0.333823655855847112317036,0.421606633702418687192903,1163.1750939732685310446,1204.99509972867531359952,1197.42607659766304095683,1177.33745788327769332682,803.141384907439032758703,740.520299187846148925018,62.3515382869299514823069,1061.71386604792041907785,163.886316594433964155542
0.294999999999999984456878,2.29310227128441024291305,0.519967139934458755234914,0.116938992438606462198614,-0.000666590846766050397487202,0.161608354675989718263196,0.0244860841650590028983903,-0.0200851853893887419277853,0.0079358499640122537321929,0.75152064567230325575764,0.659340014894681747392724,0.111232563340173451482684,-0.022751745022768450621431,10.8069146798507311757476,-0.157878092214673276805215,-0.0229206282118363594002552,1.03351317329795078236998,2.00327067199119879248315,0.333559328567375579233101,0.424193358397655984060037,1165.00606735404790015309,1207.04998412428631127113,1197.55544228587041288847,1180.11456121783999151376,661.376868600700049682928,855.329166283762901912269,42.1291486042263940703378,1122.56162950425186863868,163.882895639800040044065
0.297499999999999986677324,1.80581847075734280849701,0.466976062982410677903999,-0.138575769330452930327979,0.00289501820689978600284475,0.162454278274256375125262,0.0237818998972428030658222,-0.0202476180586027496022261,0.00800886989406171534433554,0.751598493229776232205097,0.659297340541756482501512,0.111746192513699799109261,-0.0228816594205509052373237,10.821592178840685249952,-0.157074548069420172335953,-0.0225813819940179974499195,1.03594595055467664224125,2.0033382219370712284956,0.333293932273145909750411,0.426787751417594563019264,1166.48197831627203413518,1209.27174556009413208812,1197.63672234068417310482,1182.95026603079895721748,499.231095716822437680094,889.022933201567070682358,26.6804573243461824461065,1100.38471713983108202228,163.879634441983085935135
0.29999999999999998889777,1.32924930681112152264234,0.381918198467646796689934,-0.320939233901388454306414,0.00531695147931425787096726,0.162815848861359135923976,0.0222784730658711904727198,-0.0204104774075968969926365,0.00807790275961437626017769,0.751665829913838900999679,0.659259342995920705199353,0.112572240578125731813586,-0.0231008647797403057766452,10.8361605070971744879671,-0.156279433391435518263535,-0.0222335758196660834840053,1.03843401483876585089661,2.00340178059663731602313,0.333023935241534729811974,0.429389868310659894579118,1167.50222283263201461523,1211.49509879029415060359,1197.68884457249214392505,1185.61648480353915147134,343.418787623477044235187,939.185232910994386656967,33.6590350321330049609969,1067.35133509050592692802,163.876572615745288885591
0.302499999999999991118216,0.79496642294675101680923,0.251820055677150267392506,-0.431220167398502773892233,0.00743697851621341957106814,0.163127128293459100483176,0.019904113884040945670062,-0.0205743321004311363608963,0.00815374838651004851808324,0.7517164022369383635791,0.659223614198581664425092,0.113588276326747950051299,-0.0232951361546192628471097,10.8505232901649897314655,-0.155500459026822107633237,-0.0218646424654924467767536,1.04097421584549709727696,2.00346046270147359891212,0.332748369534392851587512,0.431999605962727628583053,1168.19907225438942077744,1213.96767172464910800045,1197.80501751584483827173,1188.2870227062514913996,171.20676650588379175133,858.346283125546619885426,69.6805978997417128084635,850.380025215417049366806,163.873137186433069700797
0.304999999999999993338662,0.38510750510463681584028,0.118520988220748593744425,-0.429213427526909330200766,0.00885591091133687384473472,0.16338281205118773686813,0.0176852282544634996364064,-0.020738340998935542863757,0.00825076462201411106600624,0.751749120212695354226184,0.659188268309582769965971,0.114628847060342820007861,-0.0232674648209761428252484,10.8645812658132072670014,-0.154747338191889960423708,-0.0214546318303417485329199,1.04356250761777591407053,2.00351351886249595679601,0.332467968149820991552446,0.434616588888143362545691,1168.35825666516143428453,1215.78683020592188768205,1198.03724756199085277331,1189.86838492961624069721,-14.4314324810238634455573,675.400890735817824861442,143.213433969549328139692,474.282394412284304507921,163.870479040507888157663
0.307499999999999995559108,0.010260255963316859684209,-0.0483997055507076681668543,-0.3444077671336354118381,0.00996736979951499263430392,0.163613344401337262867813,0.0157969845412040052479163,-0.0209029881171060825939545,0.00837199741914295379741073,0.751761752712804320886164,0.659155100107010616383718,0.115649638609853083748291,-0.0230143031814437140636365,10.8782338880620450538572,-0.154016689114403443339185,-0.0210044509476718932461381,1.0461958948444947115064,2.00356102519093948188811,0.332184715743847502888997,0.437241728987384226101653,1168.12691509198430139804,1217.34467617832819996693,1198.52108468569258548087,1190.65843467831291491166,-173.298822332026105641489,638.631419827378863374179,286.287143257277193697519,176.08775531593875030012,163.868039902177514477444
0.309999999999999997779554,-0.394211828410031439595684,-0.297205676584433198250679,-0.186372302955477353592073,0.0102315072063568438670567,0.163512063106650840094147,0.0149197330285946554162546,-0.0210713815760356602824199,0.00850972148194284634670215,0.751758002020399773712711,0.659126573730506759574155,0.116701879070111314007363,-0.0227394459477103308420176,10.8913818266964863568091,-0.153295644402108327541967,-0.0205344361067726494107788,1.04887220046925411232053,2.00360401911674346209224,0.331903047527700889585134,0.439875451321379173919013,1167.49176255350130304578,1218.97998730505878484109,1199.46868327827723987866,1190.74882370619593530137,-273.710654712112727793283,575.953615837715460656909,405.551255168938610040641,-78.31993011063779874803,163.865373294003688897646
0.3125,-0.680080153591176794769524,-0.548631391123481138016871,-0.0439590935503397436945328,0.00889779600801609595051023,0.162895580769372688711982,0.0155012086890420758278353,-0.0212386385768867681778094,0.00865714819104252027159863,0.751743773936885073538861,0.659103779221959285017363,0.117937377978290652835724,-0.0225104989664529145376726,10.903928216685757845994,-0.152561796347836425846722,-0.02005108424801345726185,1.0515909975077037952218,2.00364542486867325266076,0.331626451162969071440045,0.442516492067261346665674,1166.75836181842373662221,1220.22444425751677954395,1200.54884096153728023637,1190.26683502775972556265,-310.050180213783903582225,490.732572644901210878743,468.904690983253715330648,-257.238288360030992407701,163.863373045207509903776
0.315000000000000002220446,-0.891527732743142342641818,-0.844492288241041499929906,0.0731272956574957611053378,0.00616904946086377532765699,0.161736967191031089097208,0.0167496874945787521671292,-0.0213973656041029809682374,0.00881463482505168149927499,0.751724580977632061973281,0.659087024579942615254424,0.119430196261840010363287,-0.0222339078174957141542656,10.915782000617651803509,-0.151800332463444737074454,-0.019545048308210979937094,1.05435125667170526142513,2.00368667781870568589397,0.331357018813172865545624,0.445163977705919311489424,1165.94151165243238210678,1221.43365016828329316922,1201.81320673319351044483,1189.46263226439577920246,-351.127377989177773542906,533.508498476066506555071,553.564304375731353502488,-370.098070164931073122716,163.86160862539796312376
0.317500000000000004440892,-1.04377683555071798515712,-1.2399296423303016734252,0.163834812699717946582467,0.00248381354217451760096891,0.159519666045607466653422,0.0182128659169982672072496,-0.0215477150406374884372696,0.00898440277584122530540878,0.751705015557692535210776,0.659076650833506416660157,0.121088954763391959401631,-0.0218854329861963362025001,10.9268608684170551725856,-0.151012290755406397568805,-0.0190138051825938861338905,1.05714973076181095734682,2.00372764779030720916353,0.33109443165389557117706,0.447817693455459908680183,1165.00272492847784633341,1222.89198674989711435046,1203.31666248341593927762,1188.41634467693506849173,-323.043344356665045324917,530.926587652993021038128,513.670450607241491525201,-363.68136575624669148965,163.859769506512463976833
0.320000000000000006661338,-1.08578274404507912898055,-1.5869503313246287046212,0.197988852943289689312323,-0.00028579455015385028674238,0.156666625085262828376287,0.0191354329235111642049105,-0.0216876794766553970816858,0.00916174512208743282992707,0.751691351596791568212552,0.659070981560329061110792,0.122945731292601889705907,-0.0215180422042003174909475,10.9370900303629454697329,-0.150186522361409169334934,-0.0184616675109708118507346,1.05998489456300726274662,2.0037670053204919007328,0.330836941522785921154792,0.45047745285086493449711,1164.32629493064905545907,1224.08828310654826054815,1204.3815589862297201762,1187.64422543561454403971,-240.986710677588916951208,453.190133880707037405955,355.461045489391494811571,-262.976235005680564427166,163.858472189106265659575
0.322500000000000008881784,-1.04742419243101703152377,-1.92362476592546660647542,0.201139951422564300376195,-0.00246312248036457178551606,0.152459794875087512044942,0.0196891509621483599967728,-0.0218230370406317895903836,0.00933891684803895769095838,0.751688130014754873897687,0.659069088413024362083092,0.124938170727331765430534,-0.0213397445864975179863343,10.9464057278392168370829,-0.14932039889912662733451,-0.0179089051370839302812499,1.06285366212373877381481,2.00380396065438137753745,0.330583001523801989218754,0.453143784307317554205241,1163.79779137508990061178,1225.15793741930065152701,1205.09396771086289845698,1187.10146350190666453273,-187.202611876318599115621,381.953796177731078387296,217.562153243306767080867,-171.747532638300839380463,163.857422530903818369552
0.32500000000000001110223,-0.947671898092541042935011,-2.22705435303511167788315,0.19145316521225172468057,-0.00434990454200459130545964,0.147182403267624745124564,0.0199921710440104476169676,-0.0219601793794197037990035,0.00951306696147528885187938,0.751694325857408141011717,0.659070433939456967742387,0.126913327376110551814037,-0.021479663171291442369526,10.9547559108243071079869,-0.148419533364571865075021,-0.0173696906410258089525911,1.06575174465670863277467,2.00383844427760449136144,0.330331707195423207590323,0.455816848627875692567812,1163.39028187126746161084,1225.99805208743691764539,1205.46936975244625500636,1186.78548777242303913226,-137.724249120992567441135,245.82653445963819649478,78.2806441443425882198426,-75.4824202597318816287952,163.856580310721170690158
0.327500000000000013322676,-0.773638461902245722079385,-2.46319160121800795337776,0.18117493335326034786803,-0.0061506736428489847123835,0.140985345872566225633449,0.0201028031761229242224687,-0.022103925403305545172028,0.00968139302380975098893945,0.751703733504309079549444,0.659074100847104382694397,0.128736221393603578189158,-0.0220371377940499560410537,10.9621003418617810609703,-0.147487630482752318794581,-0.0168564007179924403578841,1.06867493755863485205282,2.00387183673650115522946,0.330082614757224612755948,0.458497096738266773918724,1163.10917012948493720614,1226.38707009159884364635,1205.48537093158461175335,1186.72405140060800476931,-99.0645945498726234745845,25.362805094482588685878,-42.5450527051452453974889,14.0501440278967368868734,163.855990118176038095044
0.330000000000000015543122,-0.471479618840236147647715,-2.64310956683232145536522,0.182225400706590850985478,-0.00817794696611931493102077,0.13294723194783819586462,0.0201592166931846561439556,-0.022255892148006686109829,0.00984064630799923005521901,0.751711758762967918734432,0.659077536396837637688861,0.130330119833155205766317,-0.0230700871979669722144912,10.9684110192693680119191,-0.14652319838210389746358,-0.0163766425644289032037548,1.07161956982995221210331,2.00390553244934865873006,0.329835839021641485935277,0.461184764845665118304652,1162.89495889851809806714,1226.1248661129093306954,1205.25664448892052860174,1186.85573849256252287887,-59.0971585156693848261966,-238.051635182227784071074,-90.9291582846889525626466,63.8455938435071743697335,163.855574911128911708147
0.332500000000000017763568,-0.136005957650873615660814,-2.69637744430034009823771,0.199434990532507905314219,-0.00965388805072450555122554,0.126095455075607626449496,0.0202379254500402727678932,-0.0224130071292413315942049,0.0099877754819202666652922,0.75171927283756811988269,0.659077982879317181286183,0.13169716119291385858503,-0.0245639495788194453518294,10.9736725833524833007004,-0.14551801019284513194485,-0.0159298206285261589876256,1.07458272688136702299744,2.00393927104494773416832,0.32959281568422582608946,0.463879700196776323384285,1162.81368433690659003332,1225.19681191568770373124,1205.03072514016116656421,1187.04327936982554092538,-10.5570142800388477866136,-521.577137860094353527529,-53.5785705128091152005254,68.7438020077933629181643,163.855473743493064375798
0.335000000000000019984014,0.285906506091729850638217,-2.64591886822681754409814,0.233396210988914554196327,-0.0106002736376207915697245,0.119440483900869393041333,0.0204410600259716003501698,-0.0225691925670724567731806,0.0101228751488993910095937,0.751727069751803700370374,0.659073950373276651326648,0.132848393354094651552799,-0.0264048024725440436122348,10.9778835283880429329884,-0.144464107376236883251153,-0.0155061333683946603323456,1.0775612692244969093025,2.00397290655847770679543,0.329354998361956585739563,0.466582233912370192285834,1162.8421738271179037838,1223.51698042360885665403,1204.98875163635648277705,1187.19945750260148997768,42.2834918603257037261756,-880.855493464741016396147,68.1087864771142790232261,43.3576003422330913394944,163.855626831320108749424
0.33750000000000002220446,0.872047602234796936926386,-2.46974138853032476603744,0.285970997240368007830114,-0.0103261838073026215173433,0.111567598279134996830386,0.0208891878555517648829998,-0.0227182440000793066381402,0.0102436861802550176203663,0.751734874446189471619562,0.659065413867616967102947,0.133838165468442599204124,-0.0285114095513884294175178,10.9810564226873790261152,-0.143350602267401788791901,-0.0150999712256828060030767,1.08055206602854236841438,2.00400571454932663328918,0.329122610245390356809025,0.46929359666020326047331,1163.02510179620821872959,1220.79253444836399467022,1205.37126907254673824355,1187.26006737153670655971,95.7732965888225464823336,-1069.04096446232779271668,231.992936974574860187204,-3.9802904064799768946159,163.856103789484762955908
0.340000000000000024424907,1.39612556687588118542465,-2.23481318497100778230902,0.330176892798872467782445,-0.00837268193184938225304137,0.105125885436100144354477,0.0214268051876938363242697,-0.0228485312722512719230128,0.0103515329362382068473236,0.751744009587917871861862,0.659052662285715795675856,0.134769502807266877697501,-0.030662534223318972659289,10.9832175376132745725499,-0.142163291460287721790223,-0.0146922277490354642737191,1.08355237322339625904988,2.00403679220808772498685,0.328895491539115736312482,0.472013755690192549074879,1163.32104031006201694254,1218.17177560129721314297,1206.14871632122935807274,1187.17955605056909007544,153.822351624785227386383,-1041.68123700796877528774,406.26059752617004505737,-56.4188649855167980717852,163.856744577844835930591
0.342500000000000026645353,1.90496583120697593471959,-1.92859482086768285746814,0.359878135231140039440589,-0.00459436048192456755051571,0.0994293774890438464275633,0.0221578322766989577186081,-0.0229556926915967310365296,0.0104500753361889252984751,0.751750694093425875230707,0.659035984551451181623349,0.135601336140771772109659,-0.0326989505540820415974146,10.9844088708010545474281,-0.140903586013155002198971,-0.0142715289487660018652448,1.08655722350050121249865,2.00406612680270912463243,0.328672612721060908302917,0.474742648778699927181179,1163.79421355433214557706,1215.5841282633241462463,1207.40257206017759017413,1186.97797304660912232066,257.764796623359643490403,-1028.8363096868115462712,627.787539743621323395928,-107.875166803296352213692,163.85763601839184389064
0.345000000000000028865799,2.4278500461305814184243,-1.51837141111754192479566,0.358453357411815221045259,0.0018929436688020512963293,0.0942258372412796973982552,0.0233740204134557545689876,-0.0230350530452114385382423,0.0105429305256383998301573,0.7517558531387080744679,0.659015670802594044630496,0.136315243179101402981601,-0.0344568374903512844587006,10.9846854139912721848304,-0.139572495778520794251776,-0.0138257098298668092140051,1.08956191104007604764092,2.00409315615188310388817,0.328454158830503106791809,0.477479865199666564379299,1164.60986429317881629686,1213.02759405286315086414,1209.28765401994746753189,1186.64018021655260781699,348.18253959792826890407,-778.722664397036396621843,710.797718807679530073074,-136.272104517865841444291,163.858992479422198584871
0.347500000000000031086245,2.73940396986347289853825,-1.17673042361716162496066,0.311951869331858311351624,0.00882160528722191437933642,0.0914533535366684885437039,0.0245631912575954534927458,-0.0230896302623092922190473,0.0106326202598364897428107,0.751760996730744590621498,0.658992220657386940096956,0.136798145980168622815043,-0.0358994952324274210764266,10.9841152391196441584498,-0.138182322359740178407961,-0.0133557788316792484806239,1.09256050491876277597214,2.00411724123234069594446,0.328239587571709012792098,0.480225260959807276339717,1165.53512625232178834267,1211.69051494133896085259,1210.95656065421599123511,1186.296612524019792545,431.384072519858420946548,-313.15107943232732168326,626.179169232636354536226,-157.09423282955853551357,163.860359033337289247356
0.350000000000000033306691,2.86974157549018116242223,-0.875871229142038631998446,0.205644037224188308554673,0.0169536484383134011810768,0.0900514123719585168892365,0.0256042991661405185122025,-0.0231262980536598092284883,0.0107256751575684258076526,0.751765273963783786648207,0.658967679111725601615035,0.136832029107687297431184,-0.0369756574798869655507083,10.9827777106400716888857,-0.136757912272647857987451,-0.012862629901194324449909,1.09554612312709354071671,2.00413785205023575741734,0.328028027811148481518444,0.48297964484952971009335,1166.76678465577811039111,1211.46183865570151283464,1212.41854986611065214674,1185.85470905240481442888,550.391118446083169146732,110.769607086559744857368,509.166267792948644910211,-208.989905161254085896871,163.861966756750717877367
0.352499999999999980015986,2.82412377558405625066484,-0.630216295926097402890775,0.0452116469411340191064674,0.0254672677730533314477412,0.0894106008998715173774485,0.0264999507209980229849311,-0.0231521804363489895617345,0.0108338572612151871898956,0.751765038775837113327327,0.658946465188631869125402,0.136136943467893789527778,-0.03754675621780543398609,10.98076085642200361292,-0.135332732346810896695288,-0.0123396843418557104754552,1.09851179649335994881199,2.00415549909260359839891,0.3278188202282444341229,0.485742116414393576562247,1168.28708184455217633513,1212.24436297677175389254,1213.5023919931807085959,1185.25166299821353277366,681.885609640001007392129,547.131680901116965287656,312.458405260943891335046,-309.08187398272593782167,163.863771018677226720683
0.354999999999999982236432,2.55890354923649088192406,-0.460469885929156497184067,-0.178108151464643926775722,0.0336598834161178292467831,0.0892130529718236642278129,0.0274645601279587606158294,-0.023168260833659561070963,0.010965986758757326549607,0.751758989206186001297283,0.658930125726469473335101,0.13459698901051242447835,-0.0374357287991150880501756,10.9781564739077612813389,-0.133926776446676470966324,-0.0117751879417255338189374,1.10145335763645446647274,2.00417087767664003905566,0.327612703254762438476178,0.488511165444807049507148,1170.17621270397808075359,1214.1974970602070698078,1213.98084189241535568726,1184.30929968249120065593,912.015933286556105485943,1081.70322120108630770119,67.9911922943119293449854,-527.956804254653889074689,163.865807723492309833091
0.357499999999999984456878,2.01117039504242489655894,-0.334775895850765059513776,-0.498247577033573085802942,0.0420388124185583217373718,0.0889619144515364917991107,0.0283939624436164057830201,-0.0231782686999640920311183,0.0111229855870216380597792,0.751747466118597329476358,0.658918196896872698786751,0.132185032019792259028179,-0.036637468784045230940638,10.9750584222332516759479,-0.132554066365643596903112,-0.0111734944675089369059418,1.10436822271818724239267,2.00418468314815578779076,0.327411319763027564011537,0.49128620945140327735956,1172.8471615109849608416,1217.65287908277718997851,1213.84234795465226852684,1182.61187897694026105455,1034.5104250440717805759,1398.85492618636703809898,-145.600410489714562345398,-726.581523139793034715694,163.868514904916793284428
0.359999999999999986677324,1.40444598324570191216765,-0.275217878723435449561663,-0.774219968493073396054172,0.0470279800773454326190404,0.0884482821367534310930125,0.027969786807299768655044,-0.0231829185755244755740012,0.0112962099714252958704286,0.751729719165404985936618,0.658911870289528023292291,0.12908047258772831211715,-0.0352603800113295909324229,10.9715587335191457896144,-0.131210491192490369405377,-0.0105505703779726206503753,1.10725674107753846442392,2.00419696073504427502598,0.327217151272790884863895,0.494067197546494030202524,1175.34876482919844420394,1221.19177169113891068264,1213.25283983996678216499,1180.67639206679223207175,1033.60659271679560333723,1480.22507470100072168862,-284.379244563296879277914,-861.442315436851572485466,163.870986556774738573949
0.36249999999999998889777,0.710027344454366993176109,-0.23117888227821570268361,-0.996889366983123581533732,0.0495471727269972475604654,0.0874147166637965072899519,0.0249842419165848053652645,-0.0231802408504120996401987,0.0114767465059998109710993,0.751705750811565875935116,0.658912071233264340364144,0.125528116649664650550378,-0.0333810827067850604543686,10.9677465652782029081891,-0.12988743207860928285946,-0.00991849631426184805138568,1.11012044596584091848968,2.0042069406984874824218,0.3270334847275410683487,0.496854891283205479801666,1178.01519447456894340576,1225.05400445628220040817,1212.42045173183578299358,1178.30466739975599921308,1176.27684736080368566036,1696.1524360237019664055,-357.16388692358088974288,-1078.28948265478084067581,163.873678323804938372632
0.364999999999999991118216,-0.136054885102209838221299,-0.162436874842394884943531,-1.12766815922693641738306,0.0497984745456684710362971,0.0856221471309664694526731,0.0192240353266377866914283,-0.0231714968094030374090586,0.0116576295512691545386286,0.751679191525724599287628,0.658916291112541463448338,0.121706833878689468786405,-0.0310980654656858937490149,10.9637070987695501855796,-0.128584156864714943546701,-0.00928955224612342325696268,1.11296039631889831511558,2.00421350610673743020129,0.326860411964447095112263,0.499650308697577760774777,1181.23014906600246831658,1229.67253387125742847275,1211.46702040534887601098,1175.2849446535183233209,1155.93856881132410308055,1645.92999252677009280887,-302.500576790452839759382,-1071.80700883591180172516,163.877159280650033679194
0.367499999999999993338662,-0.790091386142405149861645,-0.0776198817042456218340263,-1.09045351521272615435976,0.0478409997001795969651106,0.0840146082531024324113744,0.0142570890932295617908876,-0.0231596778134363738554935,0.0118323689481151985564145,0.751657104052672164762328,0.658919274679414579409809,0.117772372186461582455053,-0.0285351633592247702631006,10.9595186282812697697864,-0.127302254214598536963265,-0.00867660689446278152181513,1.11577784285125680696638,2.00421577906905046262409,0.326695825925420457735981,0.502454003180010544404865,1183.7948873186255696055,1233.28365441891605769342,1210.9079488478835173737,1172.94563235557643565699,974.758376645558200834785,1359.2282459534078498109,-148.006497063852151541141,-824.752203567822334662196,163.880266908955150029215
0.369999999999999995559108,-1.32952875895768984904066,0.0331932341871066238780941,-0.901245744788830016602788,0.0438684009920784212521738,0.0830843715117424858052075,0.0101199552339985808513401,-0.0231517816803930333302564,0.0119929533610232900292525,0.751647064899895411826947,0.658916663355883058805773,0.113843817630941368523878,-0.0259052939102809090532453,10.9552504893299413879504,-0.126045681541782778056771,-0.00810058705031292333731407,1.11857428701873495846542,2.00421384286812509500919,0.326536453526496295296511,0.505265119933205553159894,1186.10394094923026386823,1236.46867510102447340614,1210.72698792002961454273,1171.16118363567920823698,924.888145604381065822963,1279.27583403224957692146,8.09269008705086179134014,-597.649118297703694224765,163.883587124745019991678
0.372499999999999997779554,-1.79735592106355546171415,0.170070750488706762260094,-0.541298603834539981960461,0.0374405741148373036319974,0.0830997166641505857764827,0.00670509517181350038483867,-0.0231547103102977061550583,0.0121279818509489947797597,0.751654246030911021847487,0.65890784540307723027297,0.110092306511903853527556,-0.023480557111088463939641,10.9509602267280730103494,-0.124810663410638775228101,-0.00758810145648677533691817,1.12135277337742023107126,2.00421005967411058890093,0.326381058920362565611839,0.50808261584452873993456,1188.41932804664747891366,1239.68003358907731126237,1210.94841229831877171819,1169.95738676408791434369,744.309644143594823617605,1064.32886033166960260132,136.099087749334898944653,-268.191654934207463156781,163.88781533531081890942
0.375,-2.02439744895554474268806,0.260475786769577888346561,-0.18220828697431623588443,0.0315611079730873239634903,0.083642236792724145022504,0.00571792665372131397177879,-0.0231740006722802940886119,0.0122284994154519544018456,0.751679827691725366278774,0.658893097020990414769415,0.106670612787162943924102,-0.0214806841594057454369882,10.9466923298205145442807,-0.123592152113578504502023,-0.00715928347780566895486309,1.12411721848793333400351,2.00420725459415072222669,0.326229900553723584089028,0.510905014642901389443352,1189.82548916994824139692,1241.79031940268282596662,1211.40748335877628960588,1169.82022536100816978433,409.964129412082570524944,712.206383812280591882882,204.351989481801695092145,113.360604226227124513571,163.891540883466063860396
0.377500000000000002220446,-2.09115353240219148389656,0.292674362978804447621428,0.166952451698024639803464,0.0262125995774536227345131,0.0843761502663964435555499,0.0069348769208174565470415,-0.0232147116859659045917663,0.012297776979535575761493,0.751719108398713919960699,0.658873367006710397575375,0.103550903350882655962195,-0.0199257638190554267620946,10.9424777779087918361256,-0.122399953702904545904673,-0.00681270227246784376706756,1.12687055677637770756405,2.00420645291955201727774,0.326081101274088791530659,0.51373156695065635979347,1190.46914869370789347158,1243.24106550813871763239,1211.9701722457277810463,1170.52418978521905046364,94.8482549610615990332008,456.578957874944137529383,211.346890156937462279529,393.001272970468221501505,163.895473833224059490021
0.380000000000000004440892,-2.04308780092351094381797,0.251980276983404249957488,0.460771823875781250112738,0.0216467219982464618988072,0.0853886707035634712203986,0.00959618763938996539863968,-0.0232808294688953004714094,0.0123438020812571373763245,0.751765877885608890807134,0.658851366926270998192194,0.100640498642796727413184,-0.0187532809658825030951768,10.9383324148757417049183,-0.121246661770393698853709,-0.00653689376943897976213194,1.12961570692651269709472,2.00420745073924289059164,0.325932137179711034491447,0.516561290047100385436352,1190.29973044475354981842,1244.07321419205754864379,1212.46421780956097791204,1171.78523172586051259714,-298.67932882771100366881,163.583615235120163333704,149.378845906221471295794,591.298252697787916076777,163.899576156030093443405
0.382500000000000006661338,-1.87868957183201135130446,0.0969917333223425520705163,0.654613290925010082865754,0.0177576580050758901785368,0.0868409846229820092666785,0.0128533126565132400226377,-0.0233731467969189067590552,0.012372593929732705192448,0.751817639575996676803982,0.658827061157715276884517,0.0979104704727916941298105,-0.017902485429101812342001,10.9342562406481675907344,-0.120134484687445752815194,-0.00631766004250210178039282,1.13235649670585769577258,2.00421184521283013424409,0.325782267173165884788233,0.519393922736589463973189,1188.97575204956933703215,1244.0589835843143191596,1212.71706647525888911332,1173.48068104870799288619,-862.821393356715930167411,-222.936455920080135229,32.4488614144683822360093,783.631289070717002687161,163.903878430634421192735
0.385000000000000008881784,-1.56347834024960197218945,-0.240840170450108775890286,0.766154859610150507087667,0.0133009636242179419413079,0.0884930814087970807335637,0.0161215013972237190820191,-0.0234902764368622660184904,0.0123900230903635031470822,0.751871272837141169098629,0.658802011354597816250589,0.0953477772775264131865924,-0.0172938929112104802787719,10.9302346627848123716831,-0.119060261168356620875564,-0.00613814080687980281880733,1.13509657431296440144308,2.00421936929049904208,0.325631571404970621141928,0.5222309567859094725506,1185.98562347796996618854,1242.95853191245714697288,1212.62646211663331996533,1175.70338817121410102118,-1307.44709796458550954412,-588.135580165225633209047,-99.7438076970410349986196,808.684936337612498391536,163.90926532530119175135
