t,ang acc x,ang acc y,ang acc z,ang vel x,ang vel y,ang vel z,quat x,quat y,quat z,quat w,acc x,acc y,acc z,vel x,vel y,vel z,pos x,pos y,pos z,mot 1,mot 2,mot 3,mot 4,dmot 1,dmot 2,dmot 3,dmot 4,vbat
0.0025000000000000000520417,2.00729904265599712331891,0.0479732898700140977799045,-0.334119715743439071875542,0.074276779608536458443524,0.00907428941533348562553662,0.0270528151451298153051805,-0.00813017158407003913411781,0.00909191450682128241012059,0.997952438041321610029399,0.0627854377051522971608932,0.124228543275698710690591,-0.0533216558982721466897203,10.3064485414231210569369,-0.0743698261470294164077188,0.0897979515385890630918553,1.17758622998743489596052,7.32515383019445831536132,-3.46769746076835216896939,0.610259508863710831150229,1193.15975406723759988381,1192.84005634866116452031,1189.77950284710755113338,1206.88870233755528715847,543.076674199073750060052,421.149852519010892137885,312.482117658055358333513,-670.807836741369101218879,157.879925814911644010863
0.00500000000000000010408341,1.82706360406375001304013,0.475163875928622858602068,-0.365035080434522207770698,0.0809015793840304475725844,0.0111777219130015318532267,0.0254685103415560332162926,-0.00811081389978826963749192,0.00920223615258144826689612,0.997953402530222910549185,0.062756295774097678452641,0.121330088804739694152701,-0.0523159453868947271759637,10.3133629941558506715182,-0.0737171715633768154241068,0.089753573197310629327994,1.17875377019382532317593,7.3252635961803260755687,-3.46788542034456304108403,0.613215984345098497065862,1194.51744575273528425896,1193.89293097995869175065,1190.56070814125268952921,1205.21168274570186440542,496.190708900940137482394,409.83999498794224791709,198.046546191199041686559,-615.228304768061320828565,157.884756354934665978362
0.00749999999999999972244424,1.60306826433545279719795,0.783473380208404068802963,-0.363188702368711535672929,0.0862338021230593804178355,0.0138867751191878458644213,0.0241615862427950710278335,-0.00809121343739446427512085,0.00931205525260953882737969,0.997954294191416568793329,0.0627283742484613521250836,0.118415723469144140711506,-0.0513214511410590989992642,10.3202510363911788004998,-0.0730626931796488354731167,0.089707732234882764377204,1.17992519848296750772931,7.3253729443702040313724,-3.46807265993159896666498,0.616174085556769335347838,1195.64070761174230028701,1194.88925632360087547568,1190.7697355780635461997,1203.81256081371498112276,450.566937019493707339279,385.519021510026504984125,-11.1916563520026102196425,-564.066795922281016828492,157.888879623778507266252
0.0100000000000000002081668,1.3023968541766275386351,1.0276552332553396951198,-0.334629653882952515786542,0.0906004144285631890509691,0.0166481205648021310383733,0.0229932313605575519566138,-0.0080722841597772737598504,0.00942038574211123691526382,0.997955045603773682749704,0.0627027262084074998860217,0.115449705206434632964729,-0.0503633056942231829844481,10.3270831405320571150241,-0.0724076549743977032624898,0.0896573657016586367252131,1.18110347397571380234638,7.32548201006722976558194,-3.46825933687976162289601,0.619133963462938918809186,1196.77028043783275279566,1195.82052608750882427557,1190.50474985949267647811,1202.39134876609045932128,494.370792545578183307953,356.821400549506449806358,-212.308155677555959073288,-634.109165039717368017591,157.893099455097342342924
0.0125000000000000006938894,0.875465981326733921896732,1.24853186872757193626171,-0.27996538759229572246312,0.0943694954252224521562553,0.0198073260813968025917386,0.0218046487085626558566354,-0.00805736097308478067813287,0.00952789962726835644446499,0.997955622286841870227647,0.0626793188842984516639945,0.11234077397185698865556,-0.0494365774970652732678289,10.3338160044403384318912,-0.0717591716422284059406778,0.0896030196744590223811855,1.1822913936107184440516,7.32559122672445628410287,-3.46844565164318430205981,0.622095467285680103763923,1198.11256157447019177198,1196.67336332634840800893,1189.70819479967576626223,1200.64201498851639371424,477.670440757401649989333,249.737649143980917187946,-352.254051199997832100053,-646.451699998442677497223,157.898269816940626242285
0.0149999999999999994448885,0.491406448649675031692396,1.37729934539165488338597,-0.229290477459385438896433,0.0961488020412306632067612,0.0225163715207263200046572,0.0211276688262880402158217,-0.00804977277342593111608693,0.00963506023463291463859726,0.997955998607204519679215,0.0626580279574597137637326,0.108996257750062774949384,-0.0485409138030819670150962,10.3403908683564651482811,-0.0711246136030131009819755,0.0895447457846701988515292,1.18349206948909824177463,7.32570072178322995171129,-3.46863169221956013643648,0.625058214205663320583994,1199.15863264161976076139,1197.0692143332287287194,1188.74347960349268760183,1199.15909026609824650222,378.344924865314112594206,86.2252183643704341875491,-419.138420157378220665123,-585.541146198784076659649,157.902664279452181972374
0.0175000000000000016653345,0.115272448544795277913799,1.45014290564715242481952,-0.190123629204119626301406,0.0964241180328676839028645,0.0255962066461793320837348,0.0208803582434687814983754,-0.00805140669181860120506844,0.00974261232839083828050075,0.997956173258167322792644,0.0626385023562803094909768,0.10535289378895326684038,-0.0476684262162884730962276,10.3467324476549755729593,-0.070508528091393213310667,0.0894835578581547053111933,1.18470878647959176888094,7.32581031731432297249285,-3.4688172535900405613063,0.628022890100870201379735,1200.00428619879676261917,1197.10448941817026025092,1187.61250269888887487468,1197.7143092575224727625,282.709870444295972902182,-37.1288826191630434436775,-458.661057192784824110277,-553.865193989122303719341,157.907145137586269356689
0.0200000000000000004163336,-0.227932015432372958585461,1.47315294079884639977251,-0.172148833141884921582587,0.0954953703220310506916135,0.0290028084053452900326064,0.0209532811138707399101211,-0.0080639698861809088609176,0.00984925639462489767306241,0.99795612477408590645922,0.0626210643783509518511821,0.101355833165366837622656,-0.046852951165583113513069,10.3527492132184661954852,-0.0699156714751287267084479,0.0894156885496227848975082,1.1859450434001268526174,7.32591930586961748161912,-3.46900175992249959477931,0.630989508535440557501772,1200.57218199384124091011,1196.88356992013291346666,1186.45017431752876291284,1196.38976429615263441519,135.856542706733364411775,-125.486461003401984726224,-453.198481952586234910996,-472.97478009732026293932,157.9116962587881687341
0.0224999999999999991673327,-0.508940071962915796532911,1.42896827603854137400674,-0.188087610384146508568648,0.0935330490948290682595712,0.0326472484701760407022064,0.0212544955307301663971487,-0.00808738456494699844978591,0.00995365686402649094133288,0.997955800765404354990551,0.0626067754857595332174114,0.0969911228512879419749737,-0.0461265246046173235661136,10.3583334601793026763517,-0.069347690629330285827514,0.0893375748408012232415487,1.18720419807222943298086,7.32602651982247543571702,-3.46918466396156643938298,0.63395864791622003053817,1200.68356891233042915701,1196.4770571131532506115,1185.346510289125944837,1195.34943535703587258467,-77.4385533291024188429219,-180.637509129610378977304,-459.968316267168006561405,-358.456347461787970587466,157.916331180291450664299
0.0250000000000000013877788,-0.763755373052220964957826,1.29043320698248731304147,-0.24491742316832487702527,0.0907246206931555665420319,0.0370578202353949101577335,0.0215186015554570883590024,-0.00811814228292757553151482,0.0100559511673243406199019,0.997955284803260789239232,0.0625947460597801180748334,0.0923193862900297812501549,-0.0454868609652595221048976,10.3633621260050841073053,-0.0687990355402550990415733,0.0892499640736299920673602,1.18848925111357051065397,7.3261309129811991169845,-3.46936608876515784061212,0.636930682663632397044751,1200.18498922719572874485,1195.98038237448486142966,1184.1503327361929223116,1194.59748255884369427804,-293.176750543943796856183,-154.496683742900103197826,-418.519707300993047738302,-180.040607438922933170034,157.921989689717236160504
0.0275000000000000001387779,-0.912853434608729585875153,1.10229079050147649176949,-0.312301469197734160587743,0.0883557273335733445174256,0.0405076415904582279314816,0.0212924962627075164967039,-0.00815077913560549420501911,0.0101567362235382551566287,0.99795474940573269950761,0.0625828580324551408953226,0.0874482356465791366151308,-0.0449198667896996625681361,10.3676989399422385673688,-0.0682602617395246941134346,0.0891551587124133904094236,1.18980275999764661953861,7.32623150587012883505622,-3.46954622902107878701372,0.639905761928945882033304,1199.21768515961070988851,1195.70457369443874995341,1183.25391175262097931409,1194.44923231984125777672,-493.657242312656535432325,-56.6577432356098427135294,-349.371290142062377981347,30.8288840081786617020043,157.926786057597865919888
0.029999999999999998889777,-1.01270729654856816992492,0.845387880447773687464519,-0.377178344108979213267219,0.086101272192992878151685,0.0435763161762921860664655,0.0203863371852242014625745,-0.00818057099290206597708153,0.0102540247834365227247444,0.997954297621588826139316,0.0625704164086249153831076,0.0824816500150342135633252,-0.0444653323730180294326431,10.3711974317956272528818,-0.0677240968470675247514734,0.0890490531148556002660754,1.19114701670880873685121,7.3263273537254631762039,-3.4697251388200842647791,0.6428834756655303905859,1197.71670301563244720455,1195.69709365830681235821,1182.40347628548261127435,1194.75162697888458751549,-756.731350954942058706365,68.9713561086136763833565,-383.091878601362566314492,192.61986787091697692631,157.931667542957086425304
0.032500000000000001110223,-1.09815394746887329269214,0.479477946822421674522019,-0.421490333848978604436297,0.0832847225848847849682954,0.0462167724888558062446009,0.0186456543715962479168535,-0.00820827368574550929325451,0.0103477802446397797869748,0.997953948394454504189355,0.0625570202818306470016196,0.0774161220611088163323643,-0.0441296620607071268804766,10.3737037323007026401456,-0.0671968082453020670863353,0.0889313394708159676849135,1.19252255239986904022942,7.32641833122670416145183,-3.46990257203837648702915,0.645863540944066838456195,1195.43402840483599902655,1196.04943047498181840638,1181.3384523596141661983,1195.41233165919584280346,-886.685755378675025895063,183.446045895152394678007,-409.270123435589653126954,243.239957581863336599781,157.937625154326553911233
0.0350000000000000033306691,-1.15556097483150388427475,0.152264082014564899880682,-0.412123017016141846013966,0.0808237244813697214285142,0.0471121233720866450234155,0.0167886306269028860727044,-0.00823894700519980580089019,0.0104389402941308905015116,0.99795376048718820172212,0.0625409074953997973222997,0.0721657211256946928834566,-0.0439049974043602964091093,10.3750595827188512032535,-0.0666945728607706428414659,0.0888035878512927062677917,1.19392836561877291323697,7.32650525046982625809733,-3.47007872605666944920699,0.648845587540936130643843,1193.28327423873906809604,1196.61432388778257518425,1180.35712566830466130341,1195.96782676679390533536,-867.962318393438636121573,261.814067365094274464354,-413.784546592023843913921,160.375293807464998963042,157.942673955623916981494
0.0374999999999999986122212,-1.21301857464235984807033,-0.161423102514265448537145,-0.344210355181340021957226,0.0784284593811537811269829,0.0466172814633421528363044,0.0148487316460030882581123,-0.00827567585637590738545377,0.0105280950864455533078079,0.997953832989623146332292,0.0625199910289996191314899,0.0666930934513533246743577,-0.0437881463628961159484376,10.375105459901011073498,-0.0662280508947691165522187,0.0886669381091091529656367,1.19536276158502596800304,7.32658908453132085014659,-3.47025354583051726109488,0.651829688898783454753527,1191.09421681286880811967,1197.35850081180728921026,1179.2695296266540481156,1196.21420812823316737195,-923.310769716136292117881,334.155175026717358832684,-485.547004051614067066112,-22.9757689631242207894957,157.947811031435293216418
0.0400000000000000008326673,-1.29166031590829399888776,-0.483288593074955641348822,-0.20282362373585305359569,0.0756582308414830428944242,0.0448645613281344543543661,0.0131543723440732743257264,-0.00831759131224916320457297,0.0106159443020259255247018,0.997954167771201161585282,0.0624942315290010694250888,0.0610487880536803792508316,-0.0437679808190835281656028,10.3736845307402365534699,-0.0657977157666526646373484,0.0885232273449523127117899,1.19682328527986747701561,7.32667069219037081495571,-3.47042688600239879193055,0.654817089846515543172245,1188.66672039015838890919,1198.28509976291616112576,1177.92939064804659210495,1195.85294792197828428471,-830.9294000768197747675,316.830160285007593756745,-474.371444724146897442552,-266.738614193536477614543,157.954078453194057374276
0.0425000000000000030531133,-1.36448094716472301257681,-0.685645127093983730581783,-0.0534064820605593473801243,0.0730780206164411694214067,0.042775596494121735646754,0.0125988112763910208719009,-0.0083636508588260782132151,0.0107033800672800324255141,0.997954749077298752801823,0.0624638646428125193788006,0.0552909137336266634510373,-0.0438291469621082882546226,10.3706473399776690769158,-0.0654023744760948572141146,0.0883748068809607489892954,1.19830610795163416959497,7.32675130533331753213133,-3.47059899876336164226132,0.657808574076401475494436,1186.93956981248470583523,1198.94265161323232860013,1176.89767240303331163886,1194.880515057265483847,-616.07019469011027013039,205.881170063594368002668,-367.19273615863147597338,-528.409522227821298656636,157.959387548075625318234
0.0449999999999999983346655,-1.43349748524697262475058,-0.807118721598508725989518,0.0988312780519975120352427,0.0697258807220575149710129,0.0401271132012111855780212,0.0129941134165850805115561,-0.00841330618016412901116752,0.0107904382105362926791425,0.9979554849248203352019,0.0624304281133406455128743,0.049470709787047942307403,-0.0439743992326827592975746,10.3658563174582170063331,-0.0650407116580402205885392,0.0882217937231757481919558,1.19980613603117491905437,7.32683197853274137401058,-3.47077004669375055456726,0.660804467130708839128772,1185.58636941670783926384,1199.31450561323413239734,1176.09342696725343557773,1193.21090031083917892829,-516.946984754440791220986,64.8333767393524169619923,-285.83202057807301343928,-858.66842276855140880798,157.964786492238005166655
0.0475000000000000005551115,-1.49300051829242041989687,-0.861381231411444625578611,0.251023575638879725691055,0.0649281890185510607294006,0.0368201724092279969458019,0.0143343633143384868028347,-0.0084645526692152597836305,0.0108765202366820669388492,0.9979563290549094967119,0.0623950375864505482614852,0.0436703234476361057403437,-0.0442178138826443620224005,10.3591899512487515266912,-0.0647064968881056051808187,0.0880630552467729088572668,1.20131726674272276689237,7.32691373808545343138121,-3.47094010208180314691617,0.66380424163660545211485,1184.354834888712503016,1199.26681849692909054284,1175.46851230014294742432,1190.5871729434227290767,-404.783404007457306761353,-116.948094740609931818653,-180.24813669162523410705,-1019.54937754394359217258,157.971369166439387754508
0.0500000000000000027755576,-1.51307842978221018803708,-0.843160157613747518468017,0.335056168246612495753567,0.0606869736452884875332892,0.0344172596446149781090895,0.015831521844599186904512,-0.00851487144460405173673756,0.0109602169628904705378503,0.99795722885856208428379,0.0623591266622825213250536,0.0379815252522584800853878,-0.0445892922357470217198383,10.3505469669729119885915,-0.0643911722863159258212207,0.0878955333236687563758238,1.20283235450733383409272,7.32699686162760510654834,-3.47110923094063217320127,0.666807736297389208601771,1183.56245239667055102473,1198.72976513953108224086,1175.19218628379530855455,1188.11315342311945641995,-298.072960929357748227631,-327.892741133473634818074,-91.5836544579179161473803,-984.307750314792883727932,157.976941164528398076072
0.0524999999999999980571097,-1.50036464210329811841405,-0.783685721390815603903945,0.366565566872831483102857,0.0567750301972145543505377,0.0325454742624091547531506,0.0173588670206403020146446,-0.0085630272507706169105024,0.011039803108240792139938,0.997958145696292486803713,0.0623237924058614167766024,0.032466065211039937810078,-0.0451265132513884864584597,10.3398499946641262425828,-0.0640884908166639427617994,0.087715199594490242396283,1.20434291472918375554002,7.32708113765660229432797,-3.47127735939419190813737,0.669815204894492643994397,1182.86447008406571512751,1197.6273547912617232214,1175.01059402785335805675,1185.6656341918487669318,-284.577739018232193757285,-532.48477733436652670207,-90.8861431893911202450909,-927.289775295412709965603,157.98260236746239115746
0.0550000000000000002775558,-1.4652627808521163643718,-0.710576196683369576412304,0.357904760395227838909449,0.0531371144072073087194497,0.0311837485348302606569248,0.0186330953386866227106111,-0.00861047169440253348793313,0.0111139171115214284435435,0.997959020743699243283231,0.062290023358563539890298,0.0271246541399449390963294,-0.0458623101560178755842223,10.3270485592407865738096,-0.0637984017246336354567404,0.0875184259245552070849428,1.20583884797632756580299,7.32716604714866726055789,-3.47144418553772915458921,0.672826969487263060187843,1182.13956370157939090859,1196.06734125285925074422,1174.73775556784835316648,1183.47670454664239514386,-313.43910374343948888054,-718.79364690275838256639,-170.998915603376957506043,-767.924247067639271335793,157.988336921839561455272
0.0575000000000000024980018,-1.41225387542923397354855,-0.642103755473970139178164,0.313110079231833760005088,0.04984792910292694390062,0.0303189406424452349841925,0.0194752786684574928643965,-0.00865726359904976996983983,0.0111831588518757785860602,0.997959890801655813419302,0.0622571174156106160735291,0.0219782312049394204511721,-0.0467864848693034657278744,10.3121212668832882286551,-0.0635175440189219980835489,0.0873065855099993681776027,1.20730868780562095032849,7.32725111923498140242828,-3.47160957950077397882183,0.675843836396094022056502,1181.29727456534851626202,1194.03338655674792789796,1174.15559944983647255867,1181.82601295651056716451,-405.707389404642754016095,-970.329689652453907910967,-361.091358289240986323421,-568.838029959488494569086,157.99415886166815425895
0.059999999999999997779554,-1.33893579064916945497998,-0.580690180279515577588256,0.237350661876937457650527,0.0466996371503099610977827,0.0295167239790748957284361,0.020037399202560271516127,-0.00870448011203362771726066,0.0112490015319709774771484,0.997960760014878434098762,0.0622246039757814728421437,0.0170195013111784296255813,-0.0478708377501605095161175,10.2950775507967033917112,-0.0632453903906928377454122,0.0870828341530792415792206,1.20873967731761200461449,7.32733604936347582281542,-3.47177390978188027403917,0.678866937659788782788439,1180.11102675455617827538,1191.2156928045969834784,1172.93229877640214908752,1180.63251439684495380789,-461.263569777747989064665,-1065.80656049686740516336,-540.669491405970120467828,-304.942081879971908620064,158.001244406617246340829
0.0625,-1.27214825759103722369048,-0.547272564926321258838016,0.169244880103200406873398,0.0444100569786075663469838,0.0287635732858418889656971,0.020230330275834904757426,-0.00875353887289711737884623,0.0113139617835366149134479,0.997961576911753356355916,0.0621926787094519914478319,0.0122269885692320202930095,-0.0490646210115965111797642,10.2759582199685421954882,-0.0629828648494926146561568,0.0868525631665925668123407,1.21011813646750177042577,7.32742059385708000007753,-3.47193702150291816366234,0.681897555952257428124597,1178.99095671645977745357,1188.70435375426359314588,1171.4522519928066230932,1180.30130254711070847407,-465.278197848237653033721,-1004.70812608700634882553,-668.865182845501635711116,-21.1001352485709325890184,158.007230059081990702907
0.065000000000000002220446,-1.1899172654842828933397,-0.521320078173780565577999,0.107744328731973065815808,0.0416555121040484838124129,0.0276496312056942888935041,0.0202574496414987363646087,-0.00880471824195478564023531,0.0113818908547217382404293,0.997962344017097602311139,0.0621605987825301006810541,0.00759541378904766278923333,-0.0502869395836506166697077,10.2548349281534925125925,-0.0627286904369252079627373,0.0866245042852563512658648,1.21143010022160413363679,7.3275052745692805800104,-3.47209912735969794539415,0.684937120908231555915791,1177.78463576531498802069,1186.1921521741619471868,1169.58797286217463806679,1180.52701372060209905612,-536.362589470126749802148,-1078.20337923585520911729,-864.794251341572021374304,167.511521684127586695467,158.013297435523810463565
0.0675000000000000044408921,-1.05212354541935715346312,-0.478291817606292135600654,0.0489228676450282132237568,0.0376769553572982307532158,0.0258040562016360330854781,0.0202040650778052485736502,-0.00885803763833653903803089,0.0114554264894717681283476,0.997963019856878963409486,0.062128591631177745857606,0.00312184037909513448227905,-0.0514797842195579558044471,10.2318086648563078000507,-0.0624815444297933952899626,0.0864042550161961964150237,1.21266240412976689100333,7.32758997432143122097159,-3.4722605973815534596838,0.687985476122323191816577,1176.30914376910914143082,1183.31333685808431255282,1167.12828073609875900729,1181.13886015553134711809,-537.213813310062960226787,-1023.8738856923637285945,-900.541850007993275539775,224.765006423149117154026,158.020669442888049616158
0.0700000000000000066613381,-0.892588544623731272587008,-0.418929659053728808970618,0.0140385467538248851632199,0.0344100486701480606788195,0.0240505225658701193847122,0.0201372375793323031556437,-0.00890933826057816596888372,0.0115313811819689766152708,0.997963583971889667267874,0.062098184200525076426036,-0.00110754537797683183519837,-0.0526967019203914352476481,10.2070074274956912319112,-0.0622300552804306295051617,0.0861837010359256527891603,1.21380477856319624052617,7.32767354273946658338446,-3.47242171343028172003642,0.691040566684844259626175,1175.09856669876467094582,1181.07278274570012399636,1165.08526361213466771005,1181.65083875271784563665,-476.634314272406300005969,-865.123532392546394476085,-773.669016072200633971079,136.071142557375679871257,158.026885967650116526784
0.0724999999999999950039964,-0.685462715430201985356007,-0.327535354325785676987692,-0.00732422849131024802926682,0.0319179101757966349195428,0.0225934433762980529936115,0.0200782502001632529031738,-0.00895457770366149888308094,0.0116034843623196819162313,0.99796390950629187965859,0.0620731531712819736834597,-0.00500802213373839621990413,-0.0540509654334258154984028,10.1805816455537261333575,-0.0619637853942061334056035,0.0859469697244996250207194,1.2148495438345099373123,7.32775470770429127043144,-3.47258236871639747178619,0.694099845335665377454859,1173.92597219774711447826,1178.98771919612158853852,1163.25993565573776322708,1181.81921586831822423846,-513.247587137403684209858,-894.505638474767579282343,-719.959202057317725120811,-71.2849548767282072958551,158.033174902127626637593
0.0749999999999999972244424,-0.396872678215134888635163,-0.18506760066617278237544,-0.0208532918197497953161079,0.0300402235927033807449948,0.0215526383059536918995747,0.0200287388789118052379035,-0.00899214068985262730826502,0.0116680068854296166425133,0.997963955237388566921197,0.0620550759163414067387521,-0.00854973437084074333602857,-0.0556041488179291887306022,10.1526983703062043673526,-0.0616789348001058126969021,0.0856843083550246770174752,1.2157907458450829540908,7.32783285610876244930978,-3.47274264582348690666436,0.697161523334698163267831,1172.53232876307765764068,1176.60025455332629462646,1161.48546760184808590566,1181.29441397833420523966,-518.648005271460988296894,-868.388928420699016896833,-572.839207452761456806911,-343.040789696987928891758,158.040801058673764600826
0.0774999999999999994448885,-0.140294609508466977532137,-0.0479089901169563944782759,-0.0250865778191411148423384,0.0293429531304040952521817,0.0212702253432819794742858,0.0200053101931376396682705,-0.00902070020304989415860231,0.011722986841453736026053,0.997963771563449175694416,0.0620436957829815574627652,-0.0117116744371136352609319,-0.0573796213174518274224845,10.123535778640317062127,-0.0613728618275859311159692,0.0853906729673862968654774,1.21662465870136071721674,7.32790775986795939189733,-3.47290211349664756923517,0.700223595903644802085353,1171.33273217138980726304,1174.64577455401808947499,1160.39573961847395366931,1180.10401191983328317292,-501.539136390783369279234,-786.831340314119415779714,-364.807300151914773778117,-639.03826890373181868199,158.047219155609610652391
0.0800000000000000016653345,0.109929249289283548218776,0.0958381317646143093824662,-0.025404200679147937586011,0.0294417420049301083173621,0.0215306957710245557013895,0.0199960000860115970355846,-0.00903983368476269505409348,0.0117684664844815590339921,0.997963509974930662593806,0.0620366298164504656464935,-0.0144933952318148095983474,-0.0593591834477560503779969,10.0932771577053586042894,-0.0610452607039294811719365,0.0850663780598424762446896,1.21734953927517097760358,7.32797999352480644574825,-3.47305995400682476770271,0.703284749243490159287262,1170.02463308112373852055,1172.66609785175569413695,1159.66143110108851033146,1178.09922263381554330408,-549.410639780125620745821,-801.000495914239991179784,-254.749345601657978477306,-919.257589814650714288291,158.053698599677431957389
0.0825000000000000038857806,0.338049251818058837937286,0.236795873964100206388039,-0.0244918736200706033123708,0.0301715118688321952411524,0.0222618986286164388666009,0.0199941943205041577913406,-0.00905099987504826702933158,0.0118059671899844644687994,0.997963284736642641803428,0.062031547821505120254848,-0.0169326300149888198109949,-0.0614953916029895644723702,10.0621049526387587036425,-0.0607004730309452442127416,0.0847154930343785861346362,1.21796528580724938706226,7.32805072464600559811743,-3.47321528434166371113179,0.706344935886929259361011,1168.58567897248917688557,1170.64077207444688610849,1159.12199289046566264005,1175.50772397076002562244,-610.805933740720661262458,-820.204781552865142657538,-201.950316857982954843465,-1132.686599767611369316,158.06022578428326141875
0.0850000000000000061062266,0.521704753394338749394876,0.368564253399838170910385,-0.0236924438373269340141203,0.0316826051532909103158886,0.0234477125223369053941269,0.0199967065425175338777564,-0.00905637166084251495068447,0.0118374024816036600704638,0.99796319926873477967888,0.0620261242481042057717033,-0.0190794020738715777718575,-0.0637325580691325832560779,10.0301953579761899959522,-0.0603442796643774773124314,0.0843432774933804696448902,1.21847336573164244377665,7.32812114272543091431089,-3.47336770537412542481093,0.709404177236785837834532,1166.97060341242013237206,1168.56507394399136501306,1158.6516795167985947046,1172.43578963497748191003,-745.898764668390185761382,-916.265507671140881029714,-234.033657681311325404749,-1385.37358273288077725738,158.066806555146200707895
0.0875000000000000083266727,0.674716486044330876481467,0.516438782155968612030961,-0.0237601070627250117450746,0.0343618279594693765144342,0.0249874042514812780280131,0.0199993979349875547479876,-0.00906000990531214203671517,0.0118659659410506827109666,0.997963304547558660573259,0.0620183594805606072664084,-0.0210198755537158027406619,-0.0659907416316111161691538,9.99771308403044756119016,-0.0599868880398230774897428,0.0839579145598051967969155,1.21887616200110304731652,7.32819218004380878994652,-3.47351761432421968223139,0.712462845635910002606295,1164.85618514914722254616,1166.0594445360911777243,1157.95182460205910501827,1168.58085605709561605181,-793.477766883326353308803,-912.167653255257278033241,-304.147886896635668563249,-1382.61751994600922444079,158.074760006632686781813
0.0899999999999999966693309,0.743321405542154090007045,0.636217037520826367291704,-0.0244847974228294511245263,0.0370720716837811894994736,0.026187554546613200923133,0.0199978568631153895418517,-0.00906969547181502196153691,0.0118976742017179015070694,0.99796355268321323972458,0.062006740210384637956853,-0.0229137633853949904128022,-0.0681377386043933996884192,9.96480671251693728152077,-0.059647754364730236342762,0.0835737352067291161539231,1.21917621082148408540036,7.32826426075508763346988,-3.47366540112782562488292,0.715521175235380613166569,1163.00321457800350799516,1164.00423567771508714941,1157.13094008231541920395,1165.52270203524744829338,-740.437903227440529008163,-804.258926353578885937168,-395.055264763505704195268,-1132.15710230815807335603,158.081430848309338443869
0.092499999999999998889777,0.762633801213431272714161,0.759059582843215174818852,-0.0247151796569636608702503,0.0394817019475433295117028,0.0274100088040657476062822,0.0199883797918468456011887,-0.00908930244465398946840384,0.0119364997747383322357351,0.997963895247577448266441,0.0619907021871297231330189,-0.0248355460767848562619875,-0.0700769555518967190987922,9.93160632406992505138987,-0.059336542356499044625906,0.0832002871917145309099695,1.21937766647973533373772,7.32833684508373828236927,-3.47381124915936201347222,0.718579337085043290400677,1161.15399563301002672233,1162.03814990432329068426,1155.97654827824158019212,1162.92007054555483591685,-787.296519346681861861725,-831.397371082902509442647,-588.469886897200353814696,-998.978329708551427756902,158.088141306110685491149
0.095000000000000001110223,0.759362564999960798495238,0.911264444212695479130559,-0.0219235063777339367341312,0.0410517743998379813774591,0.0290011635421508692789239,0.019963854506276211553395,-0.00912000377899354654209763,0.0119847432755504010315484,0.997964343371591566800305,0.061969440935014094562483,-0.0268001227903936697916087,-0.0717409095565077759015793,9.89822076633138436818626,-0.0590561386147833641824256,0.0828430154346205122051217,1.21948592816781853365171,7.32840934780332631248712,-3.47395581822365917545881,0.721637286379023135118871,1159.06673198127009527525,1159.84724882230057119159,1154.18859064782941459271,1160.52781038670468660712,-727.061878290123104306986,-763.87269475126163342793,-715.246018863035033064079,-747.983926156211282432196,158.096233971326910250355
0.0975000000000000033306691,0.757469920715753808337922,1.03513332552556325261151,-0.0146137383019304591819099,0.0413838271783917091561911,0.0306208577854685699837223,0.0199311727038520222765605,-0.00916128727908850637451366,0.012043836033415467046126,0.997964872693593574304316,0.0619431439636749306409946,-0.0287844464896344423565644,-0.0730759101258967036507386,9.86473587926109374279804,-0.0588055517495988042120381,0.0825048715438553154077894,1.21950725875255594488067,7.32848100850646400061805,-3.47409960326371036742898,0.724694265671040005472037,1157.51868624155940779019,1158.21878643056697910652,1152.40031818392640161619,1159.18015091477377609408,-567.257325184254568739561,-594.117548372286705671286,-759.032881437678270231117,-420.939418661373167651618,158.103007195139355189895
0.100000000000000005551115,0.767098198910851403198308,1.13633769080368285386839,0.00116773823657717818261248,0.041838377425188602587447,0.0329078327659859184994851,0.0198891348544282149657381,-0.00921425742198785091563451,0.0121140499076284879897969,0.997965440326018971006761,0.0619122818489703657940382,-0.0307926419345100899072065,-0.0740515144824816506918808,9.83121353539303477475642,-0.0585878661656473870289474,0.0821852014537158698237462,1.21944832124600099909628,7.32855177083880260369142,-3.47424327661930920640998,0.727748782404078586871776,1156.23044535534882015781,1156.87666108043913482106,1150.39342624064101983095,1158.42311329339781877934,-505.329427405603837542003,-506.873512196897991088917,-905.916130880722562324081,-237.134635553047502298796,158.10980601787372279432
0.102500000000000007771561,0.774763633833189580002454,1.19853131875953389240408,0.033572107520693818261126,0.0434823641816728667652825,0.0367123788296854491886023,0.0198438166489616450716138,-0.00927669607721455860560589,0.0121904285222339345967635,0.997965946787944702123241,0.0618797183923377805414567,-0.0327536580054123074856598,-0.074733664336829458418876,9.79769292619473119998474,-0.0583978808577372970889385,0.081870522622463234863055,1.21931710573959106724828,7.3286211792651867469317,-3.47438726112989648697749,0.730799061018892692764837,1154.99203910453138632874,1155.68441886958248687733,1147.87073752952278482553,1157.99447773700853758783,-410.67232918776505812275,-361.565046332044175869669,-924.516588113330612941354,-113.774520565630368196253,158.117988575484872626475
0.104999999999999996114219,0.752566825360467706040879,1.17734677255793518391158,0.0737573636411322924866241,0.0455081259395286666369351,0.0406131619646047103966424,0.0198347133141557226132523,-0.00934481491058777695435378,0.0122685854237768992430757,0.997966319756505959581716,0.0618480083167285282774728,-0.0345643639605560173966303,-0.07517268978346752783537,9.76419159303867623123097,-0.0582268302103341531261727,0.0815488463269411628653316,1.21912125160506268350957,7.32868881482072254129889,-3.47453162656637148941741,0.733845133895975276772106,1154.17708370940999884624,1155.06883584877891735232,1145.77084330007437529275,1157.85424069056966800417,-298.213588076260407433438,-175.600620111800139966363,-822.800636909870945601142,-54.9569300919302961005997,158.124823222026094526882
0.107499999999999998334665,0.668348962046076411347428,1.06421684059425869506299,0.128226480755094462971044,0.0477345294678547665823132,0.0444387912836591708609646,0.0199044800520190127979259,-0.00941449385968499974364221,0.012345019857564958759566,0.9979665818904560614655,0.0618180709735080338718127,-0.0361151679205994544097358,-0.07539964226799809876578,9.73070787054817643024762,-0.058065165385176101264797,0.0812106363361957545032865,1.21886728548157474705249,7.32875423826486471767794,-3.47467614402407187768063,0.736887878877355073647948,1153.50097116415008713375,1154.80641576902348788281,1143.7567343449734380556,1157.71969308654888664023,-262.782538767123469369835,-65.5308502201023088673537,-786.279170405986633340945,-81.6019514142225688146937,158.131669337198616176465
0.110000000000000000555112,0.512810028753011626356795,0.876585226765515090896486,0.193112492009957420480148,0.0501198665816240396253534,0.047560428563716006244988,0.0200916123562993390039288,-0.00948346379572566518245669,0.0124182567611913746014052,0.997966749988455248399077,0.0617902561365239466617538,-0.037334197713205140300996,-0.0754080564074823406217618,9.69722402710452158203225,-0.0579080179315775572801428,0.0808514049741479307042979,1.21855969912557449141843,7.3288176652416057166306,-3.47482016117478265115892,0.739928395262570370860544,1152.86317101557438036252,1154.74118159767840552377,1141.83944744804443871544,1157.44623093349855480483,-262.368576907055967240012,-16.0980573554297592409057,-746.307774241540073489887,-167.966804414436268189093,158.138521177771025350012
0.112500000000000002775558,0.25874975371294517412224,0.615814877009400296614672,0.266100547016066557581837,0.0526268098095171305006446,0.0496008709188901844577835,0.0204922563114869789313577,-0.00955226156132311932100976,0.0124887559384395403078161,0.997966909207954278038244,0.0617630087003403147050129,-0.0382060873120445773643006,-0.0751588539315395515183482,9.66371032368882509899777,-0.0577571434888898629922416,0.0804716673618419836566673,1.21820054472495353792283,7.32887999862545047591311,-3.47496354023816644840394,0.742968160817508493920514,1152.18912827961480616068,1154.72592548224633901555,1140.02519547376573427755,1156.87985906447670458874,-319.926403692624887753482,-54.0321905729796938544496,-786.65688915639225342602,-331.927549664578407373483,158.145375236813464425722
0.115000000000000004996004,-0.150412849701657608258998,0.249616725814382767190125,0.354040905178190257185378,0.0550216190556546067003119,0.0508841764425568832130864,0.0212882543633833125340526,-0.00962276370526407402727909,0.0125554462711286243803421,0.997967082651006753835077,0.0617358906451161842943165,-0.0387392645482266886891587,-0.0746471818318692470484166,9.63013008971728012852509,-0.057617109922838374846954,0.0800686017678983036338636,1.21779005634177228678539,7.32894171956018514180187,-3.47510621805411368256955,0.746007725163420953862214,1151.26353899711125450267,1154.4710206448135068058,1137.90616300226247403771,1155.78659318517566134688,-365.658023411924318679667,-175.818738052021075191078,-779.887933834196928728488,-466.613716421397441536101,158.153596447396921576001
0.11750000000000000721645,-0.54689829836227576986829,-0.0749306906281329981878159,0.419443157433994795457721,0.0555705735921274493471778,0.051094898009181342890539,0.0222077399467027168655786,-0.00969276970935577589227883,0.012616189471919409675893,0.997967287711314154918796,0.061709407006224077651968,-0.0388636758377513477635823,-0.0738883078576816620941514,9.5964453483738836325756,-0.0574821217496356146048342,0.079638143167994612792171,1.2173271836623218433715,7.32900252875985280809346,-3.47524780065082961044709,0.749047321104407304304118,1150.36083816255518286198,1153.84683179198623292905,1136.1257558045947462233,1154.54679048236971539154,-394.483155094122423633962,-376.126978222328716583434,-731.319969573088656034088,-545.577790986227341818449,158.160439716885321104201
0.119999999999999995559108,-0.937110547759171463866323,-0.389911207209237664628176,0.466362283772558450234413,0.0534499860053001749071733,0.0504522574197549811270136,0.0233840520298475643135028,-0.0097567362425694300481771,0.0126693852552845348524713,0.997967621289369666293112,0.0616831919079447801856908,-0.0384498946898194846055752,-0.0728894609684471866950517,9.56262145004376407086966,-0.0573378016258291947626624,0.0791790247912806527397223,1.21680937786901743891121,7.32906221529942758508014,-3.47538755538880073103769,0.752086825875795450535577,1149.29112322164064607932,1152.59038575370186663349,1134.24956315439703757875,1153.05870423024452975369,-517.30637060964102147409,-722.351770572915029333672,-864.379607800130315808929,-679.57042478351593217667,158.167269153144673055067
0.122499999999999997779554,-1.31365715108417502321458,-0.723448750634858028796259,0.490665435417808826201735,0.0480340558717269189292765,0.0485833738910055948356792,0.0251086467615318498225463,-0.0098117135284217383423,0.0127134128944560477469938,0.997968171365820722051865,0.0616566238498473598306227,-0.0374239626506764136437688,-0.071669359289552536651513,9.52863073649978886692224,-0.0571755760788428685215123,0.0786904732313720156611225,1.21623223393984680740232,7.32912094501688216041657,-3.47552468664065106196404,0.755126083280916682305417,1147.77430630950698287052,1150.23507293912166460359,1131.80385776559410260234,1151.14893835845214198343,-602.739618711893285762926,-1001.17795643877707334468,-938.193064465257634765294,-696.24692868410363644216,158.175441457726492444635
0.125,-1.5045970600991960264281,-0.941973411734006838003097,0.479370776126722519805412,0.0423890147701366792887256,0.0460030581572371533027876,0.0267037698300806557172304,-0.00985732903590848426322868,0.0127479355454430797606191,0.997969063539995815403927,0.0616278081107527395121615,-0.0357695105890047174157509,-0.0702349875284251634610655,9.49445631735600059641911,-0.0569926142691062134759683,0.0781753738270525855291737,1.21558948295577540221757,7.32917907477295038631837,-3.47565870142596544667413,0.758166470082962784537983,1146.27742512808117680834,1147.58449597150797671929,1129.55859783207074542588,1149.57746958682400872931,-658.90250862289519773185,-1174.52779300137876816734,-946.8057517799471725084,-600.823331073569875115936,158.182227180135441813036
0.127500000000000002220446,-1.54730302361647997777538,-1.07920866362206169242199,0.435566543164624397910245,0.037056018814622782020507,0.0424259697725616613528388,0.0281177623855070821234925,-0.00989518945605913011198673,0.0127739672267750785372709,0.997970388235864813708531,0.0615948328862961635987716,-0.0335169552801967210453604,-0.0685811461664792842984895,9.46009522039049066677308,-0.0567904818563648369766916,0.077640211815525356220391,1.21487337813350726456463,7.32923687563395631627827,-3.47578915344853767166455,0.761209504819012394705169,1144.47979376639250403969,1144.36243397411476507841,1127.06982900669436276075,1148.14482170308428976568,-877.067203095702211612661,-1495.34477102065329745528,-1151.12736745131678617327,-584.842772092451355092635,158.188980763455504074955
0.130000000000000004440892,-1.44486708818095288542338,-1.14581718687973821424464,0.353624973981002233003323,0.0319414514209796843169364,0.0377035090211076812094504,0.0293372704547976009825661,-0.00992801066112377478267703,0.0127952188214661630172309,0.997972094880394622329334,0.0615573367370720603286571,-0.0307291254946769759603953,-0.0666651899016448418189285,9.42556050733591632706521,-0.0565733953103451300825633,0.077098058057428128786448,1.21407512155458285896259,7.32929457750157453688189,-3.47591598904481813292477,0.764255392421345325359994,1141.89208911260266177123,1140.10777211640470341081,1123.80296099481415694754,1146.65325572636174911167,-1033.43327313086683716392,-1579.78577146400175479357,-1240.44046254148156549491,-511.389624524371811276069,158.197039864190571734071
0.132500000000000006661338,-1.26082949871513627648767,-1.13372001365981578402398,0.269612422680640395622476,0.0287654986593525001381533,0.0342105042653519583750743,0.0299556632896208763217061,-0.0099569766399576695170559,0.0128171936046322602203995,0.997974059785635914110458,0.06151601968403425102494,-0.027451524549818008547053,-0.0644221034178903834144236,9.39088261784958788780386,-0.0563416268198477579454142,0.0765665001602949951697852,1.21318599510046309930544,7.32935251466387072127873,-3.47603973145513656106687,0.767303629953654975359711,1139.31262740073816530639,1136.46350511679474948323,1120.86762669398694924894,1145.58787358046242843557,-1132.88381296228999417508,-1429.28011306353118925472,-1209.63449755222313797276,-407.514116549691266300215,158.203712450382113274827
0.135000000000000008881784,-1.01426223741458354510314,-1.08543154418754905776723,0.179142929902452674451041,0.0264189707965215708762585,0.0315974461213049603869329,0.0302654369260029650068322,-0.00998432415125708946912475,0.0128437452054206025647831,0.997976086627393010886067,0.0614729324783903630091686,-0.0237579376374835726792867,-0.0618320689309863197324901,9.35610913908450747555889,-0.0560973675866485999019773,0.0760586003937270688224359,1.2121983550691772801855,7.32941124072642047337922,-3.4761609526811616532882,0.77035264688910409791589,1136.22767004779120725289,1132.96137155108704064332,1117.75478850705303557334,1144.61568514361329107487,-1323.1522451275839102891,-1350.04607757359622155491,-1265.47470996697370537731,-396.50587979031081431458,158.210334072704370100837
0.13750000000000001110223,-0.743186066336741557591949,-1.03775898680320799449817,0.0885480187107730992712717,0.0246250490892582739321792,0.0295871032018564551757667,0.0304109972222480207104667,-0.0100095950802900277021301,0.0128736635258770992784605,0.997978054503082190329621,0.0614303836727809124407251,-0.0196770685657898306009095,-0.058978302840688938413205,9.32130432687950793990694,-0.0558351545629937606740611,0.0755750929513605285148259,1.21110712650181673311067,7.32947130621615450252193,-3.47628009141337068754751,0.773400417942208151522721,1132.69686617510024007061,1129.71327472892676269112,1114.54025314415207503771,1143.60534418151087265869,-1516.05063902211304593948,-1220.31565731331170354679,-1295.95509356172328807588,-446.285119182129676573823,158.216909592174147292098
0.140000000000000013322676,-0.470390386693974149601161,-1.02379651066741650389247,0.00111952836544647847671907,0.0236424386703635996953565,0.0279424878216921954154905,0.0304399316845175675616542,-0.0100317752524466015373594,0.0129036431479211798761808,0.997979850714292293645258,0.0613910851549629779655426,-0.0152365400119318858407347,-0.0559913351230958283855088,9.28654654525362666106503,-0.0555477651472992758896474,0.0751111159305410669428937,1.20990943652688387466299,7.32953289094651427859617,-3.47639741213716035872494,0.776444957164947879846295,1128.64741685268063520198,1126.85979326452047644125,1111.27501303924441344861,1142.38425954770264070248,-1878.92665350823176595441,-1160.82619903208865252964,-1425.91970244138656198629,-623.291578695715884350648,158.223425612130853323833
0.142500000000000015543122,-0.169265007708511272532803,-1.07523751060470318385853,-0.0981543356764894292521006,0.0235121292319686106542242,0.0260019111041870643052931,0.0303827188457244587449502,-0.0100533583557768316923964,0.0129316746578946595302995,0.9979813936269908980492,0.0613564110027123368884538,-0.0105416329207925277278157,-0.0529885749282987053576655,9.25192486188211482556198,-0.0552366297240402745472032,0.0746638452774598948558094,1.20860374320798258374055,7.32959618093216658252231,-3.47651318328723446526851,0.779484297137286397116895,1123.30223290755907328275,1123.90914373376631374413,1107.41065463194513540657,1140.48888628803229039477,-2010.57119880348204787879,-1011.71962480566901376733,-1389.95373367088836857874,-782.953360810646699974313,158.231171912297725157259
0.144999999999999990007993,0.0469442713872852690482063,-1.18448941539242014187039,-0.174729813262966132692,0.0240071453856591093822814,0.0243266648364047939623322,0.0302413138358329502963784,-0.0100796507474141538995838,0.0129597316095320484741205,0.997982643764523946749989,0.0613257637972569116802113,-0.0057630753252596311764222,-0.0500223252403838580804063,9.21753575190952290085988,-0.0549107658951579202799564,0.074239025320874049707065,1.20718932870711892491045,7.32966092898061738480919,-3.47662787399177375391446,0.78251744602222228497368,1118.59456085866327157419,1121.80119514049215467821,1104.3252443708900045749,1138.4694927436494253925,-1886.22516215583323173632,-788.98607914484637149144,-1185.62627995516413648147,-900.919102200582187833788,158.23756400572003144589
0.147499999999999992228439,0.222709863122712126148883,-1.35841871653985979406798,-0.241117467729161816247796,0.024617067249621926716685,0.0224696420777781083466529,0.029932014045101786731129,-0.0101159688838225545609584,0.0129913988595438782691627,0.997983635279017455843587,0.0612970092547478681566098,-0.00108001607531328647215929,-0.0471188897261753877887536,9.18348018443010971623153,-0.054580024936355470144278,0.0738455289603154735322832,1.20566661217502502090326,7.32972681922993452019455,-3.47674185749475261886232,0.785544015756890368074039,1113.87110709677995146194,1119.96421333804210007656,1101.482523232169342009,1135.98429077702940048766,-2015.9948790396792901447,-770.587124134089435756323,-1176.47072253080182235863,-1181.78370629552659920591,158.243888415581295703305
0.149999999999999994448885,0.391461639373062109115153,-1.61403548851289935228692,-0.30071169486409843329966,0.0254217082364081234380215,0.0193765589804041835075843,0.0292501705942165984852821,-0.0101583389074851766775698,0.0130244405502366478871723,0.997984449133958895217233,0.06126993199443037108054,0.00350093809299835412307544,-0.0444012531467157661735357,9.14986153055576245662905,-0.0542323323534537882206763,0.0734785423322954905911431,1.20403878258410812485124,7.32979273928047714292688,-3.47685460644980670608106,0.788563823772468586170703,1108.51458646346486602852,1117.94825951982170408883,1098.44289075823598977877,1132.56057421217178671213,-1865.1220307371188482648,-724.129534573375394757022,-1045.60993561317354760831,-1303.73565523764114004734,158.251397861457974158839
0.152499999999999996669331,0.501604000492870127914102,-1.83073481054885189855952,-0.325637296382877472478157,0.0263867669404502791508094,0.0154562387464355268512639,0.0283535162954654702816004,-0.0101974885201688899444283,0.0130558092516132734361989,0.997985213262053805216567,0.0612445794925651210149908,0.00806663217808421470489399,-0.0419979093987241092200691,9.11678130379115359005482,-0.0538441679855538174459539,0.0731312112672876379892983,1.2023101504763440416923,7.32985756985079284220319,-3.47696585030555871398406,0.791577239881605221327732,1104.54549694309434926254,1116.34356566517521969217,1096.25447355410346972349,1129.46561250084118910308,-1438.45154214732110631303,-641.047167855548991610704,-804.008717185615068956395,-1251.26078112989375767938,158.257588582471470317614
0.154999999999999998889777,0.584180692286185299089141,-1.9998387558227785909537,-0.315932107498069769668803,0.0275999620354319581683189,0.00994015145104297330458376,0.0271345132625787320568289,-0.0102265291402346553129021,0.0130850170958441962970609,0.997986004809226723288873,0.0612209003998153492021039,0.0126554234950739495635386,-0.0399872895579760495587962,9.08433531934281823794208,-0.0533995994262251513773343,0.0728015816444875646373802,1.20048448715524691543521,7.32992065768838241268668,-3.47707575542277824709458,0.794585275534144153120053,1101.32232875272825367574,1114.7430236805439562886,1094.42284717230791102338,1126.30427030652231223939,-1211.64912084536695147108,-714.810905179955852872808,-732.550541630552515925956,-1364.61554943025362263143,158.263709500036867439121
0.157500000000000001110223,0.654091825433649520782353,-2.09639556392136361395728,-0.260233366997642212581354,0.0291263217263302079396148,0.00229251836381114213608834,0.0256061015329971282394883,-0.0102416701238822738240231,0.0131126825443344339344742,0.9979868681600747581939,0.0611986408773197362864771,0.0172497298017895983601733,-0.0384228424321815531516933,9.05261122192117184681592,-0.0528916659464693239556254,0.0724889409033653425717958,1.19856496809704471395719,7.32998120933224139861295,-3.4771848650490984056205,0.797589731843464488925122,1098.48725133886750882084,1112.7695111392754370172,1092.59172084595070373325,1122.64253475368991530559,-858.05705251077517914382,-738.428820986745677146246,-620.577447900495258181763,-1296.7466931493152060284,158.270974539700489458482
0.160000000000000003330669,0.687798570731425140678539,-2.06781896007742460597001,-0.181478474027779862476351,0.030498083040927992382052,-0.00417222852958003178475144,0.0246939790749510050538174,-0.0102404484051303798497479,0.0131401426525711451792633,0.997987845068343704113545,0.0611772284606535710071995,0.021812209575142460504793,-0.0373358083744975838280666,9.0216862138272855276,-0.052317858205119721626275,0.0721931631877682777886918,1.19655443900821412128721,7.33003837815599279537082,-3.47729378902281105467864,0.800591951734084705805117,1097.03204349017437380098,1111.05087957561022449227,1091.3199599328054318903,1119.82053684077573052491,-400.910914234327378835587,-708.089376029146706059691,-469.547812635209595555352,-1064.00543465278951771325,158.276962965126472226984
0.162500000000000005551115,0.692100161953571824113851,-1.92670164579209934885284,-0.0823909373776446490866832,0.0321488861114953006214989,-0.0100300038977276847335096,0.0243958723038324512555342,-0.0102241003993804990129801,0.0131693157262165981558066,0.997988937644794238401857,0.0611559971928087101056271,0.0262463379214866107669302,-0.0367382056161311698616601,8.99162483858051686524959,-0.0516855071398925891568155,0.0719141103404952602984324,1.19445550803427491537434,7.33009221482657125079641,-3.47740275980621538209903,0.803592593824908330013557,1096.48269676769587022136,1109.2290642591297000763,1090.24398178277465376596,1117.32250758042596316955,-87.4293585676240780912849,-747.894507768887024212745,-407.235583927331049380882,-941.205629876730313299049,158.282884783878643020216
0.165000000000000007771561,0.667518578341684043486737,-1.70935469326923539234997,0.0211140807799305545155999,0.0341176922809990346152631,-0.014919038604174672882352,0.0243890387742098820045289,-0.0101968875384310844051106,0.0132019022380319532572468,0.997990167280693563078842,0.061133509747778438936372,0.0304124943270861515520753,-0.0366348173145246008841625,8.96247712238988647470705,-0.0510096192711099530314733,0.0716500512653747562152873,1.19227121243655775906234,7.33014334353917718090088,-3.47751211657799297327642,0.80659023064396284663502,1096.59489669733625305525,1107.3114070367657859606,1089.28378201316877493809,1115.11450869139207497938,170.882390430779054213417,-788.468354808673439038103,-365.076267487210884610249,-816.682742407282830754411,158.288752996298654807106
0.167500000000000009992007,0.605365030730906639178102,-1.43304508851157264004428,0.115369053693027440177232,0.0363054754090433515201219,-0.0183802211695846574868174,0.0244646192169652755554754,-0.0101630840478455150566184,0.0132386024475616721068905,0.997991600325149330608099,0.0611078124882787412919249,0.0341849542390352187370972,-0.03703245374512291465674,8.93427682413745216649659,-0.0503053228756594403292546,0.0713964471189004051820959,1.19000586181157563814281,7.33019196300618425254925,-3.47762215805525487510863,0.809582369908195542684837,1097.33710871984976620297,1105.28672248508632947051,1088.4186004453385976376,1113.23909386838954560517,420.856568585758907374839,-906.131825145211337257933,-367.281570707427476918383,-761.834589744739105299232,158.29455897779666884162
0.170000000000000012212453,0.494057425698222085763689,-1.07744231638719600852028,0.198652663365986748011949,0.0385280721101531886674252,-0.0211234005833079996339308,0.0249179603941707614178647,-0.0101263360258709109867903,0.013279251132696227866159,0.99799318171197082261159,0.0610792257398953472580239,0.0374643037537737283448891,-0.0379353830491026000615307,8.90703975185367013978066,-0.0495864946943468526407983,0.0711464312127223497128625,1.18766526249347315058458,7.33023789101911926735511,-3.47773319682075943148902,0.812566986625321119319665,1098.69917954026504958165,1102.78074791103972529527,1087.4473741596316358482,1111.30533574266837604227,539.66649772764822046156,-919.972365027069031384599,-349.679408460451384144108,-672.006668653602332597075,158.301457835630202453103
0.172500000000000014432899,0.384136973999758712938757,-0.786439755591080369434565,0.228501404945788882949742,0.0396564902621863793474866,-0.0225881318247155293832407,0.0258700491660277948069435,-0.0100897807727656860926624,0.0133245685618118628323892,0.997994833889530030823778,0.0610483330462153681028603,0.0401733782073827178082936,-0.0393146151433656637630421,8.88076234817112464270394,-0.0488658992369637099062452,0.0708954057677047000396442,1.18525632753477827563415,7.33028072506700478783159,-3.47784533407797447068788,0.81554246482066261592081,1100.03544120848800957901,1100.68686065995098033454,1086.6702034030363392958,1109.87906052512153110001,534.020345326370716065867,-822.194075693959575801273,-309.066194274055021651293,-556.106553204244391963584,158.307152762075588725565
0.175000000000000016653345,0.277412780253964319499005,-0.51858880022316478086708,0.203406657519277833667815,0.0398436781509037205029067,-0.0235097823608048719923325,0.027217842690956780410394,-0.0100559252837908556788005,0.0133766870416995031778384,0.997996466674810234209758,0.0610157248404892549320522,0.0422584673895936291376785,-0.0410994968015920628112703,8.85542110954409800172016,-0.0481547404253409999652646,0.0706426200637490925293704,1.18278663903311853644595,7.33032006957474013830733,-3.47795838099490595141106,0.818507770119279443044036,1101.36928126689690543571,1098.66977753256992400566,1085.90204318826135931886,1108.52480297664715180872,544.234646697307425711188,-851.713416533179383804963,-342.219653929989135576761,-608.861773390665916849684,158.312794598967201409323
0.177499999999999991118216,0.171838958712723754995721,-0.229717592557148631016162,0.107013843247035722594518,0.0392755048519530941542044,-0.0241920848833340890182697,0.0286371256819336165999612,-0.0100245243733801444457887,0.0134359237203332121390886,0.997998007243130480503623,0.060982557067252009253,0.0437293548973673035229481,-0.043233937563358998401597,8.83097320647170391794134,-0.0474569928495835596793384,0.0703841099137446635225501,1.18026455070976798999993,7.33035565244506504001265,-3.4780716763985068951115,0.821462153781184811762728,1102.75661444197453420202,1096.42829357728510331071,1084.95910513338640157599,1106.83475165816821572662,447.767948586308477842977,-781.992344308404426556081,-355.116747839840002143319,-648.413992316139569993538,158.319506437711766011489
0.179999999999999993338662,0.105082251145680885540123,-0.0138297078714211593014616,-0.019102254726471364770779,0.0385491484007207466100375,-0.0246202824804337833120016,0.0293138122245586892067326,-0.00999497911098240487959288,0.0135006167626750585297746,0.99799944063353807077732,0.0609495364837450911976724,0.044615271076913112779927,-0.0456836133559189797037625,8.80735773613677608295802,-0.0467746537797253461588021,0.0701123383645838593736244,1.17769832426083786991455,7.33038814554580842042242,-3.47818459564444726339616,0.824405899007553233381884,1103.6081210098284373089,1094.75981581102792006277,1084.12645944906216755044,1105.28273301506646930648,254.825160233212727689533,-619.375809506299788154138,-350.780651755894439247641,-661.906640449660130798293,158.325052789412126230673
0.182499999999999995559108,0.0460864252958355438694049,0.180667551900279360621582,-0.170168888144171692733408,0.038412481207420717810308,-0.0248446350445869594547599,0.0292585549553902590780297,-0.00996729859756267412562725,0.0135684673010553012023616,0.998000792148948434601152,0.0609167610609335288818222,0.04494482717533716809033,-0.0484154476620771503925234,8.78449771203674067976408,-0.0461098837827445817705296,0.0698194302223389684503019,1.17509517170791610851666,7.33041869543471324988104,-3.47829619449866322966614,0.827339616194782023761434,1104.03074024314059897733,1093.33141452975360152777,1083.20520187460692795867,1103.52521845591991223046,73.3843050328686530292543,-573.382580756333027238725,-433.641002855756198641757,-818.54344904322647380468,158.330552144322240337715
0.184999999999999997779554,-0.0464533497232520742326045,0.388565935019650032788974,-0.346398070254455292538154,0.0393000546520954965878936,-0.0243544220456780383110562,0.0282508920797611487452095,-0.00994103669383929883229811,0.013636816099319428938208,0.998002130846826318588683,0.0608837750589391116240456,0.0447625623161044747244652,-0.051394198273555458111872,8.76230294256716923939621,-0.0454623632946210692873379,0.0694980209955470967786439,1.17246071240722593564954,7.33044907456315364413513,-3.47840547208605954665472,0.830264564958976714059702,1103.97504253499278092931,1091.89290290724625265284,1081.95825443478338456771,1101.19001576985033352685,-113.937930284873701225479,-487.891533657829768344527,-482.89239487144141094177,-883.863359338692248456937,158.337098256533579387906
0.1875,-0.160999353701851893871932,0.534898184876731797032789,-0.464613092667582716632779,0.040441598441667551966372,-0.0231619086292776284186079,0.0266581904578641580572107,-0.00991626912761857555456135,0.0137047415400412576913514,0.998003569203480211946555,0.06084893926494671506644,0.0441074862288107771846057,-0.0545498117773454485601725,8.74067345623471503301971,-0.0448318367746483523172962,0.0691459540716537202076353,1.16979816695504301726771,7.33048106031781898650479,-3.47851233538949600188062,0.833183184197846649077235,1103.46105059171622997383,1090.89195686146445041231,1080.79073990024971863022,1099.10590165922644700913,-290.934787006335398018564,-374.036256052840712982288,-488.97580347715984316892,-844.471505985256158055563,158.3425095138094604863
0.190000000000000002220446,-0.319734277015086720830084,0.645063804826447650953014,-0.531239043903476981789424,0.0410004652566042029904203,-0.0214177327560126917749272,0.0245541281675129806350011,-0.00989069519795236599957189,0.013769262050248212703174,0.998005159866552915559623,0.0608124370561625854358923,0.0430662345973262389309255,-0.0578430314517056204381973,8.71950376231050583442084,-0.0442113874023003713964464,0.0687573963455106740294553,1.16710899223206809871556,7.33051518925179923513724,-3.47861696481461279972791,0.83609666820511352458567,1102.52036859996110251814,1090.02272162698204738263,1079.51337541739758307813,1096.96765823992404875753,-432.171656719492204956623,-340.019814695233151269349,-519.25155335384215504746,-848.986261084564034717914,158.347875225149181233064
0.192500000000000004440892,-0.503175037021439064410799,0.721562796060961297861525,-0.548259180375428978315711,0.0405075569157391998653672,-0.0193745260286203348221168,0.0224164845430725977182274,-0.00986408176834383844389098,0.0138284917690497284603612,0.998006875494844902796387,0.0607751806094050939233142,0.0416903272592613755032076,-0.0612178645511506358545262,8.69868676468512092014862,-0.0435985933713019108148856,0.068329463370458101700855,1.16439219018813266970369,7.33055130476549354767712,-3.47871979273536924281984,0.839006155987996882217317,1101.30019230811876695952,1089.19185778798828323488,1078.19448213348050558125,1094.8609703538036228565,-534.609676180297810788034,-337.892864560990062727797,-518.803598514386521856068,-815.91240528364255624183,158.353202879172670236585
0.195000000000000006661338,-0.689838633182861427073362,0.758695696243501083166905,-0.510456630976121372711418,0.0388567423019425192687315,-0.0170117999712392810318651,0.0205682304016388366185719,-0.00983815321509908316532922,0.0138835566347277408749683,0.998008621103898097004503,0.0607381958252057180258632,0.0399952065319721591918345,-0.0645711279965380108292194,8.67811750573130780139763,-0.0429958856092289634642789,0.0678665416025327206117623,1.16164439764410443167719,7.33058856847338802253944,-3.47882108249636079477796,0.841912624761014805052639,1099.84732021905961119046,1088.3332573041770956479,1076.91935742482564819511,1092.88809621350583256572,-667.72726204385378423467,-391.75906789541807029309,-522.752973457954340119613,-813.126613886742461545509,158.358484367653318258817
0.197500000000000008881784,-0.881674596851127256869063,0.769450129891601108944599,-0.421836028746851110504679,0.0359935410122058513371357,-0.013993784127830812338833,0.0187825450537378660365029,-0.00981331764676940040970088,0.0139340504474469405182813,0.99801024920859326972078,0.0607039389190457343015161,0.0380214469491921280841495,-0.0678301251930821524904758,8.65769686490944856416263,-0.0424028111728622161824553,0.0673699914789232384704221,1.15886130172845080998911,7.33062583427324998552876,-3.47892064030973102717326,0.844816475957673507224399,1097.96155599789949519618,1087.23306244851119117811,1075.58071726619073160691,1090.79533728436990713817,-700.140509491529314800573,-409.475088078897556442826,-439.821459895710688670079,-706.25882166023006902833,158.364768654302679351531
0.20000000000000001110223,-0.993576209297942436471374,0.767869948897910936658207,-0.333372222085938585411924,0.0331408026202391278736137,-0.0118024783236958131366068,0.0176675446982216162450374,-0.00978765773748189668590491,0.0139783422878618744655821,0.998011667931554935506711,0.0606746103714559670283535,0.035850850030544376134678,-0.0709482866988344063052807,8.63733425447947844588725,-0.0418138617473161125492886,0.0668390950275169343219872,1.15603827461291808198496,7.33066214459281262350032,-3.47901811717356634900966,0.847717063570953333062619,1096.34661767160196177429,1086.28588186378260616038,1074.72025012534709276224,1089.35680210520467880997,-642.28136271772143572889,-367.345169151894538117631,-275.574788974153989329352,-498.942960133580982073909,158.369961029361689952566
0.202500000000000013322676,-1.0399446458839363138793,0.785048134002788500218628,-0.260037754790583996999942,0.030315099136146019670468,-0.0106917572539129181186102,0.0170985028352343623736509,-0.00976139014319177614198431,0.0140171167174123253301721,0.998012827098772703493523,0.0606508443048359088822785,0.0335251466560141792028205,-0.0738505302233297689085134,8.61694947073789307978586,-0.0412292730040871024943527,0.0662786308925398942593077,1.15317015509171572062996,7.33069687364441779919844,-3.47911352612628377301007,0.850613461676932525179495,1094.75014918431088517536,1085.39633660275171678222,1074.2028433213199605234,1088.30062248370199995406,-689.043358866637731807714,-351.221547116574299707281,-144.440398009919448440996,-370.375559417561476038827,158.375107394586791542679
0.205000000000000015543122,-1.01224486591058582263258,0.857511285136435263964927,-0.225242254357063020897556,0.0272164176828758007375964,-0.0103110110430585828755756,0.0173701048178436998070673,-0.00973386472869451624401194,0.0140516686713363040533986,0.99801365457386570501086,0.0606336424702468915204356,0.0311001047062864841019625,-0.0764606598139280363435333,8.59647396946935948847113,-0.0406479965595539644018785,0.0656951364910742796610066,1.15025224773325174254524,7.33072955233449263801049,-3.47920668216306783193659,0.853504268938725552118285,1092.90140087726877027308,1084.52977412819973324076,1073.99804813529749480949,1087.50492430811686972447,-662.087513725554686061514,-267.184811064543964675977,-14.3217939267287750482183,-216.380045979712832604491,158.381230245437677695008
0.207500000000000017763568,-0.917721649588752463877483,0.966284932050930911451303,-0.260110237961506340909068,0.0246612978104033819803931,-0.00967390329434218536330814,0.0181438841022047124551531,-0.00970450045786484805088179,0.0140826172694129662932294,0.998014126357988473614569,0.0606233667149580629507355,0.0286306417255586739822881,-0.0787255003438090267264826,8.57585140913342236501649,-0.0400694614258199216516587,0.065093794839528526519068,1.14728079840252283894131,7.33075999663078903267888,-3.47929699233387523804595,0.856388457465994679118637,1091.43971161568310890289,1084.06041254742899582197,1074.13123435168631658598,1087.21872225380343479628,-563.57609913261774181592,-125.235489988108966485925,92.9770992443086328194113,-50.8857690276729570655334,158.386289012437572409908
0.209999999999999992228439,-0.749678588340448204263566,1.1049998027421141788551,-0.366602514992026895512822,0.021950655068554689175464,-0.00767546218659080278778895,0.0187351914037363030673955,-0.00967664660795622237621227,0.0141121565685251582067394,0.998014292998812058144154,0.0606181488345154187435959,0.0261023646247697874156479,-0.0805809772514306521529193,8.55503736028630967780373,-0.0395023764540495536667919,0.0644830262678729032588265,1.14425262781721781557565,7.33078879165031871423253,-3.47938461284888322921915,0.859265259204823883543156,1090.08352038160569463798,1083.90359667825919132156,1074.46293363151903577091,1087.25049546297850611154,-568.311982584148495334375,-4.22587710859263232521243,152.437127165286057106641,56.2209191002241723822408,158.391303047798771785892
0.212499999999999994448885,-0.474261673627509372508371,1.26160552460512098704726,-0.555238063803733417067576,0.0186701182487644876117905,-0.00392639247029481081030511,0.0185505669758851375605868,-0.00965548793874307711981864,0.014141395947558480644668,0.998014198334698288128664,0.0606161946918554114804856,0.0234713322479257122110674,-0.0819951107066149015301093,8.53399876273209123667129,-0.0389595380136904256840324,0.0638683939535075878568549,1.14116574577997575978827,7.33081651367226516669007,-3.47946977308309657317409,0.862133745279260343963301,1088.5981517027623795002,1084.03928316188603275805,1074.8934199875127433188,1087.49982684930455434369,-520.773398575010560307419,85.4271228309243468856948,130.869854544744043778337,96.5053960511339994354785,158.397268865337423449091
0.214999999999999996669331,-0.205588079779681937031555,1.35027603412563901308374,-0.731089054959853767989841,0.0165052244363515371317064,-0.000177788649062323242259001,0.0173080231367294494482234,-0.00964570374684941764242829,0.0141707093008921914539799,0.998013892553601400514651,0.0606158682255491867985064,0.0207038293992401929710656,-0.082959024669072400914871,8.51271305040672032760085,-0.0384524105005099592347051,0.0632536135985994479868921,1.13801943885451506410789,7.33084332856268261480182,-3.47955254421677739884444,0.864993064069587314079968,1087.47965338873063956271,1084.33073229241381341126,1075.11728290424275655823,1087.73302244323417653504,-428.070823493589671215886,122.525355654579357178591,24.7104364859751299832169,60.0202676887874417843705,158.402198390033873920402
0.217499999999999998889777,0.0556321232976609431064574,1.36356567653883264945591,-0.878145528407245246071966,0.0162052237274889973650538,0.00396123840189738837119782,0.014738840150210888446658,-0.0096477620751503970208951,0.0141994279316884370462093,0.998013413990947895193528,0.0606166440898520189617393,0.0178393766005572884658648,-0.0834873010407890525641506,8.49116736765952495602505,-0.037982739817531217807467,0.0626402158698289718286034,1.13481441222296619564247,7.3308690472965940543304,-3.47963299507519430164848,0.867842708004722629411276,1086.4577975852944291546,1084.65190994015893011237,1075.0169721699426190753,1087.79992818774849183683,-401.555379160981487984827,109.684594702957738832083,-116.123637171631244768832,-26.3278722585709807901821,158.407084974440323321687
0.220000000000000001110223,0.264681157323974514117282,1.29998437775458075549295,-0.966995606799644913387226,0.0178525443632298191909413,0.00826979397802917078064144,0.0112057940300412575002076,-0.00965993803998962605183998,0.0142270219541297173598826,0.998012895822593448791338,0.0606167535772004356653397,0.0149536139403840043216043,-0.0835991956134312375059636,8.46935781194711445607481,-0.0375471400485559853033024,0.062029970432436222493866,1.13155224038058777047411,7.33089345851236195983347,-3.47971119557946684253125,0.870681388958232216346289,1085.47187649292573041748,1084.8791552659286026028,1074.53666471838459983701,1087.60138308194132150675,-400.905332264846606449282,45.7917107304183019778065,-300.415213103724170196074,-164.421883143222515855086,158.411936423671676266167
0.222500000000000003330669,0.363791795076449653301154,1.14168424995230388674372,-0.959107078842836746623846,0.0207535973288705058448222,0.0121841026881005492360499,0.00726292857036639049467253,-0.00968290054761992979859286,0.0142548495278805899266761,0.998012402759410832686626,0.0606147138555677769677921,0.0120783703700347577747465,-0.0832922901565021356340424,8.44728874979086974406073,-0.0371478179429409957612584,0.0614279973028823908509644,1.12823447878396043719817,7.33091665191374097787502,-3.47978740648254847300791,0.873508227444836471420331,1084.45327092397019441705,1084.88086849381102183543,1073.51489610442399680323,1086.97781877203237854701,-477.48734022493368911455,-69.4283114648896457765659,-581.018454430067663452064,-383.535543215566235630831,158.416746048322750084481
0.225000000000000005551115,0.329177501312565956581579,0.860169433071348521480104,-0.832913947725113290587728,0.0238643331480797547816675,0.015509918290317755221186,0.00327311713554620476937518,-0.00971204484024028140420892,0.0142828194521704438663123,0.99801193061586357391235,0.0606113195314226110843592,0.0093341630083298501863176,-0.0825894126766712755038924,8.42497299935893551037225,-0.036774893831722985093613,0.0608360792627190144488125,1.12486313372223589723831,7.33093819811103308836664,-3.47986199092984138658835,0.876323297133397405289656,1083.08443979180105998239,1084.5320137086041540897,1071.63157244623425867758,1085.68370536586348862329,-540.53236662407425683341,-192.471652952735723829392,-794.033652033794396629673,-562.003012832974036427913,158.422469885497974928512
0.227500000000000007771561,0.180207885052016902882599,0.572048836339322686050934,-0.646669816634138028277334,0.0255269256172211862765398,0.0170172327412226702392228,0.000980116163406223725104716,-0.00974296932033781246107473,0.0143120809676280449918018,0.998011514545226408046119,0.0606063907957925668279486,0.00683273023565107370802529,-0.0814976911888607158385156,8.4024317729719655289955,-0.0364187913606828783663616,0.0602580982307521356711177,1.12143942442845645501848,7.33095783957821289789081,-3.47993521986265053058673,0.879127081050147141105811,1081.75060909084982085915,1083.91851022904734236363,1069.54472784425502140948,1084.16780370786750609113,-584.139564840187972549757,-313.675279039034364814142,-924.379209983316400212061,-682.026905758720545236429,158.427200395417997924596
0.230000000000000009992007,-0.0610210027086814307817342,0.256637273627752626747878,-0.409530465354760730978256,0.0260014959932879860526889,0.0176944076389434941376511,-0.00022927595100667494247039,-0.00977287576500871987827956,0.0143436282225269089857234,0.998011238795777577692547,0.060598732121519414961508,0.00465390288201677701507286,-0.0800319456496218217811389,8.37969508110231764419495,-0.0360730172173821597714216,0.0596966930103343604296917,1.11796341748928917958494,7.33097606013437275152,-3.48000764314507593510939,0.881920911983569699721386,1080.16374196760011727747,1082.96363731340898084454,1067.00967639631767269748,1082.27357083706988305494,-755.851779544081409767387,-496.078450620324929332128,-1187.81669385025338669948,-894.009631329026092316781,158.431890446331038901917
0.232500000000000012212453,-0.405019947960019832677858,-0.125789396824095345284178,-0.10978222523913938601936,0.0251579454359874069013792,0.0180950576956975320297438,-0.000619949454883392627770056,-0.00979869480532603691347315,0.0143765718895803914362252,0.998011175283547102843329,0.0605878505551241744453428,0.00287804126796583140124319,-0.0782398027746924740188916,8.35680247227112538155325,-0.0357297259572538217220483,0.0591496585360172522083388,1.11443406259425215054648,7.33099349167854530406885,-3.48007970668076449527462,0.884706273828773981371398,1077.97135019312941039971,1081.43811797594571544323,1063.60564437500374879164,1079.69775555122237165051,-840.964212552898175090377,-619.189189629377665369248,-1280.22996613185455316852,-972.08926375437749811681,158.437472039001875145914
0.235000000000000014432899,-0.697831259473470244536486,-0.428223359321389551723769,0.123103595570171100992418,0.0234633583745995910607718,0.0178264800249836215251253,-0.000185553150487102682004992,-0.00981822443687135892886886,0.0144099068988895687853935,0.998011355657952847764136,0.0605738154842812917544315,0.00156386851411538865819217,-0.0761716675489714362123905,8.33380347130424503632184,-0.0353824341746159648502967,0.058613922279206726040357,1.11084882393296302538488,7.33101068044287540459436,-3.48015183652926873847377,0.887484959918344307183702,1075.95892090483562242298,1079.86769136526208967553,1060.60852656565839424729,1077.41312451829799101688,-819.745807939124688346055,-685.802949272419368753617,-1195.0328246883134397649,-914.627666359000727425155,158.442084751597008107638
0.237500000000000016653345,-0.955147703580655704769242,-0.685989007863280431109843,0.309490473559625500765691,0.0209512331986429038710451,0.0164277680304992963755684,0.000958698534118583470080288,-0.00983109704647152672640775,0.0144424802762884319645709,0.998011718507688994073135,0.0605579768521489758548171,0.000731522522593185814399064,-0.0738809841357182250920488,8.31075781273752767219776,-0.0350282293906094971402965,0.0580855047665541426860081,1.10720382761428171036755,7.33102781807351799869821,-3.48022375212312429226813,0.890258878414123766553701,1073.87262115343378354737,1078.00910322958361575729,1057.63048025156217590848,1075.12461721942736403435,-901.00928636516493952513,-878.227611123160841088975,-1265.16653416015878974576,-977.781304516342970600817,158.446657356944172079238
0.239999999999999991118216,-1.18426787064386385139869,-0.908355647873954952231657,0.457028602006629702803053,0.0170691544478362051961984,0.0132371049046143673261211,0.00306673086580517163107773,-0.00983732305506004010842158,0.0144716336170357465218395,0.998012108597590930081367,0.0605435308869984381563434,0.000387409999895414747239641,-0.0714442785708234717745313,8.28773542307725108457817,-0.0346644575302111623837931,0.0575569055649673977370639,1.10349460156615664097046,7.33104488440427459750026,-3.48029500491971699460692,0.893027994392539881118864,1071.45387447300981875742,1075.47655330964630593371,1054.28269389485762985714,1072.52421799571629890124,-850.445571877393717841187,-972.323855582822034193669,-1166.56342022789067414124,-910.259212035639052373881,158.452097861499993314283
0.242499999999999993338662,-1.28902006650330047676789,-1.00096825747251849669794,0.510350213490928683590653,0.0131383521532348109678301,0.00960791920975122802628388,0.00524350138379995906606768,-0.00983960121891486010070604,0.0144941654158469348384619,0.998012454600397336257345,0.0605319817292517617368652,0.000483699863047824807349429,-0.0689471084851875914978336,8.2648154374375586428414,-0.0342937279229242678035838,0.0570192772151521670709329,1.09971645638577397718905,7.33106209520169205262619,-3.48036524116751788682222,0.895791578702844204507016,1069.62039329404683485336,1073.14748395166952832369,1051.79766315042274982261,1070.57332115924918980454,-680.324575025223907687177,-965.005834336760926817078,-914.708387509244062130165,-717.949282480412193763186,158.456592413381514461435
0.244999999999999995559108,-1.29463077790536940092636,-0.990765945664334068965218,0.499484389891192592791924,0.00887932080988797743648089,0.00595876267310228423940144,0.00723970942268397331387231,-0.00983957047183535264689436,0.0145075978434790683890832,0.998012800635401542415082,0.0605229351157855963161403,0.00097881021185203948009601,-0.0664591095364009398771543,8.2420847868212305797897,-0.0339158953317859473974849,0.0564658149525545383085046,1.09586519851914787615499,7.33108012394076435924717,-3.48043443974495669834823,0.898548301571448160274258,1068.05225159788369637681,1070.65152413796249675215,1049.70915195731140556745,1068.93447158331423452182,-583.799866467597325936367,-1014.69251322828222328098,-767.450326702418578861398,-595.704333507500791711209,158.461045640598399586452
0.247499999999999997779554,-1.2242262490319013590323,-0.906839001518940812651692,0.452956173585637333900422,0.00501162725124325390130275,0.00299031212407763723193366,0.00841454205834940745234451,-0.00983787293551077572650865,0.0145101235528858393125651,0.998013139624414624684334,0.0605168550126437762570752,0.00183651464165058078692461,-0.0640348685476730128396383,8.21963587606216883330035,-0.0335286404492931219833984,0.0558915194898687017754924,1.09193763072382754586442,7.33109890045904322164461,-3.48050264469941339484649,0.901296543067953703776141,1066.70139396170884538151,1068.07402138552811265981,1047.9604115169106535177,1067.59479949171168300381,-502.446579459955955826445,-1037.14084785974500846351,-625.360632937644709272718,-462.162973944350198962638,158.465463949561808476574
0.25,-1.08476708936396915028411,-0.762637046511221772249201,0.390612957674696059662267,0.00213419393188431314595244,0.00107768823191514207839037,0.00854001236022537343894889,-0.00983360818493958163677426,0.0145013319011316841461445,0.998013391637638469511273,0.0605153306896065307229904,0.0030342006518663464098573,-0.0617019605252610500722987,8.19756355263770153385394,-0.0331266397576045271144984,0.0552948403079643324709025,1.08793181686195272739326,7.33111775576947621857471,-3.48056996453523748158432,0.904035519982828716933909,1065.54001870058391432394,1065.46581989866376716236,1046.58234879262317917892,1066.62365671359248153749,-496.42211166401420996408,-1141.7229200825195221114,-539.571629030660460557556,-352.699172408392428224033,158.469839137314863819483
0.252500000000000002220446,-0.875427936123811201163392,-0.561911989165377767641019,0.323327074075519915741239,-0.000212533311611756708806378,-0.000165303396638578290736218,0.00854139553857399640157677,-0.00982616082413381893012616,0.0144842272283742228705661,0.99801355339935937660556,0.0605178176755857624713464,0.00453088930807725095983862,-0.0594310633019766512696869,8.17596129173191776828844,-0.0327057465084715781600266,0.0546819256300799597103612,1.08384692027955287230157,7.33113656774140665106643,-3.48063662443090127140977,0.906765078435308402582393,1064.21928340338877205795,1062.36540678511551050178,1045.26255337175734894117,1065.83130362966971915739,-494.435417855629111727467,-1127.11323717430695978692,-444.993492657749413865531,-244.958025790992678594193,158.475037981391409402931
0.255000000000000004440892,-0.691795352022666509839155,-0.397860432463372493128162,0.28020685042365028882827,-0.00151420521027049461391945,-0.000573498973312585127483365,0.00892240097120734418356669,-0.009812176850579902229188,0.0144605741338066553364206,0.998013626644111195851394,0.060524434304307393739375,0.00632270354725695746256342,-0.0572098647251932795887441,8.15491784250883178231106,-0.03225618915922019019904,0.0540567813719454171028644,1.07968403289653935850367,7.33115496395461629930423,-3.48070253673756813128648,0.909484538063412673025709,1063.06784161130576649157,1059.83025371279222781595,1044.35738132933443012007,1065.39886658463751700765,-491.167398542801947769476,-1003.37095099803173070541,-341.157850232775388121809,-152.861809461319211322916,158.479326419478553589215
0.257500000000000006661338,-0.521168291698291374913765,-0.257499079618971060678945,0.248380569264895045833441,-0.00245414926355070348376608,-0.000622957955005736755543788,0.00945333093795386672497649,-0.00978823913792769423336537,0.0144327947374154434700966,0.998013657606669823962875,0.0605344231575288618807384,0.00839821637337850868121336,-0.0550156358658935237815335,8.1345129495266661479036,-0.0317686400443897148937467,0.0534251719642559394496395,1.07544586456333357560311,7.33117300434099039563307,-3.48076735833082828719398,0.912193290781796561894623,1061.76344641067476004537,1057.34855203012534730078,1043.55676412059347057948,1065.06699458236312239023,-618.285262938933897203242,-1082.60536975699233153136,-346.54033395959203289749,-157.30505616461400109074,158.483568029816694888723
0.260000000000000008881784,-0.346283368791630630223466,-0.124537034148231889885139,0.215990792058277564224866,-0.00328572970158031926746212,-0.000521451991469129593793908,0.0101636997646195794547941,-0.00975837262562396709486556,0.0144063988767468946494699,0.998013778292840436634492,0.0605436237574443550379932,0.0106160081102867794033973,-0.0527845468331511816217905,8.11481295809027791676726,-0.0312504735495026664260365,0.0527989499745211213199703,1.07113607128108201393957,7.33119152324662870512384,-3.48083113029902957435979,0.914890901139514878259718,1059.97641529661109416338,1054.41722686400726161082,1042.6246796595364685345,1064.61234130381444629165,-688.708724606657938238641,-1069.57817567090296506649,-346.163928401983582716639,-198.99879345894061088984,158.488602515669782633267
0.26250000000000001110223,-0.23048664206116151187409,-0.0403805153959344784175833,0.188055487686986627648977,-0.00356161678539766149084733,-0.00041982566173101029194728,0.0110564339982389316791034,-0.0097271706925713460195615,0.0143859816634694086950885,0.99801414559079781874118,0.0605475877480625770954425,0.0128237422135606959905374,-0.0504706038527393888171169,8.09586800985179166900707,-0.0307106543594795645957252,0.0521881798905627983242717,1.06676007037828046719596,7.33121103305129917515615,-3.48089396617624347030073,0.917576327534627922410948,1058.319902787641467512,1052.00066115177082792798,1041.82594447858355124481,1064.07200061506841848313,-684.393291707510229571199,-962.254333962481723574456,-329.290562810092239942605,-269.978136403915186747327,158.492750820041948145445
0.265000000000000013322676,-0.145481894274337442141132,0.0265941686180384551096978,0.155912879038946683429856,-0.00331312688817874366475902,-0.000368866541800477124729563,0.0119396360389356793324511,-0.00969932757418531452109356,0.01437319564311469177742,0.998014718176958970374812,0.0605458180986039387616593,0.0148705302347509303595441,-0.0480778331907211892159992,8.07770932420777576510318,-0.0301589869982387265290313,0.0515967710747189528541767,1.06232512797769507173484,7.33123116342177993942641,-3.48095560861042674360988,0.92024773416282945603939,1056.55444883807354017335,1049.60595519419484844548,1040.9782268454860059137,1063.26245062179486922105,-782.513170267383657119353,-1044.97333894196253822884,-383.804184178779564717843,-429.167369733886118865485,158.496849219769813998937
0.267500000000000015543122,-0.0671270024208622945183222,0.10306705647551302196252,0.117783450369328079876396,-0.00305250702063935511892945,-0.000371951654306485542285376,0.0120575538162120063367944,-0.00967645239505124203638342,0.0143690660203204083333883,0.998015470386258485291364,0.0605382117644707659631642,0.0166577659710809393434072,-0.0456203783396912365688536,8.06034686802993149967733,-0.0295996150593347308321857,0.0510280368704286307890428,1.05783992744235910699047,7.33125061707678327138638,-3.48101553530538021519192,0.92290347164419428427351,1054.4073369363045458158,1046.77579445706101068936,1039.90692355768965171592,1061.92616376639898589929,-779.298839906868352045421,-1023.45613386255445220741,-398.023096019278113999462,-548.507024117906894389307,158.501708469361432207734
0.270000000000000017763568,-0.00473669126360741488124262,0.174483890963443522004184,0.0919229166849728773769357,-0.00326010059993541746747869,-0.000389674473107677339211302,0.0112892329926130505213244,-0.00965756228088353319005677,0.0143731773441363348819966,0.998016362267102330463331,0.0605256714940638138044982,0.0181338945493860273505682,-0.0431362336477913513310689,8.04376814772727932734142,-0.0290322312017306481679579,0.0504828530439440648081018,1.05331404651293270013923,7.33126793672760701525704,-3.48107331167080191747232,0.925542902015325852360661,1052.65795463853919500252,1044.48867452488207163697,1038.9881113653896136384,1060.51991550120533247537,-681.399156139422643718717,-885.760637371503548820328,-365.493820921755855124502,-608.648219131145538085548,158.505708006616629290875
0.272500000000000019984014,0.0775549537334974670166332,0.262708482925917086170386,0.068431832533978234622829,-0.00396311818206178910484194,-0.000327403118363492925783909,0.0105198542430497837818493,-0.00964100200811716066817691,0.0143844857168374442440983,0.998017314900561114399125,0.0605100140635353514473316,0.0192646685859725330658421,-0.040675970460053383070953,8.02793793725281190631904,-0.0284562062873185972478041,0.0499610593480208295402711,1.04875704176199313621964,7.33128199072922459578194,-3.48112838356960718755317,0.928165899226471524663395,1051.00034115560742975504,1042.34699127020348896622,1038.07945445308087073499,1058.88292267074325536669,-644.336165700451033444551,-818.131024178955385650625,-354.808812633745787934458,-674.881813859109911390988,158.509654938618723463151
0.27500000000000002220446,0.188246282524294178406521,0.366489820399473087420006,0.0316551377598177988148542,-0.00478261497691032100298969,-8.95759647484651520517665e-05,0.0106506417888202666727215,-0.00962606093634866752384305,0.0143996236893926786437614,0.998018205665925361991242,0.060494182202449627017149,0.0200108552854048570013301,-0.0383310584463865539062155,8.01279949357111220820116,-0.0278734941765702466665022,0.0494575663424703035331298,1.044177784743257175748,7.33129227283655637847914,-3.48118026047327244754115,0.930773440051924971783137,1049.43627381003693699313,1040.39801940398729129811,1037.21406730222088299342,1057.14550643190978007624,-601.601133322628243149666,-714.30203591094073090062,-326.823587341368408942799,-692.693369824245905874704,158.513557807731700677323
0.277500000000000024424907,0.333206386770088625048913,0.483671489672184207186945,-0.0463800461360621973927465,-0.00497980687566308612840293,0.00052821790315937247259348,0.0120305416551641057576472,-0.00961544063308658603084211,0.0144152783354039044222406,0.998019042230740671683975,0.0604784040019823443401492,0.0202879190271227950737032,-0.0361978900208430459661813,7.99827637738155505786608,-0.0272933314723180532601621,0.0489669885715965091943502,1.03958343593590507580871,7.33129947961825578772732,-3.48122929934021207998285,0.933367543091067286553653,1047.99233548899428569712,1038.77548109064878190111,1036.44533651637402726919,1055.41945582162202299514,-605.646044046806650840153,-618.549804938901957029884,-306.167548687653550132381,-724.254644886922733348911,158.517407353558212435019
0.280000000000000026645353,0.528157171387472090806625,0.624195606596030572177369,-0.204922049667166455977352,-0.00390930031390723103923435,0.00192296036709536368944362,0.0138999432150108768319052,-0.00961066849487783071703806,0.0144298728923032658355563,0.998019919678963307596575,0.0604612384440214173375594,0.0200393215944083338819759,-0.0343454289037013749119609,7.98427530030739873723178,-0.0267224958964705529285144,0.0484874151532032129918726,1.03497908139573113750487,7.33130472991873816113184,-3.48127611447575846526092,0.93595017647504974434014,1046.40804358980290089676,1037.30527037929277867079,1035.68322955878261382168,1053.52423320747516299889,-553.327400906527600454865,-451.859717719844013572583,-248.992505619253051918349,-647.388939033816654955444,158.521965339740006584179
0.282500000000000028865799,0.68789615476536791760509,0.7258792907579699749121,-0.380715549481343229487607,-0.00224048677147188797509347,0.00370999019299310568709149,0.0144794108724648259295398,-0.00961362584895010356678124,0.0144427787091082338033488,0.998020883214576381980976,0.060441790861400425394212,0.0192137237340377631245047,-0.0328278171874357566073499,7.97068983668464792202712,-0.026168298935479693267947,0.0480182430654518960233545,1.03036759730911908761186,7.33130870235245080124287,-3.4813210340719029645129,0.938522393434038648685203,1045.22569848446164542111,1036.51618250204955984373,1035.20037398827776087273,1052.1825111264529368782,-439.148973445571357387962,-225.903276541202814087228,-163.61205351963675980187,-476.160066850161058482627,158.525712857610329820091
0.285000000000000031086245,0.821741487744069409870917,0.793550398425373115784964,-0.563423015026729423482266,-0.000116105359116078373470093,0.00599708937440218085163091,0.0133232396286129140677845,-0.0096242863014389199577403,0.0144552808603660067759966,0.998021973183400024076661,0.0604190941637742923164822,0.0178002422502723731123631,-0.0316654385670189636448058,7.95740439371033136950473,-0.0256338903430776456071616,0.0475622743255781563198603,1.02574975027766779334115,7.3313117068847395429998,-3.48136427080709864867458,0.941084816290706838159963,1044.2122987225750421203,1036.17575399658676360559,1034.86516929118442931212,1051.14343287322435571696,-400.670878079426643125771,-58.7878466044912286747604,-125.119335674025819571398,-390.238142588622963558009,158.529408470403211595112
0.287500000000000033306691,0.931436959928538699138301,0.821452022354711264284788,-0.733172594111199060762374,0.00288741968121100991973016,0.00893976703993169460882307,0.0100956219954145588746375,-0.00964132189507722198174022,0.0144670834723366718843618,0.998023212519949742826952,0.0603930572040434834879541,0.015821936090691365861538,-0.0308992282558803316172558,7.94429892366368850531444,-0.0251191788462952342309009,0.0471182885379764979094652,1.02112473024219196915396,7.33131369454805525975871,-3.48140620772362918700082,0.943637536094931173025202,1043.22234409406451050017,1036.22224326902710345166,1034.57477730990763120644,1050.2313204135098203551,-323.145626678664143582864,77.3595580017180282084155,-101.882992077754479964824,-291.252739418863029641216,158.533784550770832311173
0.289999999999999980015986,0.970167748023526343992273,0.79700389828468976016751,-0.799585241173735083997087,0.0057056341621550101320115,0.011397992358750689764757,0.00668592655050243012126998,-0.0096626971835478709521583,0.0144776409860181160677017,0.998024624817867578308039,0.060363756276364109731869,0.0133244823419294208810548,-0.0305681646898605247075764,7.93125290066390231658033,-0.024622215277535060284908,0.046683702613717403817617,1.01649026746202997273372,7.33131461868401324011302,-3.48144737188542441330696,0.946180720126239660494605,1042.59657058918173788697,1036.56255178659534976759,1034.35575433079566209926,1049.68716917613005534804,-212.556102605960745677294,174.688568926287160820721,-103.935419320260891140606,-196.731335177039198924831,158.537383633681287165018
0.292499999999999982236432,0.949981101753989864988625,0.72773837417202436039787,-0.77071000172534587235873,0.00848512151474313872090427,0.0133825053177358301026434,0.00367044202617271145619449,-0.00968837571186191917615993,0.0144870185176229644002932,0.998026112085052763411852,0.0603328095669307465365172,0.0103319611701236033218798,-0.0306962061570019706380208,7.91814894969506166688689,-0.0241448963845567292352268,0.0462559523719660858898095,1.01184275352205643727643,7.33131476183048569339462,-3.4814883277065709066278,0.948715318967778609149377,1042.15956358103471757204,1037.09568611365853030293,1034.05510021330633207981,1049.24766373762463445019,-162.992371815334848861312,246.378059747621364294901,-177.947022561465757917176,-201.082104633314713737491,158.540934898427252619513
0.294999999999999984456878,0.863644259368794298126204,0.60535972205273758106614,-0.63426536700781788180592,0.0113586303502408118154543,0.0147650906436155859857706,0.0010591092939142069100783,-0.00971520457478976771914514,0.0144963665661736757633848,0.998027532566015507242696,0.0603027869318633544248875,0.00692656902197365947904117,-0.0312784466410989531182096,7.90487626167654866549128,-0.0236826262219688651877725,0.0458341529867569569267616,1.00717781663722316665144,7.3313144549854252218779,-3.48152983204216992518809,0.95124108297587806060136,1041.78160873010506293213,1037.79444208533345772594,1033.46601921798833245703,1048.6817586529634809267,-130.807292837880481783941,240.671141928396309594973,-272.992832626459630773752,-235.089397024921510137574,158.545142965023927672519
0.297499999999999986677324,0.749277578500357477331306,0.477788095206680196724847,-0.453245240244694258535674,0.013221287535677179666993,0.0153940528379232274142074,-0.000283236384139843276608328,-0.00974212753337766641792417,0.0145074097824725665312195,0.998028721478881108986059,0.0602761604427599767541679,0.00316559281796746638804052,-0.0322931140479343625759867,7.89133327781981463999728,-0.0232348549964663357580985,0.0454175867063358537634166,1.00249058372134691730082,7.33131418377902566163584,-3.48157251407042345192622,0.953757415661173002519035,1041.50552711684531459468,1038.29904182330051298777,1032.69013605017403278907,1048.07221675250002590474,-126.400554317160526807129,156.316131720222841750001,-388.147789077129004908784,-290.643271584940237062256,158.548606335443565740206
0.29999999999999998889777,0.603255138255234801825111,0.322801594618157383642654,-0.227369415288663195839902,0.0145711483315000972504905,0.0163006491752545959461607,-0.000941650725144850021808285,-0.00977095533930967888314179,0.0145204584880949446462628,0.998029532464286828208344,0.0602549765787633653801869,-0.000929522637102532522934695,-0.0337327645795466590783462,7.87742996481059787328149,-0.0228064069853123919939808,0.0450018953363540141765498,0.997776230131866892492098,7.33131393953796095530606,-3.48161648689191194350201,0.956263453817535746814826,1041.14960595851925972966,1038.57602274393457264523,1031.52528027260268572718,1047.2285422950387783203,-173.580640081126915674758,53.4492537235109423932045,-538.621843299960801232373,-382.679586384392337095051,158.552025935553729141247
0.302499999999999991118216,0.438298517836729351060399,0.139522134108484657799565,0.0176260775501800026621169,0.0156999286168805866903408,0.0175438315129687501248146,-0.00116052476383163337761428,-0.00980172336349352524287326,0.0145348410110830716934771,0.998029940028880346858386,0.0602398050236427895498537,-0.00530142700101227104525492,-0.0355925690971338887225173,7.86308939436559128921544,-0.0223983008545469187977606,0.044580902579947428998608,0.993030404259183430148994,7.33131285409555832899287,-3.48166161744321689397452,0.958757908368601086124272,1040.63762391643967930577,1038.56628809191806794843,1029.99702683367422650917,1046.15881882057806251396,-259.520866077218443024321,-91.6873175403906373048812,-698.689331200420724599098,-480.26709567866373618017,158.555410000171804085767
0.304999999999999993338662,0.25657662870824660128477,-0.0798412025859189661280979,0.265258664002335997622595,0.0166909067232065971841948,0.0185783438800256502088093,-0.000896896631824963875591339,-0.00983421314094672267824837,0.0145501262356772676637151,0.998030021665930466845396,0.060229497781908204745438,-0.00988323925229839944650578,-0.0378525686945414135964327,7.84824841986830090689864,-0.0220110800873174854153103,0.0441492036959489353442621,0.988249170966100209945182,7.33131031599378335528172,-3.48170771101818887771628,0.96123962412372709884778,1039.85200162813316637767,1038.11758615623261903238,1028.03183361660057926201,1044.82720681664545736567,-419.70226285161476198482,-313.484723421106252772006,-951.109029706866863307368,-631.422927483208127341641,158.558751932953668983828
0.307499999999999995559108,0.0277014599199470884505203,-0.370833708285004837179599,0.538583880806600356905278,0.0172801386786017377450442,0.0189129003483280502817543,8.29713874847188876011927e-05,-0.00986704255609464030152278,0.014565901900817685224454,0.99802986334113252819833,0.0602229568544675603058991,-0.0145851766391001044786968,-0.0404807904235456317287856,7.83285820029955193177784,-0.0216431157753701024215598,0.0437020832261129296703039,0.983429030572466222892558,7.33130605988318517773905,-3.48175427717265284499604,0.963708286728468865867114,1038.53911260218160350632,1036.99886447481253526348,1025.2414816851398882136,1043.00170418316201903508,-540.622529264464446896454,-508.608541813873216597131,-1075.72069701029613497667,-689.304559905621658799646,158.562714198853200286976
0.309999999999999997779554,-0.163476123024966252250678,-0.61363619415952241897827,0.725153731351109609448713,0.0170362558256288605662565,0.0181168204335668443782925,0.00161738999477414272659681,-0.00989864283552531303012056,0.0145793514061126668751589,0.998029515311153914147724,0.0602202891499145770426438,-0.0193088775496982473223184,-0.0434731109353240011139441,7.8168844617101900240641,-0.0212922658819823737430532,0.0432308899551960487683822,0.978566970117675904994314,7.33130013189477747204137,-3.48180035696824496938007,0.966164442698005276888296,1037.14888898181084186945,1035.57454344716325067566,1022.65323013154909403966,1041.3806840171173462295,-602.598332264687428505567,-661.492866487923834029061,-1060.43913349960712366737,-644.249524115184044603666,158.565976314357925502918
0.3125,-0.344510126695202201219104,-0.819876750516812524693933,0.842725842860700402603413,0.0161264035171108446875543,0.0159922888243995316159829,0.00407695587274890195589316,-0.00992762302522637134216676,0.0145867346839253751722421,0.998028976409425450100343,0.0602226528145982167861128,-0.0239559649982305292170714,-0.0468318208771443603155582,7.80030690311482199916782,-0.0209566264323070954034289,0.0427261553859651366238381,0.97366021340243535941994,7.33129246032366577168204,-3.48184517587499264834605,0.968608919653242250724645,1035.52612094085816352163,1033.69140014237291325117,1019.93928601764184804779,1039.78045656258609596989,-739.297965389186401807819,-906.750541461587204139505,-1186.17059676987423699757,-673.714325559512303698284,158.569197306476212361304
0.315000000000000002220446,-0.541643588950030285822379,-0.982919734580126047696069,0.880357988023846016467644,0.0148227643688720427117556,0.0120305986070175438551466,0.00799665875042856327814533,-0.00995411758998126020014929,0.0145843460109540429964214,0.998028284661961473389624,0.0602302969051174974524088,-0.0284516841635134506982574,-0.0505538903367750355744015,7.78311827794930799484519,-0.0206369690838771532859219,0.0421794245488696789569971,0.968706089586388263690253,7.33128312799026637947009,-3.48188834232875477070479,0.971041231408472427233391,1033.4523991548649064498,1031.04079073985531067592,1016.72237714769971717033,1038.01211238931978186883,-757.631501775357946826261,-1007.65813341295051941415,-1146.03461797412273881491,-610.600547842477112681081,158.573015189485545306525
0.317500000000000004440892,-0.685276931286784574126614,-1.02846473251484460398331,0.820713311305543591345213,0.0137702584585937815031542,0.00811436212650141520941194,0.0115215906444567275229707,-0.0099786864136998127544631,0.0145728119918447779346238,0.998027552793454453272659,0.0602410991661475395120284,-0.0327336032236184362731457,-0.0545653967066331985202865,7.76532316150603385551676,-0.0203347948895086123866083,0.0415916506177229777785342,0.963701766747645738320216,7.33127245524393966746857,-3.48192969519669270894724,0.973461700468452928447505,1031.73796343198137037689,1028.65310947530815610662,1014.20911292777122980624,1036.72745382337370756431,-656.847719463530097527837,-951.147956228350381024939,-940.269885721180912696582,-469.107208850936842736701,158.576157610618651006007
0.320000000000000006661338,-0.799918267760877155225785,-0.978707682464005412903418,0.683287353902260807814173,0.0121331843860110928645657,0.00464353297127503752278477,0.014249371441301209376129,-0.0100024187571907882676747,0.0145548686171862434041158,0.998026791794940471014286,0.0602540237369179471071945,-0.0367525573274224207076522,-0.0587587496435438005892848,7.74693723391849253800956,-0.0200522900171041691674834,0.0409685640461418393298842,0.958644546137620623404985,7.33126070233917204177487,-3.48196922407371189933656,0.975870833549983385246662,1030.16816055754725311999,1026.28505095871355479176,1012.0210277190938086278,1035.66657634506509566563,-635.620464567318208537472,-991.713041124693518213462,-858.253619928290504503821,-419.60374847044437274235,158.579259838159316586825
0.322500000000000008881784,-0.889842241390151555968657,-0.834131900973114626118843,0.473120419715355122747269,0.00905556683367081047264513,0.0016806115836665148997181,0.0160085028240415649936068,-0.0100253659030965017184833,0.0145324610659274579271827,0.998025952568835417189064,0.0602693987882582937753995,-0.0404475380452834695765851,-0.0630385988054915080702756,7.72798661215028648285852,-0.0197888590827180362030635,0.0403151323781916065547293,0.953532319693770835655755,7.33124810482477329287576,-3.48200674679311594772457,0.978268155276585282820179,1028.55986110914477649203,1023.69454426968468396808,1009.91784482812977330468,1034.62943508102148371108,-535.248310758651768992422,-883.056789470901208005671,-670.066798212041589977161,-349.665642570243733189272,158.5829366801879700688
0.32500000000000001110223,-0.917665531893051222844804,-0.670994706320230172025276,0.299999381596524561377493,0.00603338320560193371727697,0.000218812375413434285218242,0.0163271456373348215762586,-0.0100470290812623118392732,0.01450665228597049043191,0.998025069994498692516061,0.0602864737827048940976837,-0.0437556029791873815626424,-0.0673257133079452896318173,7.70850649721562941607544,-0.0195418659159070431940997,0.0396353145357435515672151,0.948363714300342830476609,7.33123536948095200216358,-3.48204239265588055829426,0.98065251487862870050094,1027.49191900375399200129,1021.86976701135904477269,1008.67069372803359783575,1033.9182481322138755786,-367.912214331817835955007,-646.978920373543928690196,-389.890946373520478118735,-266.519428296032629077672,158.585963058232039202267
0.327500000000000013322676,-0.899605202672943082831125,-0.496440833321973251646142,0.171612483448628228011046,0.00339375974713040972144396,-0.000454547353750460751600077,0.0156402099690687163002778,-0.0100670918335524651326951,0.0144793632817119422712127,0.998024262489683677834762,0.0603028858433406547701061,-0.0466268556426212080201488,-0.0715325794660767178001493,7.68853959296664424272194,-0.0193081958334531088306019,0.038935200534212510703469,0.943137995397035133748886,7.33122347629977966221304,-3.4820764022023027450814,0.983023442241379941108903,1026.72030003748568560695,1020.45964966781696148246,1007.96839009626216920879,1033.29683793954131942883,-273.622571351461147060036,-530.316722722158829128603,-196.342252644558186602808,-269.297698350464770555845,158.588951058690554418718
0.330000000000000015543122,-0.842293248531787108746016,-0.300796102325192993287573,0.0990495311515971477156484,0.000994706286708884647451701,-0.000714515283850324957326539,0.0140767748426670301353791,-0.0100834052665525492759047,0.0144524018737826227820609,0.998023645317437035906494,0.0603166663399513913734751,-0.0489940647437181117651583,-0.0755780607919751962198163,7.66813523205736036203461,-0.0190805568633011408963274,0.0382212420871742841743668,0.93785518881687368608624,7.33121284884827328909296,-3.48210855559868992514794,0.985380160228591206461601,1026.12380614699668512912,1019.21818339774824835331,1007.68898246481080605008,1032.57175964046155058895,-167.107242334941332728704,-395.727281590552252055204,-28.6690592131662675967618,-272.635079162500687743886,158.592493180552395415361
0.332500000000000017763568,-0.780258907877081298032351,-0.158869937863831883761989,0.10811647774943122790603,-0.000501421831605678900399548,-0.000692576801890350973213428,0.0129326629250326018832906,-0.0100947447257001745452021,0.0144279743959995418456366,0.998023238713892646423176,0.0603271793964362049167427,-0.0508167860578051175379777,-0.0793833382180978708309027,7.64734780629021937414791,-0.0188529895785378015515832,0.0375007705286802411892566,0.93251582481626338338998,7.33120346768031883044614,-3.48213833321512344909365,0.987721349148553695584951,1025.88476382581097823277,1018.48101325986419851688,1007.82504480019633774646,1031.93366254372881485324,-46.3831434433358964497529,-260.352632449075599652133,99.5607853778209630490892,-270.110585188467439365922,158.595409303103366482901
0.335000000000000019984014,-0.717351508687103622818881,-0.0392503465426697548124046,0.166277207387511255509693,-0.00179772905777060522033994,-0.000591574145970271227969184,0.013014193309494546599292,-0.0101032807386117959302929,0.0144086792818961251239074,0.998023065748078308523361,0.0603330754310139466545237,-0.0521200510345366310738235,-0.0828751840045755389096982,7.62623542487579442195056,-0.0186254912341748089799065,0.0367815689581747276570844,0.927120613827455808397815,7.33119572132911301309832,-3.48216572417848091447468,0.990046392511509276701531,1025.89189042978000543371,1017.91642023550286921818,1008.18678639169991129165,1031.22120671451921225525,39.275562450075049980569,-220.332528301378061996729,157.155565836228419129839,-299.428387268835365375708,158.598288618020944795717
0.33750000000000002220446,-0.658371714482894998532458,0.0674798086552799297743732,0.236905334180536497612479,-0.00313258303715805352593349,-0.000481788004753085053692013,0.014188150938605545783866,-0.0101074973073906199116934,0.0143937950710841533474849,0.998023245557718596820962,0.0603328172835236736792908,-0.0528831173581545202488918,-0.0860362345690468405257079,7.60486056070732630018938,-0.0183906320028225621354689,0.0360656147599851956142558,0.921670599202298324037486,7.33118947787397079451921,-3.48219087828873474776969,0.992355454906861056407763,1026.08114163806135366031,1017.37935061835730721214,1008.61082262937748055265,1030.43652060738463660527,110.339468140773433901813,-235.107802006723233034791,157.256835726980028766775,-330.169209723407846013288,158.601136964293544906468
0.340000000000000024424907,-0.603787704381423040445043,0.168554189881305938047973,0.291766680421446766846572,-0.0045405469918050290686895,-0.000357617371547376539358404,0.0159632187100407461899376,-0.0101042251641297910202955,0.0143805167417170465943288,0.998023857549314885595493,0.060326314313411857903624,-0.0530718744423343199989596,-0.0888874239658870857194728,7.5832892360429573486158,-0.0181379249077038076642943,0.0353510692494934941620954,0.91616660166647423402253,7.33118405952202856212807,-3.48221389946713788532406,0.994649894921990629370612,1026.4435877704838731006,1016.74088122546925205825,1008.97307057033481214603,1029.5703606659021716041,179.881884055566672486748,-333.554905344294354563317,116.912413448881025601622,-395.631907234473715107015,158.60394667074524477357
0.342500000000000026645353,-0.539260221546995377472911,0.294902863630498557334647,0.318176922478373869207502,-0.0060324288318392054256134,-0.000113481987877805186488989,0.0179052898696384216181698,-0.0100904825134438113493074,0.0143651283090264307584771,0.998024872422335174171337,0.0603154626643087818371747,-0.0526674040869644297102603,-0.0914710808061018482151283,7.56159045713105104624674,-0.0178575891982007441127767,0.0346341485974302198957986,0.910608818896209482041115,7.33117861174835816484574,-3.48223445947224785612661,0.996930962838540879467075,1026.98055105833918787539,1015.71157609163583401823,1009.19538469662188617804,1028.45836107121226632444,193.603353388652806188475,-436.579755846991758971853,31.1981106100119802704285,-415.124274707840982046037,158.607270995145256620162
0.345000000000000028865799,-0.481832820001367512219304,0.409218313563389723963581,0.306125080150370931786341,-0.00693396202571386951335475,0.000264349011062843335627404,0.0190849573075148361278597,-0.0100713650229386861983949,0.0143477485724933882110799,0.998026239360707667636063,0.0603001965517429086571788,-0.0517887144790306688801884,-0.0937856296692406860016078,7.53983469788471705186339,-0.0175552247221441443114642,0.0339167997906608328917422,0.904996205810699394511687,7.33117367981312728630883,-3.48225269520279123725004,0.999199195240550008811908,1027.4116045374271379842,1014.55798244623429127387,1009.12906112338487218949,1027.49473929236296498857,138.754099047628074004024,-532.110417679723013861803,-90.9636992778359001476929,-385.323020031546207064821,158.609999180464996015871
0.347500000000000031086245,-0.411622441784988413182589,0.531938033123849240979553,0.268339944336518032574901,-0.00756071553387580377880717,0.000950542942134318118337089,0.0197770106194873201976847,-0.0100539162568912248535424,0.0143307613251715121327479,0.998027907666028113453649,0.0602795860913343459208669,-0.0505958015893067311608,-0.0958032319796440073877974,7.51809502072643009995545,-0.0172402907181577816353446,0.0332041925235357360257638,0.899326938216811200277334,7.33116992972963377184215,-3.48226940136893103883153,1.00145479691762129270671,1027.67432155357732881384,1013.05102400323721667519,1008.74056620023270625097,1026.53174597105453358381,36.9059226200078782653691,-742.054319032580906423391,-253.992999071601616378757,-411.983528790096556804201,158.612679666054702920519
0.350000000000000033306691,-0.294456520447215819302755,0.678328850717865083908009,0.209147514495382019772407,-0.00873357332320200130393317,0.00222674792790755575466743,0.020177732268255400838175,-0.0100441729358494505341959,0.0143158063910843406235651,0.998029770555380557617298,0.0602539991479046216360516,-0.0492398619474370760618065,-0.0975113543770983193237356,7.49644747947588818703935,-0.0169206273387087491322234,0.0324994228793270140132066,0.893598925118923692600958,7.33116742642030772003636,-3.48228542346138070229244,1.0036974053462397460379,1027.59613415052717755316,1010.84771085107138333115,1007.85909612802686297073,1025.43482164841248049925,-123.352098366105010995852,-861.760385717920712522755,-395.435291936023020298308,-384.15524665606818643937,158.615835396524744282942
0.352499999999999980015986,-0.154023335078710132961533,0.786032523481249967289841,0.158274476415131704065686,-0.0103649729667523570614263,0.00362264322725208698372512,0.0202764190646433084541655,-0.0100469531160642389089332,0.0143020001453546090341984,0.99803166678604660067009,0.0602255125480048447705883,-0.0478563171743204493480128,-0.0989376292731329320950806,7.47497067865204201098095,-0.016602170949357154816628,0.031800430597501629093049,0.887810137144023570066054,7.33116581695262681250824,-3.4823011733827402558461,1.0059269084436517349701,1027.0575610617468100827,1008.74222207464765688201,1006.76338974055261132889,1024.61096973777421226259,-343.755456374177697398409,-872.289896025981533966842,-513.213814764099652165896,-305.614640206229921659542,158.618409681646937769983
0.354999999999999982236432,0.0390992945947292100394854,0.856668882745406978784786,0.112783683139638143955175,-0.0119724652436249256320933,0.0052032733414370934549309,0.0202590407618267673295342,-0.0100598720061518005081114,0.0142896684701383416132847,0.998033609093468498940638,0.0601942039901141659474781,-0.0464775428272435967014253,-0.1000870988795502791735,7.4537457867379153242382,-0.0162789472927724505890712,0.0311075120727496712280669,0.881958732066507877789263,7.33116434455846999185269,-3.48231667689942581134233,1.00814388891854433971673,1025.87735686865630668763,1006.48626137094151999918,1005.29302705420639085787,1023.90674844738134652289,-690.440676733646228058205,-987.10474166170934040565,-729.126743353798929092591,-287.561646432027146147448,158.620920272227095892958
0.357499999999999984456878,0.314687461665022150114623,0.86518810846080995702323,0.0653215980776175736410849,-0.0124089098978593069533272,0.00770873147706835782494439,0.0202092935323982987594338,-0.0100786602790107933380614,0.0142781563723061635101663,0.998035644684996947617606,0.0601601353731947841030347,-0.0451081015265498916355646,-0.100978682801975555571872,7.4328544755546221978193,-0.0159427959679220646038722,0.0304189558411870966669888,0.876043293108570653160427,7.33116202548408324446427,-3.48233213286422937926545,1.01034839436407075652369,1023.60535767807857610023,1003.80669836633910563251,1003.11775602378361327283,1023.17316150561407539499,-981.506399551698450522963,-946.820406574192134030454,-860.253222592790848466393,-263.17250325489544593438,158.623852138707803760553
0.359999999999999986677324,0.552545244095326459898843,0.781711788064039514445369,0.0282086410078886580532487,-0.0111807604788219262098581,0.0106310184343848691118639,0.020191823478558332954913,-0.0100997756153249750726841,0.0142652971784503861119031,0.998037737264296231920468,0.0601250078280012104081642,-0.04376004340266229780676,-0.101654216718477949377153,7.41237694436281646659381,-0.0155880689764172509353957,0.0297300720619871061689565,0.870063101997706533907717,7.33115832787240151446895,-3.48234781694546224883879,1.01254026308986233573251,1020.96982487089780988754,1001.75215933807055534999,1000.9917609412424326365,1022.59088593110686815635,-1200.60091578022706926276,-752.471624643316545189009,-906.144977224902618218039,-249.732573733035451368778,158.626222677760523538382
0.36249999999999998889777,0.760567166575701114616948,0.579993331495531561081691,-0.013773876246124788086389,-0.00865278807158141420596831,0.0139089406950910036975255,0.0202274226772040308097722,-0.0101219254584310833916527,0.0142504077031837452643748,0.998039781403951997695856,0.0600909481325843236598772,-0.042475291386868875564975,-0.102134602660881673719118,7.39238980703562820195884,-0.0152144269814505281313011,0.0290385530428836843852558,0.864018250267990950419517,7.33115330807083243058742,-3.48236372041949149291895,1.01471863756851510274259,1017.60235309917743506958,1000.04434024312251949596,998.587031137659096202697,1021.92449863694889700128,-1450.70894934669786380255,-608.61720538414317616116,-999.85361358210320759099,-298.656957676780336896627,158.628511353521560067747
0.364999999999999991118216,0.921885267426192811512919,0.277905867651502769266614,-0.0661449848874511026064482,-0.00537836780179984114830249,0.0165823841544995125019124,0.020307701155547183691219,-0.0101417307856633207019392,0.0142368297449658540859696,0.998041758638798848224383,0.0600580319273783871936168,-0.041261471602855044615854,-0.102378475380342573441972,7.37296465124786237765875,-0.0148193487482951684330867,0.028349476589529246789434,0.85790989972353204340294,7.33114656618281657074476,-3.4823792191495717140981,1.01688173676123305710917,1013.71628012416431374731,998.70907331114983662701,995.992492873331912051071,1021.09760114272296505078,-1643.27315780367234765436,-434.686316346323621928605,-1072.28008221952586609405,-385.524009465779840866162,158.63072728120218357617
0.367499999999999993338662,1.01704482163052856158458,-0.123503966939971371319373,-0.1372473649597317768567,-0.00207204577118387956585766,0.0177184254766519222457077,0.0204138831095841410956382,-0.0101560474886366897823153,0.0142295996027035857173226,0.998043747267506553555449,0.0600242961708936859088759,-0.0401219864018406494055036,-0.102319166385161683385796,7.35416552345644092270049,-0.0144018356704073615531803,0.0276710456703427830349451,0.851740487446504435098404,7.33113773902528631509767,-3.48239358286070910253329,1.0190279996386726324431,1009.3859873101590665101,997.870908661390899396793,993.225630726561462324753,1019.99687858961999609164,-1945.68431026548114459729,-256.168528679745350018493,-1241.2787302238245956687,-554.206968676839551335433,158.632849511831068411993
0.369999999999999995559108,1.06367019958161646009387,-0.667657114943977614274218,-0.246873691127106664744417,0.00102086396857192351211863,0.0168062774859821066619769,0.0204851740415792349381263,-0.0101637186086884646202266,0.0142332379223329471423787,0.998045837357499077135969,0.059987382747465595178582,-0.039077491660360043346234,-0.101898952822583599431283,7.33604659310931417337542,-0.0139649977813074595289766,0.0270106555728650485348474,0.8455137144996084375137,7.33112666895645581632834,-3.48240625046888974125636,1.02115644729378507449269,1003.98785857283689892938,997.428230667751108740049,989.786099222212783388386,1018.32656629933876502037,-1961.37054241512305452488,-80.3955674992493385389025,-1268.58354644918904341466,-664.078302686811525745725,158.635280027546116343728
0.372499999999999997779554,1.06017184296333799586876,-1.12686859970493991056628,-0.354294456781182487414839,0.00307805246030234047269203,0.0140768341418695732553124,0.0203884312391199758185412,-0.0101653650526401569814672,0.0142499274631334525015314,0.998047986580464563388659,0.0599473873321413400216962,-0.038159073260014310380317,-0.10109547408301439164191,7.31865036999786511273669,-0.0135152416450749508075591,0.026371878944060785782133,0.839234385737258281601214,7.33111327168016480015922,-3.48241660691154875095776,1.0232668224358383302075,999.579134598083442142524,997.468930823894652348827,986.882712994315511423338,1016.67648707618593562074,-1685.33768323688786949788,76.2624770839919818854469,-1152.98103613952093837725,-694.847355567048339253233,158.637202913520553693161
0.375,1.02594316446259981034927,-1.5409653280264530295085,-0.464009830867755268535291,0.00513588177817932839408499,0.00966193668211323686279002,0.019937708718058017726138,-0.0101583931016115593809479,0.0142775454715690346824131,0.998050083324979908638852,0.0599070999224743938604831,-0.0373328948490674397686639,-0.0999458251126120883478521,7.30200700802765023667007,-0.0130533791152231282844953,0.0257517667851035053638853,0.832908283297558837965369,7.3310972203668214319805,-3.48242397335744335862273,1.02535951423082627442795,995.561170156652451623813,997.809543053171069004748,984.021194041515173012158,1014.85232952150352048193,-1623.2459921446875341644,180.039339920358372637565,-1228.28812233290022959409,-814.586232039277319927351,158.639012868658880961448
0.377500000000000002220446,0.955310098958103148802934,-1.94578586861118951745198,-0.569641708272254798650636,0.00769578078060151847539228,0.0033816938237561725011382,0.0187125755281837627408414,-0.0101431017998982811456621,0.014313130091800138968261,0.99805206826595149749437,0.059868140759345940538072,-0.0365935865403214169444546,-0.0985011219019286815568037,7.28613256529115727033741,-0.0125848317075642410212133,0.0251460897891085943811618,0.826541498915693617632883,7.33107848989474319978399,-3.48242831843939049107917,1.02743483226245468920013,991.462904637359997650492,998.369127523496445064666,980.741272382651004591025,1012.6035559159895456105,-1357.98061941952596498595,198.56803275006296871652,-1159.87213381806554934883,-815.146518583673469038331,158.641047556958142195072
0.380000000000000004440892,0.871471187503936151053097,-2.19318733509958319061184,-0.609733160871440582617709,0.00997656424583087675372894,-0.00220810419210549667076715,0.0169433376915263909923137,-0.0101215907007619777130403,0.0143547314398840206162156,0.99805402745327109759188,0.0598291674476858076348051,-0.0359507193195768917637345,-0.0967987871796629206766482,7.27102888511585820907612,-0.0121174632724280733481192,0.0245523378553903007248671,0.820140123380507457540034,7.33105780164727782732825,-3.48243029377426260850825,1.02949294538553859368335,988.771267059554816114542,998.802383216921384700981,978.221833372424839581072,1010.77659692858514972613,-917.221883813794306661293,129.851963313717419623572,-942.172979104065348110453,-704.693232029284672535141,158.642624444705091946162
