t,ang acc x,ang acc y,ang acc z,ang vel x,ang vel y,ang vel z,quat x,quat y,quat z,quat w,acc x,acc y,acc z,vel x,vel y,vel z,pos x,pos y,pos z,mot 1,mot 2,mot 3,mot 4,dmot 1,dmot 2,dmot 3,dmot 4,vbat
0.00500000000000000010408341,-2.19224047739798066913863,0.960043786076953065133921,-0.361652919412464968207388,-0.296632883934500768408071,0.0713582291504939320025969,0.0202227252813855090662898,0.0255944396034456199406915,-0.006553871218881180717164,0.00444385439569768090489754,0.999640702067909114880706,-0.0216877359061231067549613,0.122121921723998161368741,11.7412020587411483063534,0.0156384898535707438094189,-0.116389308910220035109262,0.838944922066168663477015,-4.43803396514228065683483,3.00380444056429629640093,0.204630884487025849205466,1222.29086277325927767379,1157.53789323363844232517,1149.7558119171396810998,1191.77700356925356572901,-637.71606385644201964169,840.843302080975377066352,-877.402278908266566759266,-501.364449395714530055557,164.344188023221136063512
0.00749999999999999972244424,-2.34735829773942850096091,0.721636843819397411081695,-0.460768223055648351582647,-0.298637496046332384658228,0.0727842664090486701766736,0.0196270162278831573898774,0.0251140829431480208655536,-0.00646197992898054490717996,0.00439154250129315283646125,0.999653358805339564696624,-0.0130106211467081456234496,0.115955039544462512601797,11.7340285129737154079521,0.0154717006025336910324253,-0.118289251692931099424477,0.843518525096457638667857,-4.43801073616497898655098,3.00340562830710799957501,0.206713031085976689515959,1220.6965726136181729089,1159.64000148884088048362,1147.56230621986901496712,1190.52359244576427954598,-628.611964503443232388236,931.228831190492201130837,-900.02841723094206827227,-439.98762102623913960997,164.352832016059608122305
0.0100000000000000002081668,-2.70220338442037144588426,0.398734120772710698421548,-0.534339513882146177614629,-0.301505038245537482222147,0.0735409767895305738205636,0.0187517860899411928365943,0.0246247011197052237396754,-0.00636671391379429151002878,0.00433874598585139159556689,0.99966620097357361540702,-0.00442377722197007106075262,0.109680103047845867170196,11.7266542343674089465821,0.0153083670306701780106096,-0.120217730694278601699665,0.848103849007136867399481,-4.43799129041824347297052,3.00300641063578765965758,0.208796661377137898751855,1219.14780295074206151185,1162.19403738959090333083,1145.25566983098497075844,1189.57706546412237003096,-636.206638266275945170491,1065.35255599242168500496,-946.79822468997349460551,-290.800841147665721564408,164.360881707045933808331
0.0125000000000000006938894,-3.25334503113291884091041,-0.00286820004123970739851046,-0.558929222953983284583046,-0.306632801507168983867757,0.0735266786820087808740354,0.0174725079091959216437413,0.0241335253557759810139061,-0.00627360075595702337825088,0.00428838010851670305839667,0.999678971269190363990731,0.00418182752271073487904118,0.103515868341148953302167,11.7189576743739678477141,0.0151629778072295828827976,-0.122164273895413399984022,0.852707338097541622801145,-4.43797650187402048516105,3.00260613771649875758385,0.210885542448763035894288,1217.51553942228679261461,1164.96676426880299004551,1142.82831509641914635722,1189.06958824002595065394,-772.632539446476698685728,1181.30472345878865780833,-1105.62529188282519498898,-119.871893506069696400118,164.368231724607312571607
0.0149999999999999994448885,-4.03641518403125765246386,-0.556286823577339828439392,-0.505428984744193621203578,-0.316499900869323891328122,0.0727989390595143448514648,0.0153980788715209360867364,0.0236519924934584235831636,-0.00619015465783093448565166,0.00423562476435395719731591,0.999691340073302847635262,0.0129540003045995055774853,0.0977868009901680657058876,11.7107989021383058769743,0.015056239444697033444398,-0.124110230610620972391267,0.857333938916033710953002,-4.4379655555517540932442,3.00220420882635385950721,0.21298442987471702392277,1215.28464025350967858685,1168.100561006884845483,1139.72754337157084592036,1188.97770599659202162002,-876.528492820443602795422,1057.13621870263500568399,-1177.29094752949072244519,41.0915243434374062303505,164.37626393926257151179
0.0175000000000000016653345,-4.69665109076864606407753,-1.06583071287258679404886,-0.37526635817919257176456,-0.328122995477742818160038,0.0715345394938691619968196,0.0130538548128748821408607,0.0231931731979610894489596,-0.00612599719498149643953644,0.00417304977768815765076793,0.999702945369611128967335,0.0220777661565895733097875,0.0928590860205745771693842,11.7020261705536672280914,0.0150133669526878749805876,-0.126032811334154642990413,0.861985914393812890921254,-4.4379569707495223340743,3.00179988783681439556972,0.215097454824391659533589,1213.1328969581845740322,1170.2524453623161662108,1136.94186035877169160813,1189.27504586174313772062,-912.659096668039410360507,709.597078398246480901435,-1157.82768108297182152455,167.507790883109890955893,164.382315684907808872595
0.0200000000000000004163336,-5.26075410105943586103194,-1.60685178244234561084625,-0.151068326202015545955959,-0.342675755283030181175263,0.0691433301914484571559782,0.010464628262645742085013,0.0227606655137239585751097,-0.00608868693056147276820855,0.00409821587028005081959625,0.999713646168118530432878,0.0316721858260332611578747,0.0888762171774736264850958,11.6924841791212781316744,0.0150542207668596349223744,-0.127924142633388970846653,0.866660187105860013723202,-4.43794912512336736654106,3.00139255394451121006227,0.217226465811428431917918,1210.72134477016948039818,1171.64854639887607845594,1133.93840496615598567587,1189.81524495100757121691,-1080.01069141169000431546,402.533690989639808321954,-1353.96940646355756143748,243.670875195630401321978,164.387718085990684357967
0.0224999999999999991673327,-5.74743648952917407513041,-2.25575872624065576488306,0.198621139748039216010866,-0.361676195408754785898253,0.0642382676505522942633775,0.00860765555976208095179114,0.0223495386145230595653643,-0.00608043830205861821069924,0.00401684409707377381576476,0.999723500778555651535839,0.0417129986275453501498589,0.0857775591322226249602068,11.6820217262236205613135,0.0151862563150222205227147,-0.129789950738246923078734,0.871348967112395400569369,-4.43794085490792600268151,3.00098148655340590806873,0.219372063870018285669516,1207.73284350112612628436,1172.26511381726436411554,1130.17201332645390721154,1190.4934002377212891588,-1068.82753325330645566282,43.9932036114441800123132,-1382.38936305474430810136,211.341510651072866266986,164.393468708022567170701
0.0250000000000000013877788,-5.97444841901950596252391,-2.75994388072696716918131,0.511585451603033480871829,-0.377591460442060711244494,0.0580705086857529126365129,0.00912016798357872214564335,0.0219448687944358601653594,-0.0060961738405133870585817,0.00394233450477557423319297,0.999732800438775992546425,0.0519895374956429456858586,0.0832613356218771527572642,11.6704989311213296332426,0.0154008173994442526533177,-0.131652481630483597641046,0.876039939728452177192253,-4.43793243700635642312591,3.00056534260593288365726,0.221533908655837469270367,1205.377207103902946983,1171.86851241693329939153,1127.02645815088226299849,1190.87195250426293569035,-863.795677781536028305709,-329.150925270687309875939,-1221.80978813785236525291,64.738258103534448650862,164.397663431791357879774
0.0275000000000000001387779,-6.03152428062440115752452,-3.1807054793708875450875,0.7767285418098305305179,-0.392838191710408790591202,0.0499617013203458790182587,0.0119452024474937003317709,0.0215266751073900780566461,-0.00613282987790593828170138,0.00387958543735623766213205,0.999741964451633768895533,0.0623338781692981958038047,0.080901342181044666457268,11.6577889374260799115746,0.0156939742388130798467216,-0.13354216696013276877153,0.880717790265062583365818,-4.43792460105320163421538,3.00014277218883096409741,0.223711633354823191677241,1203.4138651122184455744,1170.61935919091092728195,1124.06296438576464424841,1190.81709152823896147311,-734.196027774169465374143,-698.952928726021468719409,-1222.37398815141273189511,-164.857985155958971290602,164.401252650805076882534
0.029999999999999998889777,-5.95222058822248456522175,-3.54937320666433642202264,0.968330989999731661654891,-0.41014576619434772730699,0.0390010615269473573385461,0.0168823414673671852448411,0.021077514025787759399666,-0.00618281654547446230668628,0.00383065952198342668175157,0.99975139226343401332997,0.0724689746917817068094791,0.0783222423309969939531072,11.6437851756255419388708,0.0160534433683178906493438,-0.135484784900397059459465,0.88536706241881335532895,-4.43791828268491261866302,2.99971354511071464088445,0.225904439734457784805244,1201.70622696503210136143,1168.37374777330319375324,1120.91458821012520274962,1190.04766257848314126022,-510.050872988767764582008,-901.863162040581073597423,-1067.48982853691791206074,-413.02193111619084220365,164.404877460924240040185
0.032500000000000001110223,-5.80601280974020550473824,-3.72868155470752027369485,0.993621907510981117184201,-0.42379567334683354573599,0.0296003473214194144647049,0.0212533755907066308765696,0.0205930287308443600580166,-0.00623604015476637938558691,0.00379713807009120175514627,0.999761210208666373233655,0.0820594723133240555590362,0.0754426694617098547723799,11.6284042065202850579908,0.0164611608481778221024783,-0.137483035386600283001002,0.889975643824974405049488,-4.43791234958725233639143,2.99927907208042565656569,0.228111549977228572627652,1200.86361074727460618305,1166.11004338070802077709,1118.72551524308005355124,1188.75198187265800697787,-231.638956314554690152363,-928.750444280966917176556,-776.021074615072620872525,-648.592164973069316147303,164.407343834242112734501
0.0350000000000000033306691,-5.62584633246843157650119,-3.77354375799814789615994,0.878921516759741727753408,-0.436685063319070532195099,0.020397300931296984127794,0.0250547044942057255123569,0.0200747909241155916837407,-0.00628298490127875575855798,0.00378253653383829688966467,0.999771403817654169543516,0.090785642430470936403708,0.0723050950886333920752946,11.6115864110544126930336,0.0168976573518311891375365,-0.139529173441124060284224,0.894533415198234482801354,-4.43790486708350417899283,2.99884046790199931820098,0.230332294392885605915922,1200.54803218345932691591,1163.72999555189835518831,1117.03448283704983623466,1186.80470175361779183731,-64.5285058723857503082399,-932.865466619160088157514,-593.275288055474788961874,-866.941636075626320234733,164.409253454274363548393
0.0374999999999999986122212,-5.44779175248611746695815,-3.71224794872179897353703,0.670642734300852860762632,-0.448899951467462532406216,0.0113967941480077397664594,0.0279525725954346097867909,0.0195292165715215473853483,-0.00632430750388654830396185,0.00378610692613714442528172,0.999781805768556908198263,0.0985728025112981853794736,0.0690506484654979935111641,11.5932916512684958121326,0.017361210132813477413638,-0.141606827909619259475704,0.899032080955132428812249,-4.43789501457877566537036,2.99839798068585849932788,0.232566494971590737028677,1200.54096821791267757362,1161.44571604761222261004,1115.75913880280268131173,1184.41727369227987765044,31.2165696341708240879598,-859.545257496211434045108,-409.903406076319015483023,-1020.90951490254201416974,164.410716458070709222739
0.0400000000000000008326673,-5.29603994245191778134085,-3.53191003345450216244217,0.396321787665805780331851,-0.46053926470590467179278,0.00270161242916125768354085,0.0293519057938176758382198,0.0189623857015163710393324,-0.00636800090997824419503104,0.00380671311518421436048687,0.999792205520947718788705,0.105525305826081439164454,0.0657976206113574935141486,11.5734996243806218529926,0.0178621489378362960365187,-0.143700333134707092241911,0.903464176273993224697278,-4.43788300237399369052582,2.99795091994158191539555,0.234815077402391630956302,1200.70411503163018096529,1159.43226926441730029183,1114.98496580666824229411,1181.7001541791050840402,59.0906502362030963126927,-811.051976348698417496053,-219.002433343211833971509,-1208.005897661904555207,164.411660577567488417117
0.0425000000000000030531133,-5.15427167868262081640296,-3.19081105532292408355488,0.0612977480095409366089854,-0.474345487223324258074797,-0.00716772928834283600679766,0.0290854473691554288317107,0.0183755164595478213962476,-0.00641098496023797051468485,0.00384648327230870589951706,0.99980253888918391158569,0.111501149751922268293924,0.0625380039137406473770397,11.5522181314874696766992,0.0183888480162054876454469,-0.145803075686962463342056,0.907822770932539602206646,-4.43786925753184746668012,2.99749966638914910888047,0.237076550776306543832916,1200.83642146909369330388,1157.39045616586872711196,1114.66412663608662114711,1178.37724420397034919006,7.0837329654750682550457,-698.25900801738532663876,-8.21799852619733783853917,-1181.54992193458451765764,164.412220889009063284902
0.0449999999999999983346655,-5.06258252677454478885011,-2.81393385669074547195123,-0.175721572920199547995779,-0.48600083353119466478276,-0.0147664891808884906482247,0.0275539522747593780549469,0.0177630728085416099426563,-0.00644687907470118531927383,0.0039044490781083847179278,0.999812904626229292937012,0.11629950209741568567523,0.059097977213473817936773,11.5294773700685500017471,0.0189235447946565910060102,-0.147921250634471784790591,0.912100866462693726788302,-4.43785385484790584342818,2.99704429918149495293278,0.239349015779914048307475,1200.73953369645755628881,1155.94097422433037536393,1114.94387581403725562268,1175.79240456943216486252,-104.324268891514350343641,-560.454263701922400287003,233.140709574672769122117,-948.398963319414633588167,164.412231806466280659151
0.0475000000000000005551115,-4.97782175948923999442286,-2.35929220759154167907923,-0.331316468525894358698736,-0.497809549292871467152111,-0.0213427706507761938414802,0.025515498770170445819172,0.0171176956436375864167854,-0.00647422632414715575749353,0.00397818300878731087588669,0.99982341693705945040449,0.119852984617783264731372,0.055253780406282010373431,11.5053232509973266672887,0.0194568865006768364211975,-0.150065389838651530585167,0.916292538449912319364898,-4.43783693741002949195718,2.99658437055104398538674,0.241630878704978041549012,1200.31480012463612183637,1154.58818484735911624739,1115.82983018395998442429,1173.63524938737327829585,-268.587146178879038416198,-620.715478215378766435606,525.00950273151784131187,-815.578569907301471175742,164.411795885068045208754
0.0500000000000000027755576,-4.85350865750082149929767,-1.75413165928869529963663,-0.409928213926870399497204,-0.511758640149393873031158,-0.0277902320859963990196118,0.0232817172692930916821918,0.0164426042529005993209079,-0.00649134711790264138514539,0.00406095826665460631066384,0.999834023566013363470972,0.122112816934869528040508,0.0510213370432350266092669,11.4798184055799286085175,0.0199798735610972125198437,-0.152227689144403294241314,0.920396703585706910111242,-4.43781767010077832225079,2.99612121714181700582458,0.243919545468571946633674,1199.39659796556315995986,1152.83739683325347868958,1117.56892332769484710298,1171.71451171989565409604,-397.261460728759800531407,-694.455157898119409765059,731.927036108891456933634,-583.178453681421501642035,164.410786660272634662761
0.0524999999999999980571097,-4.70730192926553936416667,-1.22879941824216198931197,-0.391832491978544805721896,-0.523102860545119008328641,-0.0316391922323608423828212,0.0218306357915634442756758,0.0157386325270316256019765,-0.00649550339546130488938003,0.00414417517267405468434083,0.999844739385900793671169,0.123028586435544207144943,0.0463584498484095330894661,11.4530399065378940548499,0.0204815745955155802116021,-0.154405759643221784926936,0.924412949044953302646377,-4.43779486053683314139562,2.99565621992314623511788,0.246213423377511259060313,1198.32849282099232368637,1151.11590905786852090387,1119.48946536450444000366,1170.71935711896617249295,-473.038372474684592816629,-766.387855560242655883485,826.641854758827776095131,-277.30905197322510957747,164.409561702016304707286
0.0550000000000000002775558,-4.48750425520597584494453,-0.721593864011622621035258,-0.30668894240910810067291,-0.534280897745856409031262,-0.0334542536196354295396915,0.0209020516471043853179435,0.0150092506675247351621838,-0.00649171082654325954514052,0.00421874450559484113348896,0.99985550823579893986448,0.122750120412955743276484,0.0412814878645394456313511,11.4250727487727807840656,0.0209652758874800532185034,-0.156593526631350565825329,0.928341970421508344557537,-4.43776745231893787746458,2.99519009586095208419465,0.248512683812730172938643,1197.03140610318973813264,1149.00545755545226711547,1121.70213260148898370971,1170.32796646002952911658,-603.633251074642771527579,-1021.51234769994425732875,983.62232741451316542225,-53.4368935762358390206828,164.407962090787009401538
0.0575000000000000024980018,-4.1068995647473931498439,-0.17791185117529922932178,-0.156054863446811187266405,-0.547328776558116625317041,-0.0336928705108873322027208,0.0203849237781883185771648,0.0142663252102207503690945,-0.00649185832161657504213448,0.00427798628876839386048214,0.99986610893993654869405,0.121604063110175408812808,0.035997531339818700235611,11.3960097589873026180385,0.0214466574378775684528442,-0.158770355402843899028653,0.932186667594228857147698,-4.43773446126899440145053,2.99472334375750648405301,0.250818631057417640306539,1195.31032656561910698656,1146.00834731936879506975,1124.40757700157701037824,1170.45217265108499304915,-649.36802012689474850049,-1162.99309075379892419733,961.260055246839783649193,124.434831696226012809348,164.40563536684251744191
0.059999999999999997779554,-3.67535295491631863740167,0.198159886278035352047411,-0.0110602885115943933014293,-0.557661415250416125921618,-0.0327275125512718825793179,0.0203500110018899720010221,0.0135258286827755185716127,-0.00650668637891874037521012,0.00432047335701873230773273,0.999876242325678510347586,0.119906409024342297531263,0.0308065848328055724714147,11.365955477954548413777,0.0219386047644673023993001,-0.160908595927870656794312,0.93595060545468211632425,-4.43769495309438166685823,2.99425674704562450045842,0.253132656317029858250578,1193.78456600255526609544,1143.19049210168327590509,1126.50843287772318035422,1170.95014061851065889641,-626.981991626417197949195,-1164.39477006051743046555,776.988053420109622493328,257.953885831011689333536,164.403374888039166989984
0.0625,-3.11851451030097015504339,0.482547720252670009344342,0.131876091215298335557193,-0.566931945969159523102121,-0.0306748002225697841138796,0.0205832701047552503459404,0.0127966521767298360007237,-0.00653965700920310175764394,0.00434596998770122016492179,0.99988569924188419602018,0.11782198455793324587404,0.0258513414110802808298928,11.3350280344157461343002,0.0224416035262963511898171,-0.162994024417619343125807,0.939634292382617197780803,-4.4376505496070297596134,2.99378973757823940715639,0.25545754444706608721205,1192.17541660748702270212,1140.18637346906621132803,1128.29251726867755678541,1171.74194208024005092739,-659.879227656301168281061,-1205.71292203780899399135,653.535492188120201717538,352.440033097263608397043,164.400800524195403795602
0.065000000000000002220446,-2.46674258106200072759862,0.695592755600022205619837,0.258198101090303444582474,-0.574823907595095273670438,-0.0278664798715732194012151,0.0210726377867815894973091,0.0120822724898520510866673,-0.0065914124444362955437815,0.00435437434573318800368202,0.999894410025507496264652,0.115464765252441481369061,0.0211590764721151791682985,11.3033559936662584277656,0.0229528723716909063834457,-0.165022696374561600451969,0.943235319493331836326888,-4.43760480950457925075625,2.99332105893883948510847,0.257796211026971311408573,1190.48516986427375741187,1137.16192749149422525079,1129.77611033866378420498,1172.7123407839969786437,-697.218705537897562862781,-1182.37614941076458308089,531.004078877230767830042,421.957049813590458597901,164.397979702405677926436
0.0675000000000000044408921,-1.72931645530865418791677,0.848000954676818574640151,0.347423189289409017899146,-0.580304187032274376711882,-0.0252362643573094819204883,0.0220318956281481438674863,0.0113822048579960231201591,-0.00665730059626909367181957,0.0043482064680924375002502,0.999902406642832031202772,0.11283842248543429764851,0.0166771645415089986297374,11.2710790379656842219447,0.0234610193859712268249496,-0.166998300510967312426658,0.946749243748348234817058,-4.43756060812900710033091,2.99284962004073618047073,0.260150099437968129745258,1188.68932307979753204563,1134.27449272201238272828,1130.94753766306371289829,1173.8517273293080052099,-806.420224386419477013987,-1202.96881240501420506916,474.139428254283814112569,533.714987236134675185895,164.394877361747887789534
0.0700000000000000066613381,-0.798427112117606863073149,1.01378726496187132610771,0.392410664097259220817193,-0.583517639968932688709913,-0.0236166723921514588868664,0.0237651024737822250121333,0.010686982263151234562315,-0.00672994957717300973376595,0.00433621416851772290695921,0.999909826677512048043184,0.10989016616363350697938,0.0121613004598553758883739,11.2383446296241533701732,0.0239492212815863511621295,-0.168942009825967603964259,0.950168438737502785151889,-4.43751991158673053661232,2.99237528382181539043927,0.262517675105521042233647,1186.45306874234165661619,1131.1470834294691485411,1132.14680747993520526506,1175.38091572017765429337,-817.409982710798203697777,-1070.91327865078005743271,434.422319865053282228473,583.44806833261031897564,164.39084876099573762076
0.0724999999999999950039964,-0.0245434298670009383436241,1.1754578185092796616118,0.369644107975504343510664,-0.583522792959957237179935,-0.0232347056212770138039492,0.0254887167137861810062294,0.0100003964331903723999906,-0.00681081800202836679103413,0.00432027612437315116505898,0.999916624778946272478208,0.106774024612376394749447,0.00768201404781347629846522,11.2053032407277353144082,0.024421515202573101932515,-0.170850110097627072569537,0.953489676422792253873695,-4.43748336633246953653043,2.9918997051519551355625,0.26489701682200239574172,1184.60227316624354898522,1128.91992632875849267293,1133.1196492623889753304,1176.76896767097105112043,-709.671582816146383265732,-798.397623945722102689615,416.932132898046688751492,571.142186038151635329996,164.387251049684294912367
0.0749999999999999972244424,0.71135263696524608789673,1.38067671842982608865213,0.285537793821864949173062,-0.581412880832681278064911,-0.0223998899463535329490416,0.0270063774797000763494559,0.00932863239724788378959275,-0.00690558062356924802493996,0.0043001845660541439600455,0.999922715389920169215543,0.103738083467932618031426,0.00337641265571279880486344,11.1721079695420986155341,0.0248918611338299171353849,-0.172714464866238509577201,0.956711404546651267288837,-4.43744999527753680723663,2.99142472629252420546209,0.267286353866343917573545,1182.90471082826093152107,1127.1550953097405454173,1134.23146814442543472978,1178.23662665036840735411,-679.784628510287234348652,-666.189521959722128485737,547.049470391675185965141,650.476232410027819241805,164.3834206843444860624
0.0774999999999999994448885,1.53257060744849948896729,1.6531121975243072697026,0.131269523033568619174716,-0.577050388330517916024576,-0.0195268937991089422401281,0.0280672718295744624827925,0.00867456777216040093858584,-0.00700723201138446234043089,0.00427986158019947639241654,0.999928118675906030254907,0.100740624501699183035441,-0.000680396295394403161083119,11.1389202034544450015119,0.0253489350092068257969125,-0.174533267583572487824384,0.959832995245124775962609,-4.43741854518793044093172,2.99095109849701179527415,0.269683755460544627435837,1181.20335002369210997131,1125.58897871895987918833,1135.85489661434735353396,1180.02134883302119305881,-553.747397770529914851068,-486.809539155955917522078,648.138563886413407999498,645.845871912387679003587,164.37857502527930364522
0.0800000000000000016653345,2.16754787571764984122069,1.86007357458412037054529,-0.0210768303544018702211371,-0.572232459609079646689622,-0.015192671378831580294988,0.0281759888933684719825035,0.00803951799174522710456081,-0.00709815414975931147090193,0.00426212457109588667425459,0.99993294931416687454373,0.097499820393372016447131,-0.00443429671366461775061651,11.1059054422374998694067,0.025761102566972553240543,-0.176307263736245833918304,0.962855315390887089854743,-4.43738803619746757789244,2.99047780349862035720321,0.27208909388816771013353,1180.13597383940827967308,1124.72104761396076355595,1137.47216096385750461195,1181.4658560099303485913,-353.389027552429638490139,-266.871912476972056538216,687.63530409078100547049,553.090792187685565295396,164.374343715396435072762
0.0825000000000000038857806,2.76578314082526954820196,1.98768953907308620898675,-0.170719363870943996452922,-0.566668178542864220403885,-0.00896035035788102923737242,0.0275881709660653375026929,0.00742046309204143130638931,-0.00716853730452000903472509,0.00425028710737921158746566,0.999937304534690207802328,0.0939021419257733969132573,-0.00791664855841227310673247,11.073219900911668744925,0.0261107250392888790013757,-0.178045036780282522892449,0.965778745134499128077721,-4.43735759539950347374315,2.99000322301253307344382,0.274503383751232565845868,1179.43640488592996007355,1124.25461915657501776877,1139.29307313480126140348,1182.78680279395962315903,-239.985219677055084730455,-126.320197649829310648784,808.158931536217323809979,536.116666921133855794324,164.369929048441917984746
0.0850000000000000061062266,3.45894457278222677842905,2.0003209555401895158866,-0.319404559183587843929075,-0.559064343049917145123118,-0.000295466670278481894490463,0.0264353318138630145883727,0.0068110546864743291839428,-0.00721692855289552369357775,0.00424631007725345330228173,0.999941259642639801441533,0.0900109226302289178178739,-0.0112216253714323421775134,11.0410073443948046900687,0.0263960331656952762457991,-0.179760955704442587643754,0.968603448578825076964449,-4.43732565088411856635275,2.98952648800205667001251,0.276926677089594619474155,1178.93604774102300325467,1124.08944662571161643427,1141.51295562153859464161,1184.14643934453602014401,-145.772954714266091968966,-3.62817087043367481058453,779.502367909116628652555,452.170838237452301200392,164.364439523914199980936
0.0875000000000000083266727,4.01858200830134304482044,1.88704164335218993464593,-0.402367511429865543082229,-0.551363409194662978940471,0.00653286695318496587331358,0.025283787238404364233757,0.00620585993108574429655278,-0.00724716655232955728888067,0.00425014894086303551823391,0.99994485962832568848313,0.0859953674873351336938043,-0.0144132696647575608839276,11.0093985964001834787496,0.0266257840412982768607542,-0.181466988610841012397046,0.971331143726686496719935,-4.43729152756209455077396,2.98904696710062411924014,0.279357589929313976373493,1178.70754011235862890317,1124.23647830222284937918,1143.19058497434684795735,1185.04765698514688665455,-74.5234309347326018269086,110.953452331387083518166,584.635235438419158526813,308.220479721013020935061,164.359719462211359086723
0.0899999999999999966693309,4.54401013021969557570401,1.67602208285417320077215,-0.430366479380754007877385,-0.54159402172106463346779,0.0114232196243200072316437,0.0239163241534015927336476,0.00560574639925997576794803,-0.00727301913550249846951434,0.00425733618420688457451018,0.999948054447148959589242,0.0822308515700311826179814,-0.0174096739489693064228959,10.9785078627501331283156,0.0268296413818334758549788,-0.183162250873290272101812,0.973966890586927536155315,-4.43725447041444276408129,2.98856643655528619873962,0.281793021152756006930673,1178.56343058634934095608,1124.64421388736855078605,1144.4361317987306847499,1185.68754174314108240651,-57.2911077953450487143527,204.142782268627740904776,394.905818437838036061294,215.579022001157170507213,164.354864522761886291846
0.092499999999999998889777,5.01881384964592935915562,1.42581121285484724303672,-0.407598207949991797605094,-0.530062635055865372102346,0.0143814760336428426601429,0.0224704058459087412102928,0.00501189519642508164720685,-0.00730786316170943268250015,0.00426555653906737341357625,0.999950786327549967502648,0.0790662395651129112916777,-0.0201198970041069347125529,10.948434676811627852544,0.027036106977937283957214,-0.184844768686417304515146,0.976517353903068929810161,-4.43721518255607527692064,2.98808567564574456554283,0.284230862540932605053712,1178.4210845733819041925,1125.25719221356598609418,1145.16511406653603444283,1186.12555209515267051756,-69.2638146642820515808125,294.06994514301885601526,144.808663982484944199314,137.599024386690757637552,164.34990835593967517525
0.095000000000000001110223,5.40339398790890079737892,1.17820029340815590757074,-0.323410564332224037542574,-0.516927060861081533182926,0.0156665362244420153237101,0.0212339202391910036871181,0.00441879799614734725121679,-0.00734601327149010489836467,0.00427890804066199774424728,0.999953137310671924531391,0.076413782599612095625119,-0.0225991798613209837753857,10.9192694690179337158042,0.0272345540013376741228512,-0.1865251289393172473563,0.978988715615131566138984,-4.43717475332032940116278,2.98760399514171881563129,0.286670266649197313935105,1178.21711151302793041395,1126.11456361308364648721,1145.16017511864311018144,1186.37553686507453676313,-117.187214821842545120489,431.029819508239199876698,-174.008711800888562493128,87.8300806535661848784002,164.34484118973264799024
0.0975000000000000033306691,5.73212773816162801665541,0.922282168373650623749427,-0.158836007400137368961168,-0.499973516622151947785824,0.0168082797182452399475938,0.0202634741748577186515323,0.00382014061845364514755086,-0.00737558712988399100413117,0.00430300988793540489102396,0.999955233360844464307604,0.0740366309571025005276113,-0.0249212096443794939304439,10.8910871954854631127318,0.0274020500765212900173839,-0.188214918500709954551908,0.981387325983106628690678,-4.43713329799535216579898,2.9871206354042101338564,0.289110852154367270472335,1177.83514849927269096952,1127.41234131110718408308,1144.29507050753159091983,1186.56470249842050179723,-170.872932471547613886287,513.903910199951042159228,-442.499559315819681160065,68.6671865261814104997029,164.338644322882089454652
0.100000000000000005551115,5.88542192103017924864616,0.747730340870991772028731,0.0217218561589611301732017,-0.485323151074572745056201,0.0181844873289780696590245,0.0199555486392634859327266,0.00322897875111703399134133,-0.00739469543427519800798953,0.00433362461362423335292648,0.999957065656591703728395,0.0719071033957115468560062,-0.0267404482835482681934991,10.8639441666445382139727,0.0275397967050589054238685,-0.189886685145743416835984,0.983725592508274182534933,-4.43708993193240708308167,2.98663673557722075813103,0.291553649109825618879199,1177.36274685067019163398,1128.68408316408340397174,1142.94767732206400978612,1186.71887279770544409985,-228.186385317121477100955,531.609747202355265471851,-629.316449981251366807555,80.3394013315936916797,164.33339058059138437784
0.102500000000000007771561,5.91558454402603839383801,0.600328116550495005654398,0.23315971058699178075635,-0.470837582498172646516821,0.0200009717320123840689217,0.0202034925841357258791131,0.00265938859364608882682179,-0.007405631694547147418628,0.00436532964983112579948621,0.999958597912435909194073,0.0700730783244154498135003,-0.0277000899548933421367991,10.8378779586600124673623,0.0276586452076216932072228,-0.191509915455657764304931,0.986014883805858222132201,-4.43704547528354442675891,2.98615342155927621092815,0.294000265384071202134919,1176.69421657268708258925,1130.07039004711896268418,1141.14848825762533124362,1186.9663995050784706109,-342.349983577015052560455,607.31292777081876010925,-838.089999506020603803336,144.619677189712376730313,164.328050470368054902792
0.104999999999999996114219,5.82502509772535681520367,0.435422986357955066338832,0.504124646397184128510105,-0.453886631860668965376959,0.0223373510037405929862242,0.0211725501523821746374665,0.0021161257596796047633636,-0.00741363960489052099822604,0.00439727697287575769458101,0.999959792266129410265307,0.0686278293006319928259984,-0.0276598260810108909080185,10.8129069277814355842793,0.0277745530984019745046609,-0.193071513542823897102707,0.988261130105916540955491,-4.43700259123899964919246,2.98566934927051663706266,0.296453961963549617042446,1175.65099693278511949757,1131.72064780293749208795,1138.75722732453391472518,1187.44197118365400456241,-418.060999941372642751958,578.354047512221995930304,-873.648136693283845488622,205.711872444090147382667,164.321547957917573512532
0.107499999999999998334665,5.65917195819368146203487,0.300509026375302357170227,0.729861080259209926701658,-0.440164067685122339934622,0.0241127518744369828684881,0.0225315126634452363163508,0.00160210159138136410718334,-0.00741948996745997717966459,0.00442918059715354927446951,0.999960658634779786524405,0.0675519888565217496712023,-0.0265322376406905147128157,10.7890368063284061150853,0.0278954737006312479541403,-0.19456081339587724676754,0.990467877061622092860205,-4.43696299309626152052033,2.98518327900460622714718,0.298917284410541161943087,1174.60391157298022335453,1132.96216028468006697949,1136.78024757415892054269,1187.99495886729891935829,-439.310405553487328234041,441.205839011172031405295,-746.350690680491652528872,244.040503666201175292372,164.316053056359095307926
0.110000000000000000555112,5.41893589421690613505689,0.172760772348170804635359,0.937086489062308514164101,-0.427028616814406514201607,0.025171747616725848734065,0.0244659359860344358117423,0.00111509772340198372135578,-0.00741304977303958514966986,0.00446343295349023189838578,0.999961288820600646687353,0.0665769349388515285781409,-0.0243548268790378247272699,10.7662645624304040836705,0.0280071946141200490976164,-0.195976181490878753610474,0.99263569180762956101205,-4.43692954725414434591357,2.98469379211551988362316,0.301392357582037528906937,1173.45444490501768086688,1133.9266769979933542345,1135.02547387113145305193,1188.66217370198501157574,-497.317922698993697849801,337.430952775502817075903,-689.727180106273749515822,296.55945017830134702308,164.310480832297571396339
0.112500000000000002775558,5.06710272356190749576399,0.0476508381593956364952192,1.14134719994621169902871,-0.412137329736541380142967,0.0252269437284861862413887,0.0275125211585444812145695,0.000638857274311798481285229,-0.00738234409821784693522817,0.00450358832209428548015717,0.999961799253317407121244,0.0653839673205088012242214,-0.0214819289472399227447497,10.7445739841165739392181,0.0280908334725625714878294,-0.197343100046116243229122,0.99475877896256248433815,-4.43690317744294482338319,2.9841991199726085604027,0.303879758092298779548202,1172.11732195948525259155,1134.64931504855758248596,1133.33161167362754895294,1189.47775611819042751449,-455.415694341854361937294,186.653114771161028784263,-542.345270615669051039731,279.960541615809916038415,164.303705925772078444425
0.115000000000000004996004,4.73651955436877880600832,-0.0164780446101716986084806,1.25764388146307837246241,-0.40055524898353794815975,0.0244626636797074803464369,0.0305866248741199185656736,0.000164907353662872965729264,-0.0073310843325526961825056,0.0045557457291476987498724,0.999962160902670316176,0.0639856738707334504745461,-0.0181163388950222881135232,10.7239339743840584873169,0.0281564425506873432236699,-0.198671628849861420240686,0.996833378303245365437135,-4.43688200798861132057027,2.98369876130475075726167,0.306377877168209411529176,1171.17736643330840706767,1134.85994257184916023107,1132.31374751805310552299,1190.0619764100640622928,-310.176976526099394959601,13.2306500298454796649139,-327.779700398604916244949,188.204908888519469201128,164.297987088105912789615
0.11750000000000000721645,4.3839683965541365040508,-0.0276098286801562120551523,1.30017357038806591340574,-0.389886729169196366573402,0.0234979503401689868158364,0.0340352217418202207532829,-0.000306598722183903222258949,-0.00726838137741619289000639,0.00461968488997496502107554,0.999962324416629244616672,0.0625085612584929117829802,-0.0142892228968954371204347,10.7043041130998908272431,0.0282253772800880285698266,-0.199954738899629280712844,0.998859650022251632783821,-4.43686344255237941069936,2.98319337537799800230687,0.3088843267340291021128,1170.56643707685475419567,1134.71546829870680994645,1131.69271317163452295063,1190.41878066263302571315,-176.358105342433532314317,-95.6028247976975791289078,-193.063296592572811505306,89.3374407263310672533407,164.29219249046786899271
0.119999999999999995559108,4.02406265360034431921576,0.00310132899975945402690214,1.27193144334733099221069,-0.38005256662330250128079,0.0228488491772394601564411,0.0375838305696664654043104,-0.000774969564121832498598819,-0.0071977080440537169817028,0.0046934802334403424514675,0.999962292145697539957894,0.0609588035225587798748847,-0.0100338274561106166604674,10.6856382044169304634806,0.0283057689039177932943669,-0.201185084566069372069563,1.00083978182955379843122,-4.43684389662534162113161,2.98268377447030719196164,0.311395829268608037576627,1170.2955759065962411114,1134.38192844786067325913,1131.34843103509024331288,1190.50866361369571677642,-24.704505992849636442088,-140.547227374918549003269,-89.3181741534137358939915,-40.0195010261087062986007,164.286334830480967639232
0.122499999999999997779554,3.66560633594595453033094,0.0704099065662650847041704,1.15322892771518881183113,-0.371382816599977572114,0.0229671240498670568841444,0.0408898669199039416222163,-0.00123059389568087353128423,-0.00712306084679026688122327,0.00477296178575591784065679,0.99996207656911861860749,0.0593605929667536669214201,-0.00520511971346084012512989,10.667883166237665193421,0.0284048912012389402625967,-0.202338781442058607273893,1.00278119692321454614614,-4.43682062057758841433497,2.98217240455001819654512,0.313909550256423919289972,1170.44291454689050624438,1134.01273216183221848041,1131.24612230086745512381,1190.21868315750248257245,145.980991485657654038732,-112.8898510403813730818,-13.4941664452526186579462,-219.80901830470409663576,164.280400486154292138963
0.125,3.24391521428359252965379,0.170826166237860260777026,0.908198521319224849612795,-0.361996051325022993871983,0.0240634003261348608515569,0.0442832950163691493883356,-0.00166351320977853344741659,-0.0070441204982500775499954,0.00485891473121001938456631,0.999961696248722997637515,0.0576557259864142190863845,0.000337191253417107317247314,10.6509795265521010065868,0.0285166805296100077382615,-0.203393072954706988220153,1.00469320603557799032046,-4.43679289227165085662818,2.9816610563430732128154,0.316424553143339448713078,1171.02548086402453009214,1133.81747919265876589634,1131.28096020286398015742,1189.40961852217219529848,260.009911163660717647872,10.2483238430522671791323,23.7780791036129599547166,-369.875515200191898657067,164.273189376558150343044
0.127500000000000002220446,2.89857340155259102232321,0.259050007518079106194619,0.625386198941971227505121,-0.354725588841646732873869,0.0254758993036603743898016,0.0466324422928322546155755,-0.00207328644860591600890265,-0.00695933902008451926723964,0.00494929716912865212685713,0.99996117938571094097,0.0557745036036246255584103,0.00652397410114614884069084,10.634858972335903715134,0.0286313570377693220325721,-0.204345959567882512475379,1.00658223043841177357649,-4.43675998338273558374567,2.98115082388388374923238,0.318941153672777977234887,1171.74296410270881096949,1134.06397378104747986072,1131.36501269638552003016,1188.36930558150152137387,301.586015202655914890784,219.295569821133341292807,32.1754639456230222549493,-481.803160876642778021051,164.267104033094796022851
0.130000000000000004440892,2.55438453431903500501221,0.350875460509496750471925,0.276173510836084712405381,-0.348108217403559627722842,0.0267920477687822629342396,0.0485995270719574504192373,-0.00245819615495050701817203,-0.00686564869882747442347837,0.00504103583706863242475116,0.999960574637420829269274,0.0536335338781471215874319,0.0133103269351398517672536,10.6194476990307009600656,0.0287348629844143728384598,-0.205194526206522537270516,1.00845556473422415244556,-4.43672134951919261425246,2.98064316315352151320894,0.321460116599050937935544,1172.53341094003781108768,1134.91395704176443359756,1131.4418375225920954108,1187.00060271778897913464,319.156478798185787582042,527.077624062212180433562,25.4492581061185560997728,-660.103176600795791273413,164.260938178868059367232
0.132500000000000006661338,2.13769230120380093751464,0.47955065815896052994205,-0.186997971158172071604042,-0.341097403876625238083875,0.0278629569900854037745042,0.050232465353839454713647,-0.0028199622519468328304959,-0.00676309902582478486565698,0.00513291701258438391730632,0.999959890764608116953127,0.051235378253371266499272,0.0205772488049522778164047,10.6046655434974450571417,0.0288176944199526850753923,-0.205944291580192145874051,1.01031866582666229881227,-4.43667702674140240759471,2.9801385822773260869667,0.323981700579280995633269,1173.33874649669974132848,1136.69936190135854303662,1131.49225898691611291724,1185.06878969849753957533,238.142548486211836689108,768.805098025904271707986,12.0853172778424671207631,-738.556136293708959783544,164.253444406829999024922
0.135000000000000008881784,1.78678853364524825586557,0.616094385093081342574806,-0.570507002459346823641795,-0.336236420414097514353102,0.0283881516479024161025979,0.0500039745078731737160105,-0.00317233115462902835399173,-0.00665171857424008694525952,0.00522409059874618265234547,0.999959099962509645465047,0.0486013754634348760230722,0.0279538145546957134124355,10.5904291665028953417504,0.02886985503839667802084,-0.206626131977907107062364,1.01217133149680771353474,-4.43662650833435634467605,2.97963655309173791607691,0.326505838466922215790333,1173.72412368246887126588,1138.75798253189395836671,1131.5022641089813077997,1183.30782203632043092512,63.2312112014460012687778,899.018402743558112888422,3.00345399555226055809953,-706.848313224326602721703,164.247119566097950382755
0.13750000000000001110223,1.43483324156129832260831,0.792470956164751161310278,-0.889035707929670460103466,-0.332633034959420870180224,0.0288998883954612040270149,0.0470371786501207894692911,-0.00352896984970882095569711,-0.00653734957728514635977302,0.00531254355130538272189433,0.999958140822253871426994,0.0458953785044467765796838,0.0350771097377391774529976,10.5766549095557156334735,0.0288942725065367000958361,-0.207271517207129107873698,1.01401189432983840355007,-4.43657023011519147104309,2.9791364460280975734463,0.329032529731778877746251,1173.65490255270697161905,1141.1944539150763375801,1131.50727625689387423336,1181.53454813237590315111,-152.41428125946171689975,1085.76390918910783511819,10.7449096016352907412283,-741.182084862111196343903,164.240710570625992659188
0.140000000000000013322676,1.0140416893695711753054,1.04070047427178047350083,-1.12994244643824437446256,-0.329573154226760922647088,0.0301925357422767361159632,0.0412983530764777506671948,-0.00389865446841745292433368,-0.00643190425883450028060606,0.00539243606262928762418163,0.999956943134270193063173,0.0434263115884779282716011,0.0416962926400417030481371,10.5632629108812565732478,0.028909390518220764998425,-0.207902283965773426732682,1.01583883660154472572401,-4.43650876164251162236951,2.97863811890118324043897,0.33156278264994876181504,1172.96205227617156197084,1144.18680207783950208977,1131.55598865698948429781,1179.60191161200987153279,-352.54831882548353405582,1050.23288335541928972816,31.8009724946932408329303,-643.73652475678625251021,164.232921511675272085995
0.142500000000000015543122,0.662765712843795262720903,1.25503461842428554184892,-1.18976963802716562135231,-0.327673495514795132255159,0.0323572738725581912633267,0.0363822520859181167129925,-0.0042897209248073334825202,-0.00634142151566509815890926,0.00545853629371753634735853,0.999955470727019513077494,0.0413907578087962524371335,0.0475793943923054560296571,10.5501853362657342927378,0.0289238487100600440149467,-0.208539420808413505925571,1.01764940407093562591001,-4.43644221904745528206604,2.9781412652942416130486,0.334096981812737892081344,1171.89216095857955224346,1146.44561833185343857622,1131.66628111936734057963,1178.31586550859196904639,-511.562259001632469335163,793.936570498093828973651,64.2041648105535642798714,-413.460976051603324776806,164.226348245050189689209
0.144999999999999990007993,0.304471008719736979664106,1.43596904447230100387856,-1.11357564744002290879621,-0.325994733237171652184827,0.0359538492165694389957054,0.0325486983305750404715795,-0.00470053597027579074529857,-0.0062646835998137594819779,0.00551080586418551104238572,0.999953739550656250933969,0.0398410571866374130234334,0.0527138954909151455363592,10.5373713642192257111674,0.0289324919163819402334603,-0.209183618579784236235497,1.0194434822144589070092,-4.43637277300297938609219,2.97764563844358987054761,0.336634748253855031752124,1170.40424098116341156128,1148.15648493032995247631,1131.87700948104225062707,1177.53460673175186457229,-719.485641975055614238954,579.506195142542310350109,117.658027929610952355688,-203.422448695756457937023,164.219689154328534641536
0.147499999999999992228439,-0.136080803096586405720458,1.56506031710733006789837,-0.910747340620241763176068,-0.324098846408980789668419,0.0416949043130111912658364,0.0295237712858874915000662,-0.00512521410982362882191588,-0.00620412909633160508660055,0.00555102594147991248996199,0.99995174839626688179095,0.0389100088250514120069568,0.0571851477230753621472381,10.5247858503865696633284,0.0289403427130117164856049,-0.209826599643577860199173,1.02122042783781741270843,-4.43630384618903317317518,2.97715058034018120736164,0.339177505173272719751765,1168.29473274870429122529,1149.34314930756613648555,1132.25457125901539257029,1177.29875326511319144629,-803.284023531204411483486,276.947988220535762593499,157.044012830192372121019,33.0226232040785987464915,164.21159909260413201082
0.149999999999999994448885,-0.500034252621928909654514,1.57431274830730316693916,-0.690611002857216660366646,-0.322981620342192021766436,0.046974051501118323226347,0.0281708977163025349466086,-0.00556160212462709392655658,-0.00615714810790264285844664,0.00558179717463401416782665,0.999949507369314205540434,0.0386206038450170319187293,0.0610091188292701744333435,10.5124159284513609691203,0.028945248422338493848871,-0.210467175359649011356922,1.0229761919149948923291,-4.43623840541108016566341,2.97665600460095758350576,0.34172699832123110130766,1166.38782086350738609326,1149.54122487143263242615,1132.66222954519321319822,1177.69971984777225770813,-768.617201533333400220727,-75.9355920401502970662477,176.838116169801480737078,267.907941451949000111199,164.204775246719236747595
0.152499999999999996669331,-0.819455238633173710383062,1.47458631013311247670572,-0.462873394392184001056023,-0.323479112040609362299648,0.0516007057596736123938896,0.0275989393321036460826612,-0.00600196838879487985785044,-0.00611664341777202677508107,0.00560521805379034926408721,0.99994708790342312632049,0.0388937461851324439709998,0.0643282060318130788356683,10.5002742526811889689498,0.0289392715343012134343592,-0.211092159212577734628269,1.02470734151295306268992,-4.43617811537317052739127,2.97616245611420771055577,0.34428412285785636726132,1164.45164674103762081359,1148.96347134736538464495,1133.13876183986440082663,1178.63829297237293758371,-765.575625429936962973443,-334.855013108926584664005,197.045614180433233286749,438.947996406431741434062,164.197867502086353397317
0.154999999999999998889777,-1.05203690271193273098049,1.29551988913888282972664,-0.254345572256828689194919,-0.326237515392781507461706,0.0551054427030173432644489,0.02742687461304394933026,-0.00643645111750350620849481,-0.00608453125137665799815334,0.00562288282461271844009376,0.999944518520081926382659,0.0398265412727855372398977,0.0673358601083138413878615,10.4883952925258743249515,0.0289356210391397174197525,-0.211683480368214160804996,1.02640920693183845813223,-4.43612504669467799800486,2.97566976901739721483864,0.346851282973993868541385,1162.55994273635769786779,1147.86694980588799808174,1133.6474576160953802173,1179.89445982980441840482,-737.286870320303250991856,-514.956612406239855772583,205.2897702196331124469,537.777515158722508203937,164.190891798419386304886
0.157500000000000001110223,-1.11568419534576745988375,1.04291256320205150132097,-0.088501435018125823583901,-0.331571035402607017239518,0.0572908065249781300876109,0.0276878950760789492580027,-0.00686334948811627432174731,-0.00606366951922987593853742,0.00563742975896873877578175,0.999941768566712241295136,0.0415171497502896946762974,0.0700602138485771630538324,10.4768388136669479138163,0.0289504354067421088014811,-0.212239275305940111593372,1.02807268420511066508993,-4.4360805409223136308583,2.97517705728562464884135,0.349431081264172271882984,1160.76521238943610114802,1146.38868828533418309235,1134.16521069096256724151,1181.32718054816655239847,-766.678735901359004856204,-659.482705268828226508049,222.895917890764195590236,616.173086450862115270866,164.183836865885496081319
0.160000000000000003330669,-0.948319997976893813707022,0.678466183410400880404723,0.0490894175986743147577229,-0.338751891903152801965859,0.0591525857070383451197237,0.0283761217437813739739028,-0.00728559394678433055320133,-0.00605482965843884193141156,0.00564890866429818006011487,0.999938808819881841394306,0.0439989038588722292111299,0.0724391774190395881793947,10.4656904588982069270742,0.0289968837839448927151675,-0.212766613483555411256987,1.02968687726763041823119,-4.43604391370021655660594,2.97468435692727029007187,0.352023176847389207555494,1158.7265490568508994329,1144.56953627954385410703,1134.76193720554920219001,1182.97532526205873182334,-733.485619586507937128772,-611.990853445285551970301,210.825203201784262319052,558.748888264971810713178,164.175283880044304396506
0.162500000000000005551115,-0.614202564825261809744461,0.333221668754795974365379,0.112674894489007290654392,-0.343434019713841631737949,0.060574309162736060530019,0.0290012544751064686721076,-0.00770414317883570676226412,-0.0060497217535842688629355,0.00566071392577145206248534,0.999935660285062311025683,0.0470952732072792423778651,0.0744570399171147756511857,10.4550623160916043019597,0.0290671375353622682413679,-0.213268269361327200694944,1.03124352041211952979438,-4.43601279400276027331529,2.9741918348831437590718,0.354626620955970917048461,1157.09778429150355805177,1143.32873401810775249032,1135.21933670697148954787,1184.12092498949141372577,-643.760599107553730391373,-370.147256014524487000017,172.937513143551626626504,385.717014266765204411058,164.168087894673760729347
0.165000000000000007771561,-0.140539016416317774638145,-0.0467292694377142853179308,0.132103339010950532328437,-0.345419396276959056457656,0.0616529600957182594145323,0.0294855097573959307188929,-0.00811923264636955389905726,-0.00603860499915479832788723,0.00567621446498077150688566,0.999932361717148165958235,0.0505799428083992252958012,0.0761170309918185045150452,10.4450858483934236886626,0.0291483122424466278843624,-0.213745342398474813538911,1.03273713417463741670588,-4.43598408417584799678934,2.97369963311756624335658,0.357239557254840800482043,1155.50774606131312793877,1142.71879999947122996673,1135.62662477126696103369,1184.9039103333925595507,-690.578463716655619464291,-65.7126893720032398960029,169.477326745436442934079,254.455728100628903121105,164.160826578747730764007
0.167500000000000009992007,0.475931718143941362431093,-0.523258099157427936098941,0.121141569525089129455431,-0.344307448238023394715412,0.0616939943509002899912907,0.0298515974945703227438898,-0.00853369858812966057548532,-0.00601222597234877392802233,0.00569714403218217306512638,0.999928942401109299709105,0.0542185047812544229639542,0.0773710485647027546018961,10.4359057174042746396481,0.0292264645428305623597875,-0.214204195684956300027579,1.03416440123064257150531,-4.4359543977850544038688,2.97320839521072333155871,0.359857429065952805213868,1153.64489197292027711228,1143.00017057124773600663,1136.06672334069867247308,1185.39320362999455937825,-666.377218776096356123162,288.295695039732606801408,155.80930640035134615573,114.086692148566626769934,164.152045334849390201271
0.170000000000000012212453,0.943005242777701924161704,-0.912910045039067585825876,0.096938860608995688905587,-0.340759410756045599821817,0.0604599040288693392874997,0.0299979095554473544626983,-0.00894952637019370139670471,-0.00596803882743510497044248,0.00572541327264958471027212,0.999925400740158565326965,0.0579013916681382911910703,0.0781896721557008705927316,10.4276708042851016244867,0.0292986680767856992602116,-0.214649568520180300534861,1.0355257185549844312078,-4.43592153680587752972997,2.97271870072884825120241,0.36247681777301354877352,1152.17585996743264331599,1144.16027847466989442182,1136.40567130326871847501,1185.47434379413539318193,-549.454407728171190683497,639.338086982115214595979,131.687155115468954136304,-12.2309532041071982177982,164.144677642821790186645
0.172500000000000014432899,1.27892633377748765610704,-1.25595162675895677395488,0.0721170112447002964461973,-0.335564840020523558195009,0.0578101447543321322886101,0.0300288461186203406438899,-0.009362720986974831446914,-0.00590914576297333054427652,0.0057644753503251107418226,0.999921745208519063830011,0.0616253149621964757542969,0.0786677644197607550680118,10.4205276688261978534911,0.0293706701349866136641076,-0.215073972846169719774778,1.03682737719120798836059,-4.43588476815831356248054,2.97223047680679908211232,0.365095560967056032009026,1150.89761993427941888513,1146.19686100615831492178,1136.7251591162760178122,1185.33204886397402333387,-488.641943016318236914231,1035.58421314396491652587,133.013473068558482736989,-82.7497857135767134195703,164.137266327229696116774
0.175000000000000016653345,1.48080646546693994736188,-1.56443826079242764848232,0.0559847266221191741664143,-0.329093391145289015931041,0.0528841432751599727080105,0.0299943005998419900959284,-0.00976478824545308661531084,-0.00583656037483114200487,0.00581466854665835426729803,0.999918056021542489553156,0.0653342305604859840961751,0.0789947946500596520635895,10.4146170726802100858777,0.0294432362889471381517392,-0.215460338855747890463022,1.03808089557905236510749,-4.43584318338200134235194,2.97174416681012720786725,0.367711855090080641517147,1149.73265025235104985768,1149.33819954038972355193,1137.07073866861151145713,1185.06059486556750925956,-346.548212922790980883292,1200.82976534250178701768,111.943685399183394224565,-96.7324618059142267156858,164.128332695219313563939
0.177499999999999991118216,1.47735623108211089338226,-1.70489093298663152431516,0.061946571708314995818867,-0.32414594958115622302941,0.0474839322650166817396666,0.0299485417581793790520184,-0.0101495672153826821393352,-0.00575681241061200017067323,0.00587431671449175404203791,0.999914372777737203712434,0.0690804636870313570895519,0.0793106311339697167550611,10.4100643124127287819647,0.029527986496590399867479,-0.21579622885945018428977,1.03929883499394692947249,-4.43579743010416116533179,2.97125932648092661025885,0.370326251272291406824166,1149.16487886966547193879,1152.20100983287079543516,1137.28487754327193215431,1184.84838655494445447403,-130.05728391031030355407,1104.96935087103861405922,50.9383530866673552850443,-68.084497300424430932253,164.120862748927777374774
0.179999999999999993338662,1.31999865141453076589073,-1.70651788972576801128866,0.0945825375375408811118305,-0.319995939875814261466047,0.0415148880490042865298861,0.0299366913257892858224452,-0.010514153812693369238751,-0.00568270562625109148385816,0.00594271184596685975859431,0.999910661603991335333319,0.0730437327854768503332394,0.0796849558372460659017023,10.4069733793362182439068,0.0296483678088619896640044,-0.216075881656867779812004,1.04049349694655912657026,-4.43574950633465903138131,2.97077496319776113153921,0.372941338366913510693479,1149.08236383279950132419,1154.86304629474489047425,1137.32543043404484706116,1184.7201723790653886681,47.5817371884204050047629,966.330196451007395808119,-32.4788312346754253212566,-35.3388247616748856216873,164.113376972161802314076
0.182499999999999995559108,1.06760078668160907078288,-1.60079739451286151563636,0.151835265013772591213836,-0.316947031270153611881568,0.0360855363219048097533914,0.0299956452202740087020771,-0.0108624393090050071208896,-0.0056215477461381930732176,0.00601821581949537470768163,0.99990685580921778718988,0.0772879389277096318089377,0.0800453704546861544155689,10.4054281786966829059793,0.0298162555613874988291734,-0.216307434321742542149281,1.04167547155021900096017,-4.43570064875447922503326,2.97029070430834529759068,0.37555863138641348841773,1149.40278755560757417697,1157.03266081512583696167,1137.1224833870985548856,1184.67169243113607990381,213.064112656502203435593,687.1745089928475636043,-163.448540692615864600157,-6.07387138306875762339132,164.105886357863710145466
0.184999999999999997779554,0.747307142867890350501625,-1.40019562647754169937286,0.238565305661485760335694,-0.315363457798862323322453,0.03207255285053204479917,0.0301977683853115116963117,-0.0112046709542306700824188,-0.00557560944019250010611488,0.00609446434621626915301151,0.999902875602195706505881,0.0817720801510309347470695,0.0801876550564326606718168,10.4054897971779762855249,0.0300345586221868431076043,-0.216512028046373095069299,1.04285343790531093155494,-4.43564991256223706272976,2.96980715721706189924589,0.378177697994548644988555,1150.14768439608201333613,1158.29891883970913113444,1136.50818773058176702762,1184.68980302215004485333,399.120375422898746364808,303.680130342899872175622,-381.315487119627164247504,11.2743336402218012892718,164.098400621003207788817
0.1875,0.34003214240585477590173,-1.1117203514482760784432,0.371597843214285405988306,-0.314534055231111109307562,0.029017389137788528186146,0.0306750432003756942633821,-0.0115530113876558763325031,-0.00553312648540069031838362,0.00616830464397465604020621,0.999898668953836833317439,0.0861664957451509505581555,0.0798660542119322969245587,10.4071998045177096514635,0.0302752669880880197206263,-0.216714978745358499701013,1.04403639792673685882107,-4.43559530280886260555917,2.96932605020920270533225,0.380795240635792731076492,1151.3983894327220696141,1158.55106146684033774363,1135.21590595150041735906,1184.72806409933718896355,495.984127042310774413636,-120.731838738674809974327,-559.335421862305793183623,9.8658016767785650102951,164.089438098996424741927
0.190000000000000002220446,0.0138470822319620070345314,-0.87667997050603752029474,0.498692431520562085012216,-0.314456355962697664541139,0.0277469651761869696982021,0.0312908298483472666062788,-0.0119146293947142330182931,-0.00548763373145769953881379,0.00623802443763105032153993,0.999894197528880313008415,0.0902561044585923344385492,0.0789347417391285666177225,10.4105712857202394872047,0.0305209403141042528995186,-0.216931467351323487013914,1.04523496360017853490376,-4.43553574827459939911023,2.96884760125094482319241,0.383409937456290927926261,1152.62760503129356948193,1157.69525964601575651614,1133.71151062127023578796,1184.73913203053393772279,507.188105820614055119222,-529.769841187680412986083,-656.130791347231365762127,-0.688665987081548580661661,164.081997527502096545504
0.192500000000000004440892,-0.268390044798894833455449,-0.687737271480863721073717,0.627092087045474255724287,-0.314934922621861124181208,0.0272394258557606162851616,0.0321264788144802193592398,-0.0122941482617677701888459,-0.00544011250786765720305338,0.00630235200391073609876846,0.999889408035771198868247,0.0939844131034519580936148,0.0772965381189721773003143,10.4155889562399917025459,0.0307701740564420463119877,-0.217171432096356420426986,1.04645935031569248252481,-4.43547157258568081061867,2.96837117861069410551522,0.386022932295849829920087,1153.93432996182514216343,1155.90221226090193340497,1131.93525199476425768808,1184.72462076940178121731,573.477233029643230111105,-929.49191423044715065771,-778.17907365838368605182,-1.80284448983911560482341,164.074599790764636964013
0.195000000000000006661338,-0.526795457614581574823376,-0.53553292069931757168888,0.754940799505246395995073,-0.316160145543232684595125,0.0266525671233125566184086,0.0337123555342151298708231,-0.012690350869974447930999,-0.00538883372034258071453516,0.00636256701056290251139469,0.999884316967573294476779,0.097242403306771973969802,0.0749718663877911167814361,10.4222169740388448389012,0.0310161301921150142635319,-0.217432466130319412833671,1.04772058908311027636273,-4.43540347546669266876052,2.96789689355308805573941,0.388634226617376232759682,1155.49499119644178790622,1153.04780007486351678381,1129.8206152529783139471,1184.730117808084742137,561.929714048710138740717,-1093.56903513125780591508,-716.276295485840137189371,18.9902718276243653861002,164.065787820071420810564
0.197500000000000008881784,-0.655046341125378850378524,-0.470217141088818291194684,0.813337222146653604504252,-0.31798182300195038108015,0.0258097520185493201072546,0.0358759671283355174864482,-0.0130932730295622318933413,-0.00533563289122395128377674,0.00642045556235764855457226,0.999879025860740844322549,0.0999981427433138114757583,0.0721597676589017800186099,10.4303999123841091289933,0.0312610803526292488352389,-0.217693514542971200409482,1.04903062367154520373447,-4.43533398054979599578473,2.9674242735083558031306,0.391247284647567306059557,1156.74397853206869513087,1150.43436708524563982792,1128.35387051733505359152,1184.81957212853990313306,482.018168619697007670766,-1007.14904205105904111406,-461.936442104706259215163,70.026254584627110943984,164.058510515505844296058
0.20000000000000001110223,-0.672717789154060552547776,-0.457135311846955716408303,0.790171986902461598312186,-0.320499293245697869370048,0.0245739182771898614920936,0.0388984767454880892012525,-0.0134932930331159561115895,-0.00528400577972561267398044,0.00647961467980071384453744,0.999873614380842656856885,0.102255288965800883449475,0.0690488980909710614586317,10.4400684221849608945831,0.031512020246803718048767,-0.217933836263052210791002,1.05039799222328289474149,-4.43526576157472085526479,2.9669525452614817773167,0.393865784359361759126017,1157.90508203954027521831,1148.01205486460821703076,1127.5109330424547806615,1185.08024908100787797594,484.291936647104648727691,-934.379116033550531028595,-170.607988948131463757818,166.403141432192427373593,164.051315631785570303691
0.202500000000000013322676,-0.55669517597280349097133,-0.48604816860461308447583,0.646339279867553795355661,-0.323413589757309494210347,0.0228673385894084535419069,0.0428386861906918242626219,-0.0138865994191897761111942,-0.00523595230896436829304275,0.00654390778101995168603011,0.999868096798000260960748,0.103985230130293093697702,0.0657049786426819049101056,10.4511458568400179558466,0.0317744620306111003049665,-0.218144424194839703368132,1.05182561664289497826985,-4.43520065657828066463253,2.96648088625479822155739,0.396491803660244890306075,1159.16543821530422064825,1145.76247150507788319374,1127.50083057259439556219,1185.65158783570086598047,434.7128171156323901414,-670.943038287486501758394,187.913926459213882935728,252.122696659716666545137,164.042793359627438576354
0.205000000000000015543122,-0.351820629810475793419755,-0.53900951288099008262833,0.432676301188257894647649,-0.325350377295785808673401,0.0214926327342301985712236,0.0456031729239367786266079,-0.0142701029890423079088402,-0.00519046069604667779928686,0.00661752530996759062709156,0.999862496041208581587512,0.105095412572422886032797,0.0621778071046129865440122,10.4635541799713678301487,0.0320488071912971225763123,-0.218317516266305772232315,1.05331350129749923283384,-4.43513972165654468682305,2.96600841446002272405735,0.399126748682384124844447,1160.07864612511843915854,1144.6573396731707816798,1128.45050267475085092883,1186.34086256430646244553,328.681136570639580440911,-260.433034044308215015917,587.160233200619927629305,307.082338758573030190746,164.035796485589486337631
0.207500000000000017763568,-0.0566237578576711669819943,-0.61604213294097232012092,0.150246638487230882441636,-0.326479093536994502411375,0.0204450924367530137426563,0.0470293168033082201184847,-0.0146392175401743283857936,-0.0051510102994876587681472,0.00669936972080528540807176,0.999856868816998201054957,0.105585292339935965522102,0.0585503053944660678542533,10.4772145999592272147538,0.0323477988127808882556913,-0.218442023569941051741594,1.05485984373035868166824,-4.43508358514405554018367,2.96553518842766150598322,0.401771587599620116915133,1160.80884389815741997154,1144.46030633485634098179,1130.43663173859749804251,1187.18699952949373255251,254.727296122383734200412,63.3455364464683299274839,956.123513604284084976825,348.553809183251189551811,164.028923130469081570482
0.209999999999999992228439,0.287657656003313222381479,-0.707991111925165506058022,-0.153563581990944192368076,-0.326484473557361709605829,0.0195684427840151671518232,0.0471425738509887240490492,-0.0149909587203002330618729,-0.00512281330971309928346002,0.00678622599528233127336163,0.999851257209154131722073,0.105490640823143633220127,0.0548742586154997713521198,10.4920524495440403711655,0.0326885662560331205495068,-0.218510557518578701907686,1.05646066979384589679114,-4.43503256310260240979915,2.96506153011392692420145,0.404426485047476802492383,1161.35228260573035186098,1144.9740673554031218373,1133.23112024277224918478,1188.08363161022271015099,165.219119202630139398025,341.288672313659617429948,1279.89443881347733622533,351.437240447787019093084,164.022162923960394209644
0.212499999999999994448885,0.653398319222750822987678,-0.804277957833014145450079,-0.433710199544451002751089,-0.324748724658809440057894,0.0182730990308617759210197,0.0458059672331863482197534,-0.0153262801604045015985145,-0.00511371333868773560865639,0.00687403739697492639770804,0.999845640350734865542393,0.104904959110411366562943,0.0511220796390265963538013,10.5079989782416891586081,0.0330930945318945873845351,-0.218524846847415687989269,1.058109616633821081777,-4.43498585335798267692553,2.96458813734280735019411,0.407091127411261466395587,1161.6349394941705668316,1146.16674969642463111086,1136.83610393266485516506,1188.94418573173265940568,60.8117781303007518545201,617.374842115122532959504,1707.39105188094822551648,354.232504902892856080143,164.0155514027365200036
0.214999999999999996669331,1.07297229616920608563646,-0.895807631615608279673779,-0.684804022853953586746911,-0.320757640073869032537601,0.0156519513382513547616881,0.0428388325777118994519554,-0.0156505006714925780364478,-0.00512760580351357461020845,0.00695999229746280170111339,0.999839945244766159504479,0.103845121234004134080919,0.0471791106519017233722479,10.5249959159708090794538,0.0335725583211192585286753,-0.218497033735625068029407,1.05979904131333446670737,-4.43494166649234511368149,2.96411620193525271460544,0.40976459621536248656426,1161.65634149638185590447,1148.06094156597873734427,1141.76807550217699827044,1189.8547941347371761367,-40.7748866342444316046567,723.06489836391779135738,1848.39663721927377082466,311.064319996830533909815,164.00780415793758493237
0.217499999999999998889777,1.38748666385742924767044,-0.928406290216864271691577,-0.7931944948199894929175,-0.316465320663349369834094,0.012484366231853774240057,0.0394981925886140547432568,-0.0159723555158772755058205,-0.00516210227700499360570241,0.00704143484906947884904849,0.999834077880245697400596,0.102205276423390722939644,0.0428656364981405413328019,10.5429965904515565711108,0.0341220543141258769725965,-0.218447810419186455588303,1.06152135015790194394469,-4.43489761350801803274635,2.96364688797382180851514,0.412445032564909108696583,1161.43106506099934449594,1149.78207418824422347825,1146.07808711876123197726,1190.49950733171681349631,-125.580574350897109070502,671.144962092329819824954,1687.33986008955821489508,240.648140274015304385102,164.001513526246270657794
0.220000000000000001110223,1.66529382103775480672425,-0.897150903157331258697127,-0.783818925424657253486771,-0.312043913524108929014034,0.00875534964512357342936166,0.0361276099467250366714666,-0.0163003308929301829466318,-0.00521382004108369295769521,0.0071135962291643105998018,0.999827966886613905828085,0.099871700878740088391794,0.0380156865685479378180744,10.5619621125127309824165,0.0347323804400823041294011,-0.21839862589709452267428,1.06327077021810811885416,-4.43485035955392259410246,2.96318111611932311078021,0.415130898502827028195838,1161.02843862462736979069,1151.41666637644038928556,1150.204774802624797303,1191.05803483610725379549,-189.136533977761985170218,668.971343544034766637196,1692.199744573779980783,238.248702232476517792747,163.995405508025726248889
0.222500000000000003330669,1.97852047893106641751615,-0.791074153525494039307375,-0.653412116967540979040052,-0.306918586126522285884022,0.00485860311450682629680342,0.032979216502508186537046,-0.0166399974090413876881556,-0.00526870099665797432531011,0.00717561527051304923197073,0.999821608003769179973119,0.0965239141701078606772057,0.0325338167372200282034811,10.5818644547678086809128,0.0353670163276191551471328,-0.218366049985448285042366,1.06504547472111688044549,-4.43479658317430569525186,2.96272051533273517165412,0.417818649227330085604848,1160.48538239111053371744,1153.12693090596440015361,1154.53908584163013983925,1191.69075084287919708004,-183.170360263420491264696,581.065459941873427851533,1444.26137109403362046578,232.469284778880847852633,163.988298566211824436323
0.225000000000000005551115,2.24388818781878063290947,-0.668971228681338736521411,-0.474459518908796951119911,-0.302793434649234416422559,0.00273094128653933324382685,0.0312884023789764334488872,-0.0169892621870354407209724,-0.00531753408237346444908944,0.00722446647424765386880097,0.999815108641476379958135,0.0919646269831726481669421,0.0264976689050673563929905,10.6026761719617841350782,0.0359982243661517500865621,-0.218351111244397794175498,1.0668484038555352544364,-4.43473517445711173934342,2.96226578388018557674854,0.420507356119038722130909,1160.11258682331026648171,1154.32199367614975926699,1157.42608165809497222654,1192.22038126000165902951,-101.363972674425809827881,443.17925716186397266938,981.90655573016465496039,212.997643737889831072607,163.982569401513870843701
0.227500000000000007771561,2.53098656375223640679906,-0.553201283817052358315891,-0.267133856183859430544203,-0.298628038968053510782141,0.00188061607889240312886658,0.0306818137378347330357364,-0.0173423555029476178512837,-0.00535952296196309015824388,0.0072574691880107960670343,0.999808589593186192168162,0.0861994760454072306288253,0.0200735731260356514704668,10.6243656201798675198233,0.0366145683592447590548602,-0.218347375612393368449204,1.06868477126075056560239,-4.43466659570434185155818,2.96181637007302622777161,0.423198339777326903998755,1159.97856252773840424197,1155.34282719177372200647,1159.44861862028096766153,1192.75573906156864723016,26.1292112752016443266712,438.058277430354394255119,697.28912810078270467784,227.722821663382802626074,163.97704925370561568343
0.230000000000000009992007,2.89511544464269565679615,-0.467194925457713017280525,-0.037777249299606685539743,-0.292734296407028693476349,0.00195816041236832136945845,0.0312023567220482689332783,-0.0176952125209866653610113,-0.00539315799160014052587853,0.00727526925201461664716174,0.999802124842190997888736,0.0792461953085386305861704,0.0134026687641305708442729,10.6468982383573749217476,0.037201112171244207771359,-0.218351937883504793047607,1.07055989288122477276488,-4.43459155030371210415296,2.96137163323907248724254,0.42589186832283504324792,1160.24323287968627482769,1156.51228506330153322779,1160.9125272985988885921,1193.3589953683185740374,181.801871993820725492697,443.778323663900266637938,397.380878825833519840671,204.182781721919866413373,163.970675449313688432085
0.232500000000000012212453,3.18898192582848016840558,-0.459758940647726654926686,0.10651146427326339816144,-0.28618996021149545327944,0.00243663745560066457782056,0.0323883049732458863645412,-0.0180423190493363555519934,-0.00542050291293628191263698,0.00727975172730889290295675,0.999795787848061445757253,0.0712264224053855699025917,0.00666719696015727336657619,10.6702320706088134016909,0.0377503683490029232072693,-0.218358192147806412508615,1.07247985050880267898776,-4.43451288783502484136534,2.96093003242678953768063,0.42859007758880945937463,1160.88757188770750872209,1157.56171881009322532918,1161.43552301441013696603,1193.77665297017824741488,348.713733718431910801883,460.451944065971076724963,100.06257997983985319479,138.306134163622004962235,163.96557831659046655659
0.235000000000000014432899,3.42347105399937667868926,-0.519147335626387373963553,0.18165049015100306895043,-0.277583251634984595757061,0.00250259618210404641280853,0.0336562319297772985504658,-0.0183822324885826414442302,-0.00544597561443477089226928,0.00727171951730752781639655,0.999789577248649807827974,0.0623382916255951213813091,-2.79008361594029752339452e-05,10.6943151898675665734118,0.0382611518598189592754721,-0.218367222932773552557251,1.07444894722895023519982,-4.43443234156386800748351,2.96049093546636798990335,0.431293497209393528191157,1161.98680154827843580279,1158.81454478363139060093,1161.4128401984980882844,1194.05052603913668463065,505.300679617175319435773,546.542693526861967256991,-69.5764625690116531586682,82.6253203513714851169425,163.960709824455193484027
0.237500000000000016653345,3.57102059367085011842846,-0.616199734753534733577851,0.196974105210950822808513,-0.267796104621253749922261,0.00153388769539780731726575,0.0346467327815419279257725,-0.0187133985987445530807527,-0.00547135437748598636720221,0.00725302428845359722225927,0.999783503356468705725035,0.0527490577273755090192964,-0.00656860094479241873877129,10.7190862410754625955178,0.0387273486831035337885076,-0.218378800964518782201651,1.07647188028017315453155,-4.43435028433204081466101,2.96005418434260425541993,0.434002439896006120267913,1163.414075285793387593,1160.2944322777275374392,1161.08764070156507841602,1194.18977957193510519573,624.087296919654590965365,648.232459770318541814049,-165.682212193542767408871,29.0858138193017552453057,163.956035011231080034122
0.239999999999999991118216,3.58440024988604699629491,-0.725339949752428103657564,0.148212330153182220149333,-0.2576085279223635504664,-0.000856076359387634988618032,0.0354570861442106144423292,-0.0190330238511331358008949,-0.00549945595203359550301458,0.00722438588020439878545353,0.999777603062249276000273,0.0426699393267858662071035,-0.0128102080690868924683912,10.7444709805983791284234,0.039146860672654909540924,-0.218388775263509027357856,1.07855394480291955083828,-4.4342648966908830843181,2.9596207031517911545393,0.436715426737185441474765,1165.10723803287669397832,1162.05570708248296796228,1160.58442913753037828428,1194.19595510823319273186,762.52061287673666356568,824.496744284401074764901,-215.9311544773127877761,-8.91254898401716211253643,163.951598056623964794198
0.242499999999999993338662,3.43817097090686329963205,-0.83270659150317771768357,0.0347794419655347020192693,-0.245997357432324481596453,-0.0043396630883828371874622,0.0360928072188536203102061,-0.0193411055444953142168352,-0.00553448428817400733120691,0.0071858515867703502341679,0.99977185845004867825736,0.0323590963744359028098074,-0.0186674004847509206195255,10.7703798780397814738308,0.039522388750192261053229,-0.218397644245745453650542,1.08069913545751683514595,-4.4341744965067206862841,2.95919128188304769722095,0.439430799053012854926692,1167.22667835017705328937,1164.41691599914952348627,1160.00798492917851945094,1194.14521682701501958945,760.549937402219484283705,884.920522336141516461794,-176.55042657456743881994,-9.45326613632459178404588,163.946553481517895534125
0.244999999999999995559108,3.19661165502409838623521,-0.88802677564494858497568,-0.0865562568500900103574125,-0.237498266692489939932997,-0.0070570392844331170101313,0.0359909074183215951792114,-0.0196341312962754824256173,-0.00558216153123990404399946,0.00713850120993926150897435,0.99976630025414581215415,0.0221209583021522437906725,-0.0239828428954396433159246,10.7967081960222355263568,0.0398616781938527647843884,-0.218396825269831257321229,1.08291257944105678845403,-4.43408032062320867083827,2.9587648062987796926393,0.442150462701101087947819,1168.90998771988779481035,1166.48030969416367952363,1159.70167700465754023753,1194.14868877755156972853,631.008878329884623781254,811.154486286840665343334,-58.9136445495113960646449,31.7537623727730249356682,163.942585755222609122939
0.247499999999999997779554,2.86480196238687145893209,-0.905150529838735118381976,-0.211039772507825906799894,-0.230550587346121771403773,-0.00944790530039448656074441,0.0352873209004785637343815,-0.0199123524303232435350708,-0.00564981705047278362497032,0.00708307380976297158020616,0.999760875736779408562427,0.0123012556214774915197552,-0.0286868150491412648994682,10.8233338551288209572476,0.0401787084495913993098526,-0.218384045926693692862841,1.08519705685724621169186,-4.43398423311972589289098,2.95833946885823317884956,0.444877116726815236003034,1170.38172274182647925045,1168.47268843058373022359,1159.71341670643096222193,1194.30398563887888485624,592.460667349086520516721,819.889056831515745216166,94.2602173351587282468245,115.21665245563771406978,163.93886595903222769266
0.25,2.40514394704150857862146,-0.888302027829462104158154,-0.339543704838553950242641,-0.22365672112222001466364,-0.0121692488412602443231814,0.0341951392086735500575045,-0.0201787760594034637495753,-0.00573721049736886784531364,0.00702051632512967153237904,0.999755513104594983886386,0.00308229275629101628908302,-0.0327783971386430422745306,10.850120201635068184487,0.0404738673477853042048658,-0.218361100336614349926023,1.08755417343197668955668,-4.43388807809941720705638,2.95791462392295878558457,0.447611608883906608724601,1171.8722910566332302551,1170.57975497832126166031,1160.17297809133333430509,1194.72477203982975879626,510.410401708076733484631,701.186730453582072186691,240.347084727454557651072,188.862216662027833535831,163.93469125310147660457
0.252500000000000002220446,1.99656756441985794303662,-0.850751463378356720390627,-0.415422988659170489000871,-0.218838926755416690594913,-0.0141540304359624360269754,0.0331355269910712721403989,-0.0204412603203562789899728,-0.00583716020075256830645927,0.00695768317806336189512706,0.9997500334745947903059,-0.00551094185028871974552089,-0.0363758003626998144275362,10.8769144295276944944817,0.0407329794417724128097191,-0.218339045766859779496016,1.08998361977913038600718,-4.43379439621501525436997,2.95748863310877929677645,0.45035491285358902890934,1172.93377475036686519161,1171.97862208285164342669,1160.91515213006823614705,1195.24829672218902487657,408.03650919360700299876,467.872807540106407486746,351.416873913285314756649,224.09605012812770041819,163.93145419255066030928
0.255000000000000004440892,1.58354733381341916675922,-0.798182645090224074380103,-0.445899215131273340961826,-0.215020780193785954192975,-0.0156053174704556228691299,0.0319809097021842847485829,-0.0207111154524639747009918,-0.00594063282287125155045615,0.00690251635405680040447063,0.99974418610233950488464,-0.0135084222117302921173376,-0.0396887217426376004425492,10.9035461542098843779058,0.0409400118974771881630303,-0.218335359211869917128723,1.09248368445932952930377,-4.4337054228978898251512,2.95705992838257536448054,0.453107343188242916998121,1173.9124736026012669754,1172.91911901602179568727,1161.93006246089976229996,1195.84525229047039829311,434.333514377430731201457,304.024249960002350690047,468.66979083265465533259,242.338785793390115941293,163.928468367661821503134
0.257500000000000006661338,1.09902315092745928026829,-0.722229653257162818036363,-0.418018381293446650293077,-0.211684078466106456728468,-0.0171284382200054055567229,0.0303936369992112466464906,-0.020999007882197984892203,-0.00604122657579293266538745,0.00686283227398224674603577,0.999737714684231004724779,-0.0209024506551594990710896,-0.0429313601747472184388954,10.9298279146618977364369,0.041086879027217297621899,-0.218365597482618217783923,1.09505303174365997698203,-4.43362251332830759054104,2.95662816052653454335086,0.455868437507064627745024,1175.10544232225402083714,1173.49874333265165660123,1163.25850108423151141324,1196.45999065115597659315,449.480651214889405764552,128.590878917157056093856,469.052321702701703998173,180.645064941700013605441,163.925174819997153008444
0.260000000000000008881784,0.710620503643479839439578,-0.644040446133061994515856,-0.335136507644993253407506,-0.209905139312679261953676,-0.0185609606814882768799357,0.028921007928151803989536,-0.0213163581280532143935602,-0.00613486828102009513347115,0.00684518591636177047704548,0.999730338284089414813138,-0.0276582467872444892620365,-0.0463528534712265294359668,10.9555565509645926880467,0.0411724573003096408485568,-0.218447080771568991064413,1.09769043494538087735179,-4.43354581910146361423131,2.95619339835596228738268,0.458636951960036953757083,1176.15987685867571599374,1173.56207341060758153617,1164.27532406941327280947,1196.74847761517889921379,433.995902227524823047133,-43.4383217531830823077144,344.646819973968092654104,44.3339366964209631305494,163.922669858180739765885
0.26250000000000001110223,0.338571394457225616214657,-0.539143775437587846610654,-0.190281034209693056258317,-0.208932174802736903007627,-0.0202996488117235876491584,0.0276333440398664233195181,-0.0216715651238218801055702,-0.00622599835497863584449219,0.00685152689339134021717648,0.999721814199367786457628,-0.0335805997439115322400482,-0.050154106175482937590715,10.980514781534962409637,0.0412167749343562775377059,-0.218591199167805144698562,1.1003960462162445388401,-4.43347476744030188910983,2.95575621096544161048314,0.461410582851660422409878,1177.27542183339164694189,1173.28155172388574101205,1164.98173518410135329759,1196.68166033463808162196,450.104426989991736718366,-151.195817691041014541042,204.64244637378197921862,-92.9699763269581183067203,163.920410880672051234797
0.265000000000000013322676,-0.0238148008119156567863328,-0.404120573140953565083322,-0.00156901410499819360215568,-0.208437222065583377395015,-0.0220874421979822509187752,0.0267063172680010035842102,-0.0220718798351949678504536,-0.00632070964948799191018836,0.00687656424186041618368259,0.999711963296607830642415,-0.0384652723130458340516924,-0.0545251203099461068113385,11.0044756636863283461025,0.0412461710671629538937921,-0.218807896995395767536507,1.1031710270123504802342,-4.43340793830006507647568,2.95531745142111157420572,0.464187268725364143850953,1178.41039899362567666685,1172.80609432215237575292,1165.29853630128218355821,1196.28362773354410819593,448.030491071949256820517,-213.634958650845675265373,14.4021956220058076070245,-231.963133209410244717219,163.918353120786974841394
0.267500000000000015543122,-0.380274253544713003449829,-0.230485091044974915730492,0.220739065105999943128268,-0.208410286595305749290929,-0.0235217574099594178838046,0.026441404443884538449927,-0.0225208939687617411273823,-0.00642405438004210738167643,0.00691348296387949562413766,0.999700709508632878730339,-0.0421568886973754941571713,-0.0595866453356407865804556,11.0272076048235518896945,0.0412844776652773470804192,-0.219101038927971114578241,1.10601839487308351017703,-4.43334375867977481533444,2.95487842594824989816971,0.466965123694442818536032,1179.51557428875139521551,1172.21337693063151164097,1165.0537461622113823978,1195.52184466859102940361,466.128549890845135905693,-260.558232611856283256202,-239.278487648925676012368,-391.440249768538365060522,163.916533824721341261466
0.270000000000000017763568,-0.801726460893514514260971,0.0123579781610826770765765,0.489811261972731004643578,-0.209013175285029939587389,-0.0243686323426493614552335,0.0272113291965218745405153,-0.0230146405881497435885752,-0.0065392117259617521529691,0.00695379697007616082854442,0.999688177288392987307475,-0.0445661882821329624615458,-0.0652990153551614160853944,11.0484805308674314261452,0.0413508103648901614857181,-0.219460043387326164676665,1.1089439689475473205249,-4.43328000792912213512409,2.95444136262237888601589,0.469741397296488949475446,1180.7410417430799043359,1171.50330315909309319977,1164.10214386303755418339,1194.32642648470141466532,425.256356100726009117352,-246.572423472707441760576,-443.210250266474361069413,-455.228432447392663107166,163.914620053237399588397
0.272500000000000019984014,-1.13776783602616071711111,0.22808389163241069019783,0.68401568804231949183503,-0.210282474156187504377158,-0.0241567160171770357879328,0.0287608566286446099002916,-0.0235376904484296371744545,-0.00666539807221036995771302,0.00699272931541623007228869,0.999674760290489183844898,-0.0457130551652414063301677,-0.0713699371627088963165875,11.06807389647211792294,0.0414526642549022036887685,-0.2198514390900213610891,1.11195709473622850183006,-4.43321551084167086997923,2.95400853064279722559604,0.472515984241484610084427,1181.64185606925502725062,1170.9805148132679732953,1162.83769491087900860293,1193.24570250635406409856,330.200509367204801947082,-189.922462483309402614395,-567.238319687020975834457,-410.067990388278872160299,163.913244821303550224911
0.27500000000000002220446,-1.43016221059622261613242,0.435290317528067793872992,0.808752746911040043542584,-0.212754111418384600495912,-0.0229417680970560866615671,0.0310669113257294911278894,-0.0240659434969973801132781,-0.00679822812782912479917519,0.0070296325551332727518683,0.99966106389801245857285,-0.045716813335553177499726,-0.0773101353777914668263804,11.0857835327754639109799,0.0415864721382409041616768,-0.220224552378675275665643,1.11506804037517892602693,-4.43315009390276504319672,2.95358153185882610358703,0.475291912218256507038916,1182.39204428991592976672,1170.55369084667654533405,1161.26595226460244703048,1192.27608653276001859922,291.063250484830575715023,-173.097949701377586961826,-703.857829875777838424256,-360.652499383376948571822,163.91209157677371877071
0.277500000000000024424907,-1.68117244271501409258462,0.651825899905788763710746,0.840924785005100483559204,-0.217487657272284889975467,-0.0207693348361289997772161,0.0345729077285233943328535,-0.0245670420780755814627039,-0.00693200212052361066511486,0.00706470264406102409215915,0.999647902019588752153822,-0.0447433371991795836297712,-0.0824379617199776926206312,11.1014295154109898788874,0.0417440758060736438750382,-0.220511444853601856763703,1.11828645491682898693853,-4.43308433752428854290883,2.95316142061094977222524,0.478074878560332539034761,1183.09717232167918155028,1170.11502506476108464994,1159.31840576150011656864,1191.4424400094371776504,220.808445281863697573499,-157.813292096034132327986,-677.728961077036160531861,-231.296744748396832846993,163.910957397568239457541
0.280000000000000026645353,-1.76819732754019365295051,0.795760386304517175481976,0.752821628361932337902829,-0.222819772280874794923022,-0.0189252936701842823519204,0.0378692916602020451799504,-0.0250208795548606671710345,-0.00706164482222904239805406,0.00709922754970985885047963,0.999635791319895772311099,-0.0429613498406962168729706,-0.0863326562159769106408191,11.1148571522648413889556,0.0419167341568844123433912,-0.220672021318426586633521,1.12161157906083519542051,-4.43301857699973211879296,2.952747853383386189563,0.480871020951013972144494,1183.49608651632524924935,1169.76462438619637396187,1157.87730745921726338565,1191.11960280901803344022,109.003346306690119149607,-143.67861536097723273997,-488.640445104010268551065,-43.9470886208709643483417,163.910215264628362774602
0.282500000000000028865799,-1.69402028626944733957771,0.895612684424576865893641,0.54457342245164175320582,-0.228673596249509530897726,-0.0172687832670547700142372,0.0409709763115263733701532,-0.0254158935885609310600941,-0.00717839090803467153034667,0.00713292785923958904542586,0.999625091522442943414717,-0.0406342581047486189893547,-0.0887517370690212858974633,11.1259462566873867928052,0.04208657950089603888566,-0.220685142810216838871185,1.12503442774297113260218,-4.43295259006527153644583,2.95234101744797339250681,0.483683298879413747783929,1183.64218905321263264341,1169.39663198795619791781,1156.87520353598006295215,1191.22270456633282265102,-13.2979829957548520980026,-159.021601976928508292985,-298.534610451588093837927,136.167185721842429302342,163.909677770790892736841
0.285000000000000031086245,-1.40944648591733190379216,0.954796015478010962063138,0.185738603848457750622458,-0.234777590016049780841101,-0.0151003367153074302686733,0.0435765501155786494358324,-0.0257501538889418415956278,-0.00727204474712925263979457,0.00716624770635540270929953,0.999615936357493684027986,-0.0380657148492537233952504,-0.0896564241214902746257565,11.1346165014298428275197,0.0422307941763872957130488,-0.220550939848921878638777,1.12853798459655840780158,-4.43288615386381312788444,2.95194046193138692757429,0.486513445341857808656982,1183.42959660134647492669,1168.96951637631173070986,1156.38463440695932149538,1191.80043873762724615517,-158.67681185791283837716,-138.190579740421412680007,-47.1527653118300378309868,274.807947265480606802157,163.909262269512026932716
0.287500000000000033306691,-1.02420183461650271539156,0.940951570139878845644432,-0.162131959724272189937722,-0.238403596475606355253873,-0.0126615784360871296704287,0.0441656122620732380368302,-0.0260330332436542362384291,-0.00733916557072079433349243,0.00719873003165879838533003,0.999608133542883026123604,-0.0354137518599244305317342,-0.0892511162819528969247784,11.1408296320302557802506,0.0423408826937500815112969,-0.22029441479617195565055,1.13209699985755718465441,-4.43281926270400017386919,2.95154522369030658524025,0.489361237717796271340376,1182.84880499392306774098,1168.70567908925409028598,1156.63943970942091254983,1192.5967443026602268219,-334.668465522103133480414,-60.8376107064947788671816,235.370275288235148991589,365.610947498593418458768,163.909102074046046482181
0.289999999999999980015986,-0.519829017040078111833168,0.844466158232165531316582,-0.495761420394585372584118,-0.240313570599469478183963,-0.00944627204870789050072943,0.0426338595897179720162207,-0.0262782300133276788822734,-0.00738068105149807841824927,0.00723100826800274123357104,0.999601343911659556695781,-0.0327381707929755294550489,-0.0878288956570967282999618,11.1445953156105588277569,0.0424169668476254563271866,-0.219949709925310765701312,1.13568267219837593096088,-4.43275238928840842334012,2.95115388230656039425526,0.492227007059233057084668,1181.75625427373597631231,1168.66532832277925990638,1157.56148578340048516111,1193.62849347512019448914,-532.15206540576764382422,37.4009392211068387723572,460.992122947123050380469,438.698700054742346310377,163.909129010221562339211
0.292499999999999982236432,0.0522304063333830434490146,0.673915020388716534682771,-0.769426133254353161738948,-0.240863903589604189114937,-0.0061630198686821943687697,0.0395162861871568432681201,-0.0264969625075034860561818,-0.00740067347130402182486808,0.00726409389424968743309563,0.999595267594529435228878,-0.0300232750904893541665786,-0.0856205756001974238600383,11.1459743768273611408404,0.0424656722103435094184398,-0.219544486107687425446855,1.13926715606847106521116,-4.43268593902517515914496,2.95076550977645979401132,0.495110489359826655419994,1180.1880446668942568067,1168.89268378535962256137,1158.94440032415650421171,1194.7902378029339161003,-744.877187838937288688612,163.191286675191662425277,626.665741393207440523838,483.954479448538677388569,163.909307264610021093176
0.294999999999999984456878,0.668031821421840588115515,0.426287764207670782923287,-0.930288341439802102250667,-0.239840317571618388825527,-0.00386375181014609507881841,0.035451741744438429460029,-0.0266981415828113702315427,-0.00740406808369862938501438,0.00730098544518642707246148,0.999589642018096857789544,-0.0272263563542665398831133,-0.0827997228013208075303453,11.1450772867035130531121,0.0424943639888905183576995,-0.219100277131511478323489,1.14282505754023744337644,-4.43261968189804544948629,2.95037951776428153394249,0.498010709626280190231995,1178.03186833454128645826,1169.48128475615521892905,1160.6948144903665252059,1196.04826587236289014982,-1070.89665275716379255755,331.475824161315983928944,793.792668597642887107213,565.831775457263120188145,163.909664417729857177619
0.297499999999999986677324,1.41065261888801396494841,0.0790992165476631647891281,-0.976677913259557772818198,-0.236791716932246515403548,-0.00302992408984391380435963,0.0308009140129824020293281,-0.0268901090888713882598449,-0.0073974100032299597989871,0.00734034217261922503766636,0.999584233066897476227552,-0.0242602926575268829090248,-0.0795228163582074598636495,11.1420588778440095012456,0.0425153350366012303118701,-0.218636055052578937019092,1.14633385424562361798451,-4.43255294427405832635714,2.9499955803644719587453,0.500925553975279713725399,1174.83356140310843329644,1170.5500629061662039021,1162.91336366714472205786,1197.61939668022023397498,-1250.91214212734371358238,430.968782663239437624725,785.213910630135842438904,581.297508309853014907276,163.910296644379116060009
0.29999999999999998889777,1.99961088938325470820701,-0.215782176695794886134294,-0.906539108995001119417623,-0.232760320801535552925898,-0.00406758192459748865038582,0.0276593373922242626028467,-0.0270844999283624369990076,-0.00738671546153585757005233,0.00738378719370705316471515,0.99957869362470852525604,-0.0210389062322905440183263,-0.0760179134321335436830225,11.1371109694314665006232,0.0425381240161063906013439,-0.21817771021096654671112,1.14977343133158060872745,-4.4324841932191425541987,2.9496129496072023279396,0.503852255043954699864628,1171.77730762390456220601,1171.6361286694714181067,1164.6208840435172078287,1198.95475341391215806652,-1261.8606910915775642934,441.988681510883509417908,601.775895130185176640225,532.090782320482958311914,163.910991912583995144814
0.302499999999999991118216,2.51919919106774603534404,-0.480430098351251000377005,-0.759936661020650161546541,-0.227176625129594078611461,-0.00661438213699206030427025,0.0256846908272598539735299,-0.0272849371998387761617533,-0.00737201417518450370647276,0.00743219685524527245990001,0.999572933474727642888524,-0.017596791603817996119119,-0.072333720089795966456947,11.1304592636818071582638,0.0425586846715545891184362,-0.217731924931932940836532,1.15313213864827024401905,-4.43241236839297769734003,2.94923252789953238561793,0.506786159437785266312915,1168.52425794765053979063,1172.76000631372062343871,1165.92224314279565078323,1200.27985059182265104027,-1417.59408301831945209415,468.347716172410912349733,435.691450740659604434768,565.599651039246509753866,163.911861670478742780688
0.304999999999999993338662,3.0200998543878538882268,-0.748698536706547290719982,-0.547070455918092890534865,-0.218527880377840905135045,-0.01038018902283209705939,0.0246617321438031243674427,-0.0274880852955052719377438,-0.00735228526380124740996491,0.00748777826323852521706037,0.999567043905326579888992,-0.0139784535254446340424295,-0.0683668779435793461107806,11.1223519150682914613526,0.0425702264456079976229219,-0.217288712337755235415315,1.15640599548743638891324,-4.43233816105728006817799,2.94885408986962582744695,0.509725278765629008503879,1164.68933720881295812433,1173.97786725033347465796,1166.79934129722050784039,1201.78275166910839288903,-1349.66102517205285948876,408.468925965325638571812,192.168165402881470527063,520.164541838630157144507,163.91310827476709732764
0.307499999999999995559108,3.30957087421752804701214,-0.944485639034471247121871,-0.371294640096306471921395,-0.209921267550718909644658,-0.0130891995401331371479126,0.0244712621884304419583867,-0.0276885242682481103049241,-0.00732895443841952935054573,0.00754965234358549296816987,0.999561175498925980065223,-0.0101629259888712797366139,-0.0639732467148172445625676,11.113046679066913569045,0.0425732724387981875668885,-0.216832358778793449216593,1.15959591915076476453805,-4.4322621515042230910808,2.94847774282434382797646,0.512668671811323028997265,1161.77595282179026980884,1174.80235094354725333687,1166.88308396981005898851,1202.88067330101580409973,-1057.8571730537523762905,285.834683608709156033001,-98.5509059223658425707981,382.892976289349121543637,163.914318050107624458178
0.309999999999999997779554,3.44955458662346403642118,-1.14733477877056744276274,-0.221969351335036702010939,-0.200681999608433525583706,-0.0148051766374082509336585,0.0244622893473373306805208,-0.0278827040605529909156335,-0.0073053408743982547676743,0.00761532034825720179765929,0.999555424962949023992564,-0.00607763385941623157648905,-0.0590580824144204818981763,11.1027996127772823342639,0.0425741087432924200650852,-0.216350759144416981971659,1.1627055193768272012278,-4.43218546230142074193736,2.94810283885417634408554,0.515616093096019634245408,1159.4000513435441916954,1175.407040668377021575,1166.30658676760867820121,1203.69721655055514020205,-878.717432236498211750586,227.608335999275169569955,-379.302202663256707637629,265.361882102933805072098,163.915708375733345292247
0.3125,3.4488775433809855108791,-1.43954596142929069912952,-0.0851809631103970510412893,-0.189895654024367893653036,-0.0162395380688261439794395,0.0244878454319059808697023,-0.0280685655666561284515836,-0.00728546976299981365043923,0.0076816431065053047272384,0.999549847526559953614367,-0.00162623313961701709828844,-0.0535690179945622069190847,11.091855937738502646539,0.0425818642699390750849808,-0.215834787294559737880206,1.16574076273368998357682,-4.43210891062882428315106,2.94772892976386602370553,0.518567123749948954980482,1157.38236566060777477105,1175.94039262354363017948,1164.98657295649377374502,1204.20748271153047426196,-582.856302299432513791544,179.614064513634559716593,-555.125464660840862052282,91.7787829443113025718048,163.91758916391052025574
0.315000000000000002220446,3.32418108806740741911767,-1.73448710002549533193417,-0.00767459493856232494168879,-0.181605880712916750718833,-0.0178287393714002435907151,0.0245378096439787009297451,-0.0282469429466591682997834,-0.00727238656239049836155219,0.00774590422026164016067185,0.999544421779171132769193,0.00327204166133893137313748,-0.0475280167932184416379471,11.0804415982726567335703,0.0426041689413197560698521,-0.215281880504115646912666,1.16870888197462075019928,-4.43203326072537251434369,2.94735585475279160405648,0.521521323067516640037411,1156.48576983204702628427,1176.30511099094519522623,1163.53095944430447161722,1204.15611046527669714123,-190.215231291949578462663,150.597640615751373616149,-603.858607590745464221982,-129.813990036973223141104,163.919335770622836889743
0.317500000000000004440892,3.09804235713716513700433,-2.06180760174900168379963,0.0351393987842514646247061,-0.174158643704918680850113,-0.0209465788437081940065454,0.0246674229182227006118566,-0.0284168521988916525367053,-0.00726834128610728477659642,0.00780245077207629943172318,0.999539205226694926764708,0.00868387042001275699654173,-0.0409267474713679579867431,11.068757273292936460507,0.042648775506195439610746,-0.214685096479863224416818,1.17161971583958357534527,-4.43195863730668904167942,2.94698439691936275863782,0.524478338949278755087846,1156.43128950414802602609,1176.69338082662238775811,1161.96727991854004358174,1203.55841276134560757782,110.881113818868371367898,173.338832112585663480786,-600.521015329922533965146,-327.511441001615537516045,163.921270693794923545283
0.320000000000000006661338,2.80856512538194147410309,-2.3772608519842881591444,0.0532010634488897030114352,-0.167368557798758782473314,-0.0258805969736592977881173,0.0248216937914534606368644,-0.0285800205745047226912892,-0.00727666987764461186544152,0.0078449097627617189742999,0.999534175406301961253064,0.0147010377308852691058405,-0.0338276705629810825470827,11.0569707448747820421886,0.0427268909603427671228815,-0.214044099029640194631341,1.17448289865635957518464,-4.431884952166097235704,2.94661472058994222678052,0.52743880249605823440362,1157.04017540114136863849,1177.17180515150812425418,1160.52835436765485610522,1202.51855326026861803257,383.884176810306257721095,224.435782268619533397214,-498.587152799654631962767,-507.947955432882281456841,163.923363063062510036616
0.322500000000000008881784,2.46420913763739157786858,-2.61845183364192557462502,0.0472857269665149862469811,-0.161623022125858162301171,-0.0329561890368845547549803,0.0249776236838616660929091,-0.0287366964333076874149597,-0.00729670792402824664596439,0.00787217307045226348527489,0.999529338477582518507347,0.0213286690477573481761198,-0.0262710444606091275687731,11.0452156264667546992086,0.042838931527242982144621,-0.213355846203906573954612,1.17730947491511028779598,-4.43181214519751165425987,2.94624721901714403671235,0.530403804852666804769967,1158.35071038819955901999,1177.81555973796548641985,1159.47434415454176814819,1201.0186729841811938968,702.966257791785551489738,323.712410641519170440006,-332.847719375922395101952,-737.718944337347465989296,163.925646374586335696222
0.32500000000000001110223,2.00732131628384280475075,-2.75408777216730360493102,0.0207991136368481030483046,-0.155917685808631079069642,-0.0430490999823463019180458,0.0252174415915199234827782,-0.028886994072823021090235,-0.00732636423063312992171037,0.00788801014669768957299212,0.999524676205094553260722,0.0285402472327816736363815,-0.0183046592062771074083116,11.0335878710226307219955,0.0429805181310393830118599,-0.212617859993465496692977,1.18011058475600449924059,-4.43173966688628961918539,2.94588240047694593926053,0.533373882938468879544303,1160.55500669010029923811,1178.79036720471572152746,1158.86411577077524270862,1198.82995853858187729202,882.55572613147626270802,381.387417989980917809589,-102.653083805353077195832,-845.567715325022732031357,163.928607884417374407349
0.327500000000000013322676,1.59695011611399895201657,-2.71115020609864165734848,-0.0103199478036126637142678,-0.151855359754936830585237,-0.0517375581671169759712114,0.0253572049211653570421898,-0.0290310811694920352377114,-0.00736475157034925664856218,0.00789803890098389992091565,0.999520145753183930636965,0.0363326383514456785484015,-0.0099869361512355536714125,11.0221441582942709658255,0.0431497129533978673876504,-0.211828577481090740697312,1.1828967787101951625317,-4.43166676319459185151572,2.94552075635551036114634,0.536349403443105554600834,1162.76348901885694431257,1179.7224968279153927142,1158.96107873551500233589,1196.79083440755607625761,921.726617768171422540036,373.21043725469246510329,156.447703407093143823658,-840.16702573771829065663,163.931260551939800507171
0.330000000000000015543122,1.15678071656061076666333,-2.5079665991332356078658,-0.0404089250075508887860565,-0.148090033171737051054251,-0.059324472408479593521502,0.0251717438286197282837353,-0.0291711442616506833047652,-0.00741029424559113553128142,0.00790716816269586980636674,0.999515656367784499636286,0.0446808993550675825900953,-0.00142803659130999460735723,11.0109032574710337115675,0.0433434178841679354499128,-0.210991835159574370184288,1.18567707090825957827462,-4.43159331099477249438223,2.9451620690770723420826,0.539330107586857510071354,1165.16363977894116032985,1180.65641939098918555828,1159.64635428781070913828,1194.62912340989328185969,1057.72553613969557773089,372.977493693951714703871,407.016357972406353837869,-966.902231364701037819032,163.934104620871920587888
0.332500000000000017763568,0.598052802454821841315891,-2.11779973097446694296764,-0.063379593584450222287785,-0.144299585972792021593136,-0.0660910762272733792732637,0.0245537535977338391979252,-0.02931233701476136307984,-0.00746244438671807373136824,0.00791862835951648649790435,0.999511035871968656074671,0.0535735523279282088715547,0.0071910794200106820106555,10.9998478970408886112864,0.0435618198128376946098861,-0.210119163869953273771074,1.18845813930637178579275,-4.43151956887914799665396,2.94480596692377227796555,0.542315975550175854991153,1168.0521166995554267487,1181.58738429638515299303,1160.99616052537703581038,1191.95632325073256652104,1033.74313150334182864754,280.815368389994318931713,553.006973318133077555103,-989.493764648886099166702,163.937737932704067134182
0.335000000000000019984014,0.12124729634489599117142,-1.70944186901595895911043,-0.0664961229671691272935519,-0.142433058530718831269368,-0.069767099641118227038028,0.0239381004251329743137688,-0.0294571968142797666057042,-0.00751831030934654084146862,0.00793636822897588953273917,0.99950619889352487756895,0.0629387497214572988468717,0.015743456375588771312124,10.9889310578217873626272,0.0437996560558524608564035,-0.209216731958968643612096,1.19124670887524386486689,-4.43144628416382069246993,2.94445299649636993422064,0.545306409253128121505938,1170.33235543645787402056,1182.06049623293915828981,1162.4113891544013767998,1189.68165458664884681639,861.665066578006303643633,96.5052989965896870216966,588.23178043980931306578,-916.301889462601252489549,163.940948618103647049793
0.33750000000000002220446,-0.333157501610559458882221,-1.25373634548519352627238,-0.0540519535069327039522591,-0.14237928321729820257957,-0.0719799189839273323432423,0.0235750869880559585367585,-0.029607667128557352970164,-0.00757700441834199388962956,0.00796270798864777244741031,0.999501074928372701400292,0.0727370750794274489869906,0.0241130949270467742628909,10.9780787921271496543341,0.0440573270587751655846809,-0.208290066002268736689018,1.19404796331869333947395,-4.43137358228018118921909,2.94410416006497621665972,0.548300942293522775017323,1172.36044203244546224596,1182.06991079136810185446,1163.93731942757608521788,1187.37481380341955627955,817.748733308734927049954,-127.381696492829973976768,654.581553484376286178303,-1011.69552726882920978824,163.944348107609528142348
0.340000000000000024424907,-0.799269878692561608346523,-0.67424919207553046796022,-0.0294267668475515047077362,-0.144483821881186469404668,-0.0737007054007892958846782,0.0236041877609980618735186,-0.0297640556978725247250228,-0.00764024597665190815382052,0.00800021349035026467511056,0.999495620119837280270758,0.0829745249115951266638547,0.0322189029258852510650968,10.9671958216197111823931,0.0443416682079808555094758,-0.207341636062968848186472,1.19686551513426775450455,-4.43130133561083461302132,2.94376031983686736737127,0.551299619470905888363177,1174.42109910300155206642,1181.42358775047500785149,1165.68429692182326107286,1184.62317695030469621997,688.785234495298368528893,-355.295763726644167945778,599.552862530799188789388,-990.345612362533756822813,163.948644318429018085226
0.342500000000000026645353,-1.08301216008705392113143,-0.165096401058135527906146,-0.00750928635842277193007677,-0.14779192151339937133514,-0.0746837356679012076554613,0.0238248940776932503771146,-0.0299270980020223606454799,-0.00770917610524032414359707,0.00804874291615914443098756,0.999489804070077259012805,0.0936297691505187934524201,0.0399723770197524252978383,10.9561733766084401509033,0.0446592016667815977504219,-0.206375340020821418374197,1.19970041771392765816984,-4.43122948520663761939886,2.94342165676141886976325,0.554304173050442550163552,1175.80436820492195693078,1180.29343197273487930943,1166.935083740230084004,1182.42308574160688294796,484.364439538512215221999,-572.209413633253916486865,434.647747812823183721775,-832.610054494715882356104,163.952403966513230670898
0.345000000000000028865799,-1.22427770414193792802848,0.378136807949191855460214,0.0112186945031344190853995,-0.151943059154929255294419,-0.0751180258408764289779214,0.0239439588842755256281603,-0.0300975167823200155658991,-0.00778559908926787242605672,0.00810718700609039562288149,0.99948359954021670503721,0.104681957581300610904407,0.0472881027350016136523436,10.94489581873298966741,0.0450183987296895460339385,-0.205395387831858705629529,1.20255097241321617929088,-4.43115843410615450892465,2.94308737463804792611199,0.557317533635212636333733,1176.84292130069411541626,1178.56254068230873599532,1167.85753566088737898099,1180.46012667783111282915,360.692671484730112752004,-779.123148632606216779095,307.6934030035769751521,-720.917029146630056857248,163.956348255580138584264
0.347500000000000031086245,-1.23727115057533354480768,0.951234003995777288587021,0.0263132364818164515840593,-0.156072482315217281323427,-0.0747357336294646179553069,0.0239742822007267090966831,-0.0302753951751087643784466,-0.00786298760670882217194144,0.00817176432053539313071777,0.999477082028198293706112,0.11591322137013304605091,0.054100855759924793009219,10.9332528456033006847292,0.0454083488914016342175017,-0.204404354397865972714499,1.20541387001292332747937,-4.43108838682053995938759,2.94275772857859774234157,0.560340535356563473889935,1177.60783156234560919984,1176.39781622957184481493,1168.47355075524797030084,1178.81850059587372925307,244.21563663972824542725,-941.049312015274267650966,180.236080191434496100555,-550.655686969048019818729,163.960444271571901708739
0.350000000000000033306691,-1.10256518356429245031336,1.54817428046213478864956,0.0366450804210108060932072,-0.159625362020873517998609,-0.0728568094627091711323885,0.0240115882459607729582096,-0.0304605246778011928832086,-0.00793292232912417606682798,0.00823942169713501489092256,0.999470345140546112538971,0.127052774748807439930687,0.0603566134011466193243223,10.9211435647664849568628,0.0458127975474546603185111,-0.203404251611202152583147,1.20828377497412353669404,-4.43101933199880715363861,2.94243323248953236870307,0.56337367892198919605562,1178.06399948389275778027,1173.85729412223236067803,1168.75871606184455231414,1177.70684824298587045632,137.059616424905044596017,-1149.21356452792952040909,77.8117214339098381969961,-341.016007709644156875584,163.964721417997907337849
0.352499999999999980015986,-0.79755751435955057893068,2.2541437917485422914865,0.0424274212633646910508567,-0.163007015015449230332933,-0.0679614126212571556528985,0.0239391909214273848616195,-0.0306517091416333015141404,-0.00799233625750251502894983,0.00830623212187842942244576,0.999463478392128346072809,0.13793552532347758132758,0.0660276577053199864586475,10.90847871393436285814,0.046228073793862817231215,-0.202394718463393324947575,1.21115335501811038909636,-4.43095060505074034296058,2.94211442362912523051932,0.566417264802443809479371,1178.2931296444701274595,1170.65174840693225633004,1168.86260936241751551279,1177.11342055732552580594,38.6901028610740809199342,-1150.71116402742791251512,27.615717579147084137503,-88.4839141431266398285516,163.970061255239556885499
0.354999999999999982236432,-0.45295439882735438752448,2.79479596905612615032055,0.0395484345712810783646241,-0.164969889687611032114134,-0.0614951361289169662338594,0.0237357504394110248313599,-0.0308462325560570418958584,-0.00803929574549094340396582,0.00836881909041427805850955,0.999456605958124577604451,0.148412093438677727963437,0.0711244459961579145179655,10.8951879619034777135766,0.0466523254158986988571201,-0.201371551251892516587461,1.21401436670041218413019,-4.43088173371960181157192,2.94180117146619535262175,0.569470898733513530842743,1178.25744999819812619535,1168.10373830209528023261,1168.89679464974028633151,1177.26442867227024180465,-50.0457050987278790898927,-928.100994934583582107734,37.1321972951590950628997,182.727059917306007719162,163.974682703046454435025
0.357499999999999984456878,-0.0569431506643002516288021,3.23995018575312077047101,0.0222790159869474257980926,-0.165757629523517857617065,-0.0533112828389817050567245,0.0236768822061958587876784,-0.0310430144660046279658783,-0.00807457885221215393434235,0.00842470937091193035339831,0.999449774636724685983324,0.158384692262017234831717,0.0756261618218380116118738,10.8812228430256112687857,0.0470891354577052737018228,-0.200334216076524213034915,1.21685671199798806085823,-4.4308124265636088523479,2.94149247145468617503639,0.572534478010964686944817,1178.04290111897648785089,1166.01124343225933444046,1169.04827034889331116574,1178.02705585691205669718,-122.174471968310058400675,-747.788701655144222968374,120.062552904118888363882,441.035529384043513800862,163.979481446953087697693
0.359999999999999986677324,0.421870489042813878732829,3.62543986353245761833364,-0.0269606300993585380754158,-0.165105154074002336006544,-0.0424022863924339091235005,0.0239920021489856347129965,-0.0312399637907821263460573,-0.00810135799573725307043404,0.00847161833967559514679824,0.999443043746309878194722,0.167802130000206661808448,0.0795385564433226943670263,10.866559689117226028543,0.0475470688991962292524462,-0.199279279373578449563453,1.21966998501613166361324,-4.43074290238203793990124,2.9411876452906566825618,0.575607579526368207112341,1177.64657763835657533491,1164.36479479381955570716,1169.49710741426088134176,1179.46960631919046136318,-160.451101025682731915367,-426.054529494876589978958,213.361748884699210293547,579.180031627719813513977,163.985444648516107690739
0.36249999999999998889777,0.782453717117073233033864,3.80766924745043899847019,-0.0994782857180504520577813,-0.163103170388392004763745,-0.0328646624060574543690905,0.0244872301656925660251485,-0.0314338725613510575063181,-0.00812174211431884209011489,0.00850962785341796874860609,0.999436497779627064375063,0.176588347412156121407634,0.0828952314427816028263862,10.8512031573665623795932,0.0480305023233708883179105,-0.198200251216000877807488,1.22244426689237206673511,-4.43067259137851632289085,2.94088606654908879534105,0.578691193056899089164347,1177.24064561384807348077,1163.88097078478494950105,1170.11507909331680821197,1180.92295601505065860692,-173.636373720773775630732,3.67229316002521644080048,283.597367442507447776734,582.177123096516311306914,163.99058480677203419873
0.364999999999999991118216,1.05989353680381870326244,3.84084323349964451566052,-0.206360953676462788308754,-0.15953378361901637827458,-0.0233769193643336668786414,0.0249122800391677542974911,-0.0316206790883281074755473,-0.00813718086742531120092448,0.00853997911514848585812221,0.99943024526647417093983,0.184653048204575953583628,0.0857517399060216956030445,10.8351861305805954316384,0.0485409639435496476078669,-0.197088264599304230362264,1.2251704589409728729521,-4.43060066509351901942182,2.94058750715965100397398,0.581786511180075183169436,1176.77839576975270574621,1164.38315625961968180491,1170.91509425147341971751,1182.38049193467304576188,-220.007064476521719598168,425.858539390491898757318,359.499435940369608033507,586.643758368654175683332,163.995903034560740252346
0.367499999999999993338662,1.26721106333958699607933,3.71397860463660833829636,-0.361273782561152945191907,-0.154130237291838972923941,-0.0121627647287761986305554,0.0248535123768884279316094,-0.0317964719498349257520431,-0.00814750087618959853430489,0.00856508224773171698840368,0.999424394020907214120086,0.191873309634473299123414,0.0881634631739180996135019,10.8185691423976226843706,0.0490747734393166823441135,-0.195934722519827020370542,1.22784058519903349626645,-4.43052669730595827246589,2.94029283961073772957207,0.584891423051032588453779,1176.14061029146546388802,1166.01026348173741098435,1171.91257627301865795744,1183.85617480689393232751,-256.161272275585133684217,727.193914998132868277025,342.8328830138977423303,465.526186167016533090646,164.002492228709400023945
0.369999999999999995559108,1.3353416105423201454272,3.47821462418461946342063,-0.493041440558519783454727,-0.149641636750649981157935,-0.00293732564397131178449141,0.0241162685220731691504437,-0.0319616296344582967448034,-0.00815223121596706477853811,0.00858651630006326653521409,0.999418925603996588513667,0.198122762534081175989087,0.090096738208159554694987,10.8014370591421045020297,0.0496269394543596836788524,-0.194741547727482172680524,1.23044660481562462273075,-4.43045040442944415559623,2.9400026994714316685986,0.588003621979621526882909,1175.49758940837477894092,1168.0191258346103495569,1172.62925866654290985025,1184.70812286550813041686,-294.931861096528962207231,868.965949457787360188377,232.867099553277313361832,245.569130067587821031339,164.008157310478026147393
0.372499999999999997779554,1.3208509494329763178655,3.12578700505597018022286,-0.596878584290760461072978,-0.146124693252579818114611,0.00570203708201938962163435,0.0225997063812690898720881,-0.0321163311121093475453137,-0.00815216690641027211250425,0.00860636903725206167670159,0.999413813750222534970646,0.203309315722383310287569,0.0915254986805301151697734,10.7838941936906849150546,0.0501948744981069727710832,-0.193510414029362060039929,1.23298232172117105953646,-4.43037166357436795749436,2.93971762858000396079206,0.591121320174362585575523,1174.66595098598281765589,1170.35509322902635176433,1173.07691177078504551901,1185.08402045723187256954,-375.041280306640715025424,925.014426165215922992502,118.929343310401137046028,73.9453600132491573049265,164.014004356793293482042
0.375,1.26885653557792466017418,2.69904462285055091186337,-0.653861820590985409751283,-0.143444372616502530126681,0.0132876367659148942462766,0.0204931485483230112210062,-0.0322600436126442430273542,-0.008147602754246743503308,0.00862461445923101352462048,0.999409077283911817524142,0.20733719840356945596227,0.092444136492331296928171,10.7660609534239402051981,0.0507750431318264652813532,-0.192241189488544045316232,1.23544376856124582531038,-4.43029070386338830189743,2.93943774204702279462254,0.594243477398807229405975,1173.62238300684157366049,1172.6441979654364331509,1173.22390538309491603286,1185.07784966557437655865,-477.775583107040404229338,823.81045953193211062171,-24.1534084340855557115901,-76.6276405927327886047351,164.020002649425094887192
0.377500000000000002220446,1.20874991146348076398453,2.22018923004175494639867,-0.631973459016083927153318,-0.141349227472127525473411,0.0191349094483131004773568,0.0179640055840314186164086,-0.0323929557132427992094392,-0.00813840024290176690391352,0.00864088473756968039607429,0.999404718509397049786003,0.210111240388829445535634,0.0928357960099825962885234,10.7480685467402246047186,0.0513626811809311037415604,-0.190935510466072821955663,1.23782847862404410399506,-4.43020742946262302552896,2.93916272238072551203913,0.597370221193147754590314,1172.27707307044761364523,1174.47414552668601572805,1172.95614472861461763387,1184.70088225426820827124,-664.475241318313578631205,606.979958784131099491788,-219.602996247158245068931,-217.894457758211302689233,164.026182929214400019191
0.380000000000000004440892,1.1621906338951060178033,1.63918278392524197073499,-0.501837609379631621742135,-0.139075677567080002727806,0.0242032603681695615560621,0.0149462804490660093603704,-0.0325155271546444801789022,-0.00812398938120410113450376,0.00865463618041013502124592,0.999400736087748486902171,0.211538734231038805244651,0.092682333656744053662635,10.7300533316135435768501,0.0519518932088032098226549,-0.189595603334056977962163,1.24013544704680866992419,-4.43012189307573134300355,2.93889245382972497111496,0.600501486481017865415311,1170.30000680025000292517,1175.67909775935709149053,1172.12589040185912381276,1183.98837737678331905045,-779.921597720294130340335,229.261974381460987615355,-389.861936027272918181552,-279.378615410359770976356,164.033808069958752184903
0.382500000000000006661338,1.15765972022651264516924,1.18663963526425031425049,-0.312657601888757741281921,-0.13704207058104397876086,0.0269630299224720530737454,0.0130006687613096281325165,-0.0326293043464517401597291,-0.00810300054718220488791935,0.00866568193024568750315595,0.999397096751717284313088,0.211523165590655926049379,0.0919469759125607910554834,10.7121512382087082926319,0.0525346800368391014801617,-0.188226301856374372833969,1.24236467078485657289377,-4.43003440592275676834788,2.93862640638670447046366,0.60363732151237570189295,1168.37746508184613958292,1175.62045539859332166088,1171.00683504847825133766,1183.30398917721640827949,-811.002898648848031371017,-266.489654577617102404474,-533.176966573591471387772,-269.554286277343408073648,164.04033440221186879171
