t,ang acc x,ang acc y,ang acc z,ang vel x,ang vel y,ang vel z,quat x,quat y,quat z,quat w,acc x,acc y,acc z,vel x,vel y,vel z,pos x,pos y,pos z,mot 1,mot 2,mot 3,mot 4,dmot 1,dmot 2,dmot 3,dmot 4,vbat
44.7475000000000022737368,-0.119206546298664020633318,0.45658791508435875305949,0.222634642697389306675859,0.0243110017752217154318739,-0.0101770799681596482710866,-0.0448645079037483379691409,0.0121205045392151766758815,-0.00277179751006854805175927,-0.529114486601155786793527,0.848459275049948447033898,0.0218419595361238408348648,0.0660436090305188822080495,9.66543313473869503127389,-0.0148632095870087181654906,0.0222595283869942983656642,0.0044249350780719478443137,-1.45533067956385919750062,0.163777607583067447150071,2.02347972508570395078209,1139.8720311711467729765,1136.42613527370326664823,1136.91104396640116647177,1149.62531982662790142058,-491.775127929143650362676,-263.896448821289197894657,-516.85771816697456415568,-441.67538009651394759203,149.894095860901416017441
44.75,-0.0774417997387431139566516,0.485287132793709996558817,0.0808129036743120421348863,0.023429319213042917174894,-0.00813937589500425898170199,-0.0429779684968649919318828,0.0121448950407129895728842,-0.00277148192302736082540116,-0.529165795434462071789028,0.848426923767426344191733,0.0220364988976073719606497,0.0693431565633049057373327,9.66433250952726830007578,-0.0144426603715075273920432,0.0220525850691301282535672,0.0039854488390118148269381,-1.45528715216743642635322,0.163829269538101701675359,2.02347987610075419340205,1138.6293334826514183078,1135.90610098319848475512,1135.34745140092900328455,1148.5544799360702654667,-467.759059740426664575352,-144.560617019983112641057,-700.641459370581856092031,-377.303012571999090596364,149.894582406140841612796
44.7524999999999977262632,-0.0114598494821181728919868,0.454740034713494445384185,-0.113869730228181670339538,0.0220385159868259905557863,-0.00699743806954673981668424,-0.0421768261396510066307819,0.012174081920473115922543,-0.00275521089806601534102914,-0.529216329495095783030933,0.848395032894978085025173,0.0215225088541149481291548,0.0723743983085182590597739,9.66397102952261732866646,-0.0140455459296553644005234,0.0218358740924831616625479,0.00357137071602335685188701,-1.45524190255780094815918,0.163878519504283032270919,2.02347537919738940104253,1137.53323587244676673436,1135.70333218860400847916,1133.40783666955144326494,1147.7388047637696217862,-409.549228554414753489255,-35.3026180898542776276372,-869.885469218807656943682,-270.458971417836323780648,149.89509156103918030567
44.7550000000000025579538,0.0951712258608302108520149,0.369796180114507822001002,-0.36147606183313185646,0.020591458420261162659548,-0.00640273727357511691221648,-0.0431795979170038340955173,0.0122069113211943098412648,-0.00272687727263097243191048,-0.529267288870787444565735,0.848362857114725033014224,0.0204427737822504493325759,0.0751735982194113722121287,9.66428808765096114541393,-0.0136746100766037825824384,0.0216086875804424836944317,0.0031875529465118079136543,-1.4551952586045446835783,0.163925930385342394357551,2.0234680348057958454433,1136.58158733987829691614,1135.729587892749123057,1130.99802405483274014841,1147.20218507898039206339,-267.976469832319025954348,37.3402414176134698209353,-855.316399240490568445239,-116.872518775093581666624,149.895724708996851859411
44.7575000000000002842171,0.187958519852784083914443,0.269952042268622738330208,-0.541062859733376200210841,0.0204303781904206747943586,-0.0057848362883271163201182,-0.0451371883675712667893798,0.0122414442428258971734545,-0.00269339525303516217138999,-0.529320487094953828766108,0.84832927030500648868383,0.0190007659116386354303252,0.0777916517350855790668973,9.66521615845311288239827,-0.0133307847014608998187368,0.0213715114610267160888402,0.00283634851717615241867287,-1.45514855186216096605278,0.163972853781292671193626,2.0234604809915168743828,1136.19335352328448607295,1135.89003339569217132521,1129.13125467334680251952,1147.15444216989385495253,-58.9546189216061549132064,77.3922357482000649042675,-682.966991364158275246155,52.8982059233411732179775,149.896268642402816340109
44.7599999999999980104803,0.247085326329955584645504,0.14748849204811298463369,-0.65711065687348291231018,0.02198747659791477557234,-0.00475733548754521395895978,-0.0473961017436755616127897,0.0122772565084405850532878,-0.00266325970137288150010879,-0.529376630542089721132015,0.848293809916145002958388,0.0174097385582960076377823,0.0803141318497986728131011,9.66668554662359191809173,-0.0130130655377665317012914,0.0211261694090411553115239,0.00251741250163072883064275,-1.4551037677136220427343,0.16402001129392990153022,2.0234551284371380397431,1136.28681424527053422935,1136.11654907148977144971,1127.58318909801505469659,1147.46667610859685737523,150.073260186823603135053,109.732966943136744930598,-586.446989548512760848098,192.587889239977499755696,149.896827808875514165265
44.7625000000000028421709,0.24109323052037331946984,-0.0129735210613839985899221,-0.699462787940172692202623,0.0246531020592818742032115,-0.00395363999734186545575998,-0.0500943085731006473859672,0.0123138725871787917121036,-0.00263996656511671177330891,-0.529436203648565806290094,0.848256167255470594490419,0.0157969293785259687346034,0.0827662151988556998860602,9.66863116914281306435441,-0.0127187365126524148939424,0.0208757225889425121478915,0.00222804654970038158723344,-1.4550612214271050337544,0.164067104527986895590175,2.02345160485142283590676,1136.94371982421898792381,1136.43869823040813571424,1126.19901972560273861745,1148.11738161609423514165,318.935675864777863353083,131.776558585239286003343,-422.864484037529223314777,262.686328852944143363857,149.897515557899936311514
44.7650000000000005684342,0.163233458707531475795349,-0.14132413777090391260316,-0.646969728787624598354,0.0261982608011503935452335,-0.00417044323707550877028405,-0.0523527824713391765065751,0.0123508269077160157123352,-0.00262729426164992792280817,-0.529498256985330817414592,0.848216927767824979689237,0.0142861949600260537684981,0.0851655630500891963619026,9.67099531136929257968404,-0.0124435470933171692109465,0.0206243526678977460997455,0.00196361236204322178733328,-1.45502180878732145785648,0.164114370519920699242888,2.02344981854726313486026,1137.88149262459523924917,1136.7754318644163049612,1125.46886667782632684975,1148.78010775286224998126,429.811345402394920256484,161.488540134097547706915,-204.139966392271276163228,271.778135916357996393344,149.898102740610880800887
44.7674999999999982946974,0.0220783959229288034853411,-0.240400294510666107106189,-0.505512744894546894869336,0.0264870720964722125567725,-0.00538594235406703210344848,-0.0546527001853147689769408,0.0123881033675743591065954,-0.00262655029535703403442692,-0.529561927454144099058908,0.848176625231005232308235,0.012945230768516308161864,0.0875004601603135007126255,9.67373172081708432301639,-0.012182117696547230603632,0.0203770384572796760258573,0.00171792307157409831694372,-1.4549862300754008437309,0.16416194963237976112147,2.0234502145353316926446,1139.09277655122900796414,1137.24614093107788903581,1125.17831989364231048967,1149.47627229567478934769,556.717246523009521297354,250.123222280680522544571,-28.8629985118711971381344,306.976261579418235214689,149.898705402456243973575
44.770000000000003126388,-0.194105380073269689900073,-0.306376499293584791949741,-0.252218585700027475571261,0.0259366675814391746401899,-0.00733788853753583950045858,-0.0570864937851589260287,0.0124247594455753843784018,-0.00263726760119104832943981,-0.529626570973067534175982,0.848135676730855547766907,0.0118088498740864938918449,0.0897138619430277312050137,9.67680816042063796089678,-0.0119283043130002045645321,0.0201392013847042743168725,0.00148373763712337700636235,-1.4549537812568087424836,0.164209474653691400725108,2.0234534580530327829706,1140.6650788572117107833,1138.0260479758203473466,1125.32455168526689703867,1150.31498906076012644917,567.063020703409165435005,321.370844426991652653669,134.948244787823654178283,309.488714859822664493549,149.899447781345855901236
44.7725000000000008526513,-0.395365536365781922167884,-0.31558995805521417032935,-0.000153575091546611280706944,0.0253031691065276620467017,-0.0085041319597268984903371,-0.0580989110957070634122523,0.01246043637326435700452,-0.00266174293801249486207672,-0.529692258297854601245547,0.848094036906682280374525,0.0109366404630652155893777,0.0917751665253557086243674,9.68020609198593362521024,-0.0116755759749358877658265,0.0199163318416222430429219,0.00125319210002207827130138,-1.45492517037007518254654,0.164257127530520546931925,2.02346092658266973884906,1141.92809165474750443536,1138.85299515321366925491,1125.85306111758177394222,1151.02371586997469421476,467.937835282935282066319,351.200198420157164491684,294.556750289979902390769,287.341396415319934476429,149.900083073862589344571
44.7749999999999985789145,-0.599143736435479246082991,-0.287097068148978840085306,0.245261905022291032407722,0.0246634520444053047250055,-0.00877014817830334796056047,-0.0572701765190318304310502,0.0124961316000220083732852,-0.00270062326539152047777392,-0.529757710307799611904045,0.848052489933380559961051,0.0103325328856425438517341,0.0936485421982306415200625,9.68392165743987121118153,-0.0114173062450198502248977,0.0197136393399657168512551,0.00101842899836925016021638,-1.45490157583297685661705,0.164305543653083863109288,2.02347387352392171777637,1143.00476803362425926025,1139.7820489679195361532,1126.79733543671545703546,1151.75169604283541957557,389.012987948291254269861,365.730629634430670193979,442.833057103917724361963,290.305916045723904517217,149.900735999155529043492
44.7775000000000034106051,-0.787022952284806120992755,-0.23500792365577538589605,0.446534057928402450254879,0.0236217649885679115140391,-0.00881061892626283649221364,-0.0551995952574986029071091,0.0125320632444835371177572,-0.00275153942232390274005849,-0.529821264002928948855242,0.848012080928837508331242,0.00994477191948995448145254,0.095246280851773626463519,9.68796518696347597199292,-0.0111472848031178399519359,0.01953553885336599404976,0.000772529554998464601175967,-1.45488295319508087466431,0.164354867950614269567211,2.02349148136997802893688,1143.87315659448995575076,1140.68164830138675824855,1128.06722640310249516915,1152.47524545020405639661,296.957026530283599186077,319.380216010604613074975,573.236758253212883573724,272.292850036089305376663,149.901403493320941606726
44.7800000000000011368684,-0.925440215667073240446427,-0.155997181798063266899845,0.561253530523856514200531,0.0213145482066814974386748,-0.00905475797274437818606962,-0.0525552322130912671904746,0.0125686207441631260517401,-0.00281594676941303995176824,-0.529882691753035928172721,0.847972943648295118812541,0.00976994491199642545176118,0.0965181094744645556859908,9.69235648274189109940835,-0.0108603469402897123002871,0.0193850689123941238856119,0.000510328050298116905371393,-1.45486997693703501433049,0.164405176916611495130383,2.02351310597661937507041,1144.48955316627643696847,1141.37895004797337605851,1129.66351922798298801354,1153.11316029301656271855,223.776834970952933190347,222.410322970128987662974,744.730083792814866683329,228.222875825557110829322,149.902088099904062801215
44.7824999999999988631316,-0.992947906017934811551129,-0.0243950406624778362574268,0.58252774132488671643415,0.0167616270714329683444443,-0.00942703078454894261017927,-0.0494503919133994634949048,0.0126040768726139347510884,-0.00289004122430861452863748,-0.52994182876759943212619,0.847935220829900582195648,0.00972989478506564725579508,0.0973238371977544064472809,9.69712424691251584363272,-0.0105529132115097217664568,0.0192633397054753977006847,0.000229286927646329583788815,-1.45486086856926033483717,0.164455970563737396972215,2.02353583303136685955792,1144.99204076934370277741,1141.79369991623639180034,1131.79087682206318277167,1153.61635982933080413204,154.892950575379359179351,66.0851578819463867375816,779.588211384690566774225,115.278742891982943774565,149.902928320837588671566
44.7850000000000036948222,-0.949222712047170902316395,0.121095935894709780256129,0.509991760410172356721148,0.0121455597478195582300531,-0.00990306133542943889391807,-0.047182982994730893189228,0.0126360085035340900805334,-0.00296075454887416347066198,-0.529999824126667351542608,0.847898271553573446013274,0.00959408147202393812857935,0.0974199247466558532204672,9.70230249276268885694208,-0.0102235400509558867904181,0.0191690157765236936227016,-7.00666779287118955329983e-05,-1.4548513886804037564815,0.16450618993836030323763,2.02355648487657369116732,1145.264017919153729963,1141.70937583738327703031,1133.56146028490843491454,1153.68955400747677231266,86.63638166122042605366,-120.915705727367807753581,657.215836092455333528051,-63.3749993760050998048428,149.903642923470130199348
44.7875000000000014210855,-0.81236124065031334318121,0.304419475130889960468039,0.369871138879221683648524,0.0082118344508853805679971,-0.0104212481244741195229864,-0.0456060026328892129110493,0.0126619844763433738593639,-0.0030184416545685549201905,-0.530057612573423320156962,0.847861577280912159793047,0.00918482167255831732921578,0.0966051780986212221824516,9.7079220629387528163079,-0.00987304754002881271301995,0.019098183341743003166302,-0.000384137379696360831138335,-1.45483845697952429709687,0.164554955644014955229437,2.02357305986974678191359,1145.42522267765002652595,1141.18912138759924346232,1135.07695600252714029921,1153.29948483245061652269,45.8821279092679858990778,-298.608675353078638181614,552.785985613948241734761,-279.247397705038792992127,149.904370710319255977083
44.7899999999999991473487,-0.596226757853663524855392,0.551870611610865591245556,0.169411711702308120930383,0.0056388326000415805311361,-0.00997109658005201557329222,-0.0451579320373283049638857,0.0126800903366926544235671,-0.00305777462190948319531447,-0.53011600194930741380972,0.847824677590185427078495,0.0083903685682767889519873,0.0947430316118261922619936,9.71400553621371010137864,-0.00950440075968164536923677,0.0190445395113676280152148,-0.000706628593683311114446999,-1.45482044438286362009194,0.164601618663036047829351,2.02358429304891762612328,1145.49342855869986124162,1140.21633246061924182868,1136.32539021297566250723,1152.29331701895284822967,-1.33661311801847482172434,-375.328819570667178595613,334.957720468093214094552,-440.643065683072677529708,149.905256963344612586297
44.7925000000000039790393,-0.429782837608343404323108,0.757087973443993811351049,0.0106534925026274627374301,0.0054577295331550319812397,-0.00824112407010520187089497,-0.0459748069508188472731547,0.0126902672335571595901849,-0.00307606604992417907024072,-0.530175002300474984551215,0.847787575260815273736625,0.00712713507020839437400284,0.0917701620271974966014383,9.72056326835789263896004,-0.00912229513918143275486017,0.0189998593994631474746182,-0.00102920583345076201500778,-1.45479658000143419194217,0.164645853661870733564143,2.02358916347531714308161,1145.41853961205993073236,1139.312477289744947484,1136.75174460486846328422,1151.09626950403412593005,-67.4016474426590264101833,-321.464989151735778705188,33.8797274437465105734191,-514.403422021960636811855,149.906004530494129767249
44.7950000000000017053026,-0.340089163467412247676691,0.928852342368721606291615,-0.108814747500739925079039,0.00669730165431446297641394,-0.00564707578336990940331974,-0.0472327925712131765911828,0.0126923250422883698157461,-0.00307153813372089586064551,-0.530233264578348961748588,0.847751122690313163587916,0.00533462663257503605374055,0.0876489161573844183239501,9.7275912325409965575318,-0.00873259105208710681433892,0.0189546059572354534672467,-0.00134220129146755051338658,-1.45476589823231772236056,0.164687654411051598302151,2.02358694847678943773417,1145.1564203214863937319,1138.6090075148597406951,1136.49478885019448171079,1149.72129990884172912047,-142.267511574520796102661,-202.668550409819232527298,-202.278202308027431399751,-544.373556739078026112111,149.906759378249745395806
44.7974999999999994315658,-0.341290200231625651117184,1.05305593757822646416855,-0.186486427664281723126649,0.00814485094451648967972535,-0.00291584135939932861947277,-0.048395478603296078479179,0.0126858391335119766174522,-0.00304494874104345707860331,-0.530291496511994253637567,0.84771488091459668012817,0.00300514558107355805871563,0.0823850770826998063389723,9.73506871982055521641541,-0.00834184281661385848560819,0.0188985658547986372368666,-0.00163555058668570277823073,-1.45472753624908990310871,0.164726803698777901630024,2.02357758050554359385842,1144.70720205418797377206,1138.29913453769677289529,1135.74035359332924599585,1148.37440172034121133038,-225.486110638005953887841,14.7947664346626677200902,-382.844374146847826523299,-492.737426237702322850964,149.907518692382524250206
44.8000000000000042632564,-0.4517062935651068311671,1.10289133763263791365716,-0.217447005088162836905497,0.00856997403120172626667106,-0.000174545708683602866524015,-0.0492291761764861376948765,0.0126717982622712166396184,-0.00299679462682243260771009,-0.530350465631533540822318,0.847678354729370919784515,0.000122306814316165690659233,0.0760265418516589269737338,9.7429582188772645423569,-0.00795650918500009213252255,0.0188217089393379263806416,-0.00189983984979881547275338,-1.45468190456858947889884,0.16476355753676805160346,2.023561821850769160136,1144.02898976829578714387,1138.68298134703309187898,1134.58056697945926316606,1147.2576127776519570034,-338.066002800824037421989,358.414704899858747921826,-538.082818787959126893838,-401.689801589485853128281,149.90828147149019855533
44.8025000000000019895197,-0.675397873976474327761821,1.05967809100922982779025,-0.21614757665938338915268,0.00724144748847698610516588,0.00335839806859391382110047,-0.0498278075691512972733577,0.0126514035966303842878355,-0.00292965355798173151050112,-0.530409248607571215394785,0.847642097216208756371714,-0.00328732762835923231214963,0.0686668771878000822050936,9.75120599524970899096843,-0.0075821855155155885169771,0.0187150663634733024909274,-0.00212721193342705521336922,-1.4546303470186590089952,0.164798432348787105006238,2.02354119079521366231234,1143.01687204018298871233,1140.09120806219698351924,1133.04993949938807418221,1146.36595271239275461994,-384.00992885197774739936,671.013307973563314590137,-535.746337835631265988923,-238.393889245834003531854,149.909198300862158248492
44.8049999999999997157829,-0.900983002561903223437412,0.928868498922015839447397,-0.196615710061666476571318,0.00507989933851621302401957,0.00666948259114576169626076,-0.0500660578984187809581385,0.0126268036566264015008176,-0.00285271050384321676884891,-0.530466058721183908453156,0.847607163815845554566408,-0.00708740368032140244380912,0.0605029762631174167220038,9.75974316502847116794328,-0.00722307611290874933968054,0.0185714537090713519007501,-0.00231219495919040424203317,-1.45457598056274717279734,0.164832158253256089164296,2.02351876950836029323,1142.1089401240376446367,1142.03804788689785709721,1131.90183529028354314505,1146.06564333142387113185,-345.507110060676041030092,905.456998203413149894914,-385.683415268873147851991,-25.600346829219780886433,149.909961714379505792749
44.8074999999999974420462,-1.12425422128154206546924,0.699559860901285190948329,-0.171642055381116043211165,0.00245530397297129060127374,0.0101176188010491628632703,-0.050154229281325984901585,0.0126010672901261857464794,-0.00277766639791783348165111,-0.530521073957625488581868,0.847573358550438471503696,-0.0111000622748481311830027,0.0517904884505122481419548,9.76849004677507792848701,-0.00688177070323078930030869,0.0183859359733510481504926,-0.00245208682469508654905299,-1.45452328790228579968868,0.164866030877215685723769,2.0234983913004569444638,1141.28933648988117965928,1144.61849305320993153146,1131.12152242304546234664,1146.23795097824677213794,-307.182347068034857784369,1209.54266886025811800209,-224.335903682844048034895,175.46559023640048735615,149.910722246939485557959
44.8100000000000022737368,-1.34479800335139643152615,0.336154661696192957887064,-0.144744293907525578557483,-0.00121300231134821166929794,0.0132245825655114036811799,-0.0502198975303861511187975,0.0125750970188772057123394,-0.0027104067446941564403784,-0.53057537729395243264463,0.847539970881829085591619,-0.0152131332004027709781102,0.0427027891631317491061282,9.77736203954077076616613,-0.00655918546471147105580979,0.0181560051982181114293979,-0.00254669129036514535480151,-1.45447425831234244952839,0.16490023226519220922448,2.02348153522557527850267,1140.57302838869668448751,1148.08576123120224110608,1130.78015577186874907056,1146.94297128260632234742,-203.541655273543710791273,1264.95042763762148751994,-14.8494593335650701959594,329.503603756270081248658,149.911628904064400558127
44.8125,-1.45847331803704705066593,-0.0011294368082187440389258,-0.126887828256187856768022,-0.00494438680975562566688453,0.0140243876660078922030683,-0.0503206569756828939188331,0.0125488237844642077506441,-0.00265038637640742499521074,-0.530629407630703098242009,0.847506728478262472137317,-0.0194046037139361492174228,0.0333399129239346503350561,9.78627260806523402436596,-0.00625478965892569543916224,0.017881381131054741723263,-0.00259790430681820089242606,-1.45442897596042097774216,0.164934464783086237593679,2.02346786370891784656578,1140.27162821351294041961,1150.94324519140127449646,1131.04727512637759900826,1147.88546899702896553208,-57.8283040790737032921243,1048.36199595188031707949,221.583848044766995144528,433.432382844588062198454,149.912377499920694390312
44.8149999999999977262632,-1.46702551135581082952797,-0.313272993877305561127855,-0.111482604318754424665983,-0.00951315574471326211303257,0.0126300781684713335495385,-0.0505331359754052425459214,0.0125236197419282616061231,-0.00259877728583113223187473,-0.530682673923992598297161,0.847473914477544720824653,-0.0236344892339143096415821,0.0238490862913064288752807,9.79513457309072066436784,-0.00596702449132763095007714,0.0175635902240040449318048,-0.00260930144615194314905438,-1.4543885791318318378984,0.164969024452416956894041,2.02345813271394492360855,1140.28388686830157894292,1153.32757121095687580237,1131.88807501209157635458,1149.11013319682729161286,46.4402290047690939900349,813.683254918480315609486,423.712172381248535657505,522.797698276013647955551,149.913116491504410987545
44.8175000000000025579538,-1.3729346607963222037796,-0.562042886905983585243973,-0.0943933090350723008610245,-0.0144068299574442604954472,0.00981634946496776246427363,-0.050851921190758493651618,0.0124995420263143090094937,-0.00255275783029215719288629,-0.530734275470242766736817,0.84744210128948416205219,-0.0279124473208262925683076,0.0143161936426643432440642,9.80386446447694481776125,-0.00569375560013421141980494,0.0172055172883055843002786,-0.00258540328979891360569598,-1.45435259858918097819469,0.165003760951459882422299,2.023451511238925082381,1140.5038293585369046923,1155.0116614659957576805,1133.16583598828492540633,1150.4994574884103712975,116.482318408211071414371,447.732361596306986939453,598.171807774418539338512,577.454349760660193169315,149.913845701047193870181
44.8200000000000002842171,-1.155651035319022579273,-0.704009687978685239073684,-0.0707788500312704349504145,-0.0186772397594493419492601,0.00645726949081130985330645,-0.051246574235833210197999,0.0124766844483254132902594,-0.00250797795746612872669346,-0.530783579886482503873424,0.847411698318485062664251,-0.0322720901940816151665103,0.00481057333752439586493921,9.81238405151551162930446,-0.0054327575724016311659037,0.0168109065262002956020471,-0.00253121165631571207188522,-1.45431972559348920981392,0.16503808966327215834724,2.02344628592607467254538,1140.86629846034293223056,1155.56623301893955613195,1134.87893405096519927611,1151.99740494563206993917,163.221331850275618080559,-53.3026438744885169285226,819.756574347838750327355,657.724016110758157083183,149.914560871912158290797
44.8224999999999980104803,-0.779794878748842235083316,-0.747256884218626793447982,-0.0318987158289595895688251,-0.0220599074568887804081996,0.00306493723726592457237694,-0.0515992311471613895879074,0.0124565211695526305291093,-0.00246565692699473324248083,-0.530831827260913269306286,0.847381903782067125163735,-0.0366674094019753260553784,-0.00452111624473996998041514,9.82062110977127744604331,-0.0051821519522015791620051,0.0163839217519895531671725,-0.00245195007849884809639218,-1.45428995059091747954483,0.165071478521912617942746,2.02344262633134830409176,1141.31993601778754054976,1154.74514824662355749751,1137.26461886002039136656,1153.78807756896117098222,153.438079228102367324027,-541.193680956117191271915,898.205857004081508421223,632.893782689228828530759,149.915399889787266829444
44.8250000000000028421709,-0.402912976675827094741322,-0.695223936072893899940084,0.0088284427210031102273291,-0.0231962208954591860010641,0.00108097562290497984510695,-0.0515810987030352954829659,0.0124407973017203066917746,-0.00242667238778210107852384,-0.530880313695363148518425,0.847351878191871854539841,-0.0410596658322824603626344,-0.0135370144012001980549087,9.82851156537247305777782,-0.004940534595561370950767,0.0159288594995135417142773,-0.00235272615537528932000422,-1.45426297097699164240225,0.165103229137476048560274,2.02344058406560112217676,1141.63348885648383657099,1152.86026461415758603835,1139.3699633359879044292,1155.16187385907983298239,104.357441044240928817999,-953.485417466357489502116,825.551111891659843422531,495.245292201453992220195,149.91608087912476321435
44.8275000000000005684342,0.000317489406188836698063938,-0.584102399778666736551713,0.0565922445110832450509974,-0.0229722892844698434178241,-0.00011796852730557679975968,-0.0513023878786566731036167,0.0124315092784796823316418,-0.00239572597386805653460473,-0.530928939660220255980505,0.847321641308883544141395,-0.0453479982509578799509953,-0.022058438600716129274204,9.83599955683084914426217,-0.00470706769407103989971697,0.015449825690646529913197,-0.00223831995385095038064716,-1.45423917332239005517636,0.165133520286959711853569,2.023441412816922024831,1141.84172322300901214476,1149.9777211592893308989,1141.39237441948080231668,1156.26430402996970769891,73.6491729674741293365514,-1402.42042487643857384683,824.410743886004979685822,389.612782551639270423038,149.916740326566099383854
44.8299999999999982946974,0.479004268701494484439252,-0.41915149607435264744737,0.12275660997273526997553,-0.0217701730021734249365117,-0.000970250357770073307978054,-0.0509374384577654035211047,0.0124281039195526937790603,-0.00237455337876058773100008,-0.530977390469618892865356,0.847291394119413787677786,-0.0494530023681785391165278,-0.0299880819825435462888663,9.84303798588194389651562,-0.00448160302655125405285608,0.0149504106883535034522303,-0.00211271088329559970572791,-1.45421829292436721736692,0.165162490521467780757447,2.0234454301804403186793,1142.00173472132087226782,1145.84816248978177100071,1143.49201705541418050416,1157.10993777183625752514,55.2588867138810329038279,-1543.71095013773970094917,684.937898890861788459006,213.624037555682519951006,149.917503992203592133592
44.832500000000003126388,0.855370091961377254641263,-0.276240416620968820549109,0.187823347591255268573818,-0.0201879506347306843239142,-0.00141375127815665784652976,-0.050680932268052480971221,0.0124277711096035230892154,-0.0023603503380607679558445,-0.531025204698781672085772,0.847261476346969133466303,-0.0533459345104012327976051,-0.0373222227229380726365449,9.84958735402729601560168,-0.00426477352925845598630161,0.0144333792779429946617764,-0.00197868001840541653593708,-1.45419874925697234502309,0.165189901171625574960444,2.02345143290725726359369,1142.11801765657855867175,1142.25916640859668405028,1144.81706391393686317315,1157.33242421774866670603,57.7998675916364703653016,-1372.93728324086964676098,411.508255645065673888894,-15.0635700441321453979526,149.918115865643727602219
44.8350000000000008526513,1.19049995236351513483442,-0.14486579403177490821264,0.266127523747428318401376,-0.017994258792229468613133,-0.00172170620083852824767912,-0.0504286816080977279286301,0.0124278700555241847919286,-0.00234689808651831902444607,-0.531071957194516941491713,0.847232213287261060052913,-0.0570552948193260786591274,-0.0440986946012573016728808,9.85561399884910827040585,-0.00405801591722004285911485,0.0139004814947130631713756,-0.00183758202711658148037488,-1.45417792724930250436444,0.16521521713795900287991,2.0234564749811010386793,1142.29073405927920248359,1138.98347607357391098049,1145.54955833364056161372,1157.03461992161555826897,85.1917382387320571979217,-1202.26598452086568613595,177.41737900066928546039,-192.608619386458116196081,149.918701338869055916803
44.8374999999999985789145,1.47670160241484516028265,-0.0319794570204841310800958,0.355199083506852364422457,-0.0151741502476562626494649,-0.00188273859550080850666642,-0.0500742196365354871878672,0.0124248855878125608748208,-0.00232954956601536065236013,-0.531117921369309020640515,0.847203500833454858920391,-0.0605726460081360065790257,-0.0503619703154178643966787,9.86108868344873279454532,-0.00386342635257268772475125,0.0133525248672585489934095,-0.00168935439616136294505022,-1.45415287562468531490367,0.165237629377466888058734,2.02345727843910827559171,1142.54397634777183156984,1136.24783648599782281963,1145.70415080893940285023,1156.36938112081725194003,119.813143936864989314017,-919.539036330191038359771,-90.752287577787640771021,-320.828420218931171348231,149.919264789863291298389
44.8400000000000034106051,1.68142477404778700744714,0.0498106216854792491210979,0.451869879241274252645866,-0.0112033537414761401318497,-0.00168647378458601070877476,-0.0494175579330678599321303,0.0124184385407201166445779,-0.00231197324566639796777912,-0.531164155435785434455909,0.847174670002911245347832,-0.0637821145875366035671306,-0.056025220538543724080327,9.86598532881332879185265,-0.00368332549774854885529796,0.0127897412500614319347259,-0.00153310015882343608772942,-1.45412360271139484702019,0.165257066724970175242149,2.02345364039367803243863,1142.88979977896383388725,1134.38578089192060360801,1145.09579689575139127555,1155.43047782052008187748,162.0279648463191222163,-591.408484369428492755105,-448.784005698323710475961,-418.402383679735635269026,149.91980223323287191306
44.8425000000000011368684,1.80277064155040878112857,0.10292215104506841072407,0.562975580055674051926928,-0.00504092268077343131499335,-0.00111323909287294135067592,-0.0480533948720097345286284,0.0124114033925424166460161,-0.00229737335450079125862,-0.531210343024873021811061,0.847145866412260528655054,-0.066609513550395668679549,-0.0609601657571909594235393,9.87028049112402428022506,-0.0035195858459243938888561,0.0122123708783044068043599,-0.00136766763501371319856903,-1.45409244716039509626171,0.16527458347057777388045,2.02344762991447169042658,1143.35411617200384171156,1133.29079406414916775248,1143.460230780446636345,1154.2773692024175034021,166.391986657769308521893,-215.061784870672511260636,-742.132479223293671566353,-383.908371983701670160372,149.920418701032446051613
44.8449999999999988631316,1.78631672890697745792465,0.106249825473683043308704,0.638685137842860295442904,0.000602604175894087454833092,-0.000574895267279752655679992,-0.0463535681626815257438956,0.012405146045571868035351,-0.00228801212814849167648257,-0.531255451209370788134834,0.847117710463185069613701,-0.0689816727400492935018406,-0.0650818308409824713978153,9.8739530317481722931916,-0.003373203116674393636093,0.0116211203832369217719966,-0.00119208199416852007705703,-1.45406156052444379689348,0.16529102545936863455367,2.02344125142087216673303,1143.72175971225192370184,1133.31047196756821904273,1141.3851344996382977115,1153.51093596060331947228,130.564501454161074889271,171.543831623560890875524,-948.772585211842283570149,-225.721375833903067587016,149.920910515300107590519
44.8475000000000036948222,1.65056913566521190617209,0.0678581219411708708166842,0.683270359481855216188251,0.00577927574255114682305612,-0.000118930168769295605034689,-0.0442367037684969766075938,0.012399181938273676206741,-0.00228312236410022377161577,-0.531298372080494796243499,0.847090905421503448380349,-0.0708592375679702596302789,-0.0683766357006886649205768,9.87698375919478088746928,-0.00324410223496338382884185,0.011017395086808700124803,-0.00100582248289988866220279,-1.4540325466337540305517,0.165306950448128153752236,2.02343563264230130727128,1144.00693867927498104109,1134.14851322226741103805,1138.7163678543849982816,1153.14876232324741067714,100.77427590135204127364,495.1600048136438090296,-1250.54610497586190831498,-46.1410843434569386545263,149.92138247804894035653
44.8500000000000014210855,1.37826785036227206227011,-0.0198927544570891776110066,0.693365129261346746503136,0.0104042100347814057276219,0.000267871265494914231452411,-0.0419574824320858227877373,0.0123930238830036835995241,-0.00227957577386281654008293,-0.531339550111851965930043,0.847065187684667764145274,-0.072246297340489484817283,-0.0708650196627147455075146,9.87935540585383797917984,-0.0031311854136728770742204,0.010403315750383699406223,-0.000808936798185822133165634,-1.45400635731531324701393,0.165322582513124316516695,2.02343107746262917956415,1144.22563109175894169312,1135.78627199163770455925,1135.13240397475578902231,1153.28023053888591675786,63.5341908238965800137521,648.32924771367140692746,-1317.19926562210935117037,133.512352518967873038491,149.921929776238386011755
44.8524999999999991473487,1.09009869953661531205569,-0.119400161959691830659835,0.66575263025171915742817,0.0126986549586132618783196,0.000422275707454488388042924,-0.0407633770546532575584919,0.0123866121236292994756134,-0.00227689811823213877906014,-0.531380441840104023043523,0.847039645665786045114487,-0.0731129432514314864244298,-0.0725421893908364812109113,9.88105326405384332133508,-0.00303245440628332509069853,0.00978161443931396812345724,-0.000602019568365737582291142,-1.45398301013642217149879,0.165337777454616224881434,2.02342761175506913318145,1144.32460963339417503448,1137.39015946083281960455,1132.13037152628044168523,1153.81632408584164295462,35.8335053708559314600279,621.409676035091706580715,-1121.44536434681799619284,264.956199774133835944667,149.922372822973926531631
44.8550000000000039790393,0.769983486641640180181412,-0.231572490258296820320183,0.599458346388649920832847,0.0141925871637933864038983,0.000330662368622880226045474,-0.0397778451296078652821286,0.0123801323156148539855748,-0.00227685518801075187020344,-0.531422144422021625054242,0.847013583605392361697284,-0.0734024196299339903859504,-0.0733859942995897102102631,9.88206593283699241681006,-0.00294514181030661528759573,0.00915548116705815033522509,-0.000386104650609316599543797,-1.45396211028707278423155,0.165352105783643732461741,2.02342509272431803069026,1144.40479861861331301043,1138.89332037181475243415,1129.52517715301883072243,1154.60501153775726379536,42.7415153758156165508808,541.120055349798008137441,-916.35070634059457006515,314.655021746078091382515,149.922805632396745068036
44.8575000000000017053026,0.438159249651331572650292,-0.339190122690840034636039,0.494079360028700620421915,0.0156930670165963577489254,-5.66940856220044778375489e-05,-0.0381942590823285202383808,0.0123748259618827148587084,-0.00227976584456015271898388,-0.531465763028155957492515,0.846986289160635896777762,-0.073102934602692251631062,-0.0733823768023265793347676,9.88238595019880072811702,-0.00286584902587106501309355,0.00852839740711261104499918,-0.000162572585846295643947565,-1.45394355416204912323508,0.165365751851652198478604,2.02342330580954410379491,1144.53831721027336243424,1140.09575973758319378248,1127.54861799457512461231,1155.38959919457283831434,81.5303906659951564961375,376.646625774607514358649,-583.841097555508781624667,257.315287623311917286628,149.923232332298056235231
44.8599999999999994315658,0.104985931580294539200437,-0.418391791119733014170379,0.331461582013239219879353,0.0168931984339266080819009,-0.000946476861415965274419715,-0.0358897642991133497547551,0.012371853711982015375237,-0.00228635126480049560154795,-0.531510850265608736364698,0.846958024315997870523631,-0.0722065688265230432030251,-0.0725251826735527627132427,9.88201079347808075681314,-0.00279062176500699966191776,0.00790400673646467731570109,6.69184814609273721525834e-05,-1.45392721041823635985679,0.165379153550378132919718,2.02342209140420159485529,1144.81245057194291803171,1140.77655350068607731373,1126.6059716652439419704,1155.89158797587265326001,164.490155833307170496482,170.155756451235248505327,-144.370033517651592092079,98.6596836617031840432901,149.923654446168313825183
44.8625000000000042632564,-0.273288956475579603022652,-0.448313376374453675943244,0.0740244319968156871958342,0.0171203566743979330999625,-0.00275053963885058243982185,-0.0334689856535323529418413,0.0123721414026198312657856,-0.00229706793722975720350998,-0.531556006696255467502965,0.846929652620758366410314,-0.0707196750709504079468459,-0.0708256352117757337349957,9.88094377755076891389763,-0.00271509266624199354506208,0.00728600514692196755961451,0.000300459427771476435091447,-1.45391292807853589330591,0.165392412772658509156898,2.0234212309146646369129,1145.36076798944031907013,1140.94653851983980530349,1126.82676782698649731174,1155.88289761288160661934,237.590951445159902277737,-30.3418563880613270100639,293.037825867200069751561,-124.625802664177072642815,149.924159147309552508887
44.8650000000000019895197,-0.546785112684334162480582,-0.39847369330269249987353,-0.169269089421210355839165,0.0159467043960467153018712,-0.00485180312909093153922457,-0.0325464402396151916696532,0.0123769674935198057547092,-0.002310185381125267386343,-0.531600694737441537007783,0.846901497325314722708356,-0.0687013179697614495555769,-0.0683222701416866667889494,9.87919489630672487123775,-0.00263466917764114232081152,0.00667805070396297086043891,0.000535876056728470462689473,-1.45390119274463081033844,0.165405744386793035483052,2.0234207573258697898666,1146.00040532916932534135,1140.62484421874569306965,1128.07116079458069179964,1155.26845896255144907627,283.971715084666357142851,-189.239062144305762558361,659.837814164402402639098,-361.911887374992090826709,149.924580638186881742513
44.8674999999999997157829,-0.747128162305426668510222,-0.25957224088986463605977,-0.393378393797216063809685,0.0133590735469532040369245,-0.00718187038501160064651874,-0.033244883503609032326942,0.0123871123761348234104673,-0.002324114004264060413113,-0.531644058071193192915871,0.846874088516063383558219,-0.0662157436462675330623995,-0.0650701232242620469792271,9.87678186552077264082072,-0.00254469564540377125513859,0.00608368096855079181634052,0.00077070746893080578545504,-1.45389230181076989367739,0.165419250507162468588618,2.02342070063681367386721,1146.78062656486235937336,1140.00034320911913710006,1130.12595689780550856085,1154.0733381760082920664,356.062504090055938377191,-294.993355301262454304378,986.518421751121877605328,-609.172682091101819423784,149.925005847598328045933
44.8699999999999974420462,-0.881495788597449259071936,-0.00450091216269285498974284,-0.572675848413832677685775,0.00935226556454773344517761,-0.00905136862332872951797391,-0.0360143524010080526287503,0.012401965852619973793014,-0.00233918749624783791143945,-0.531686610619456101467506,0.846847110918183432204387,-0.0632923789846660256319666,-0.0611358995364661289562136,9.87373100318487928461764,-0.00244069297580872804007135,0.00550617733039714812859344,0.00100218896065569496034442,-1.45388582358594442567323,0.165432559444680549187723,2.02342109036330342064502,1147.78071784961798584845,1139.14987744224072230281,1133.00375290333181510505,1152.22259555209870995895,361.535081100097727357934,-295.409754933629130846384,1039.49042920309261717193,-692.594096271714420254284,149.925523258931065129218
44.8725000000000022737368,-0.906489465648596781655044,0.251237119649659446096734,-0.606266351118071811221455,0.0062154083955457779461784,-0.00891242826183065960099494,-0.0395592774480146777693612,0.0124207567733396889719799,-0.00235540312984254584030563,-0.531729559866500389730959,0.846819817250109241335565,-0.0599758813757151620915664,-0.0565998996690668387810064,9.8700777381936859455891,-0.00231855208965473826021597,0.00494843688586793940126229,0.00122722597071887981785843,-1.45388158816813151119618,0.165445689665220468933526,2.02342232126436893935306,1148.58830197036377285258,1138.52329443445023571257,1135.32340904382363078184,1150.61036769464794815576,301.701545478299806291034,-205.116464336865305995161,824.200889385007371856773,-585.812624376213079813169,149.925962076025911073884
44.875,-0.862960209418206170006727,0.503991901406679154717949,-0.49826770472059622729688,0.00398065430587617435226333,-0.0070024522195992885617577,-0.0432388739993847526221771,0.0124428704868326800436762,-0.00237304102876404300961899,-0.531773332611638505085239,0.846791947572547276656962,-0.0563180859366744918093062,-0.0515428108424792613684318,9.86586703107916207500239,-0.00217469619170629563723041,0.00441286777656429117511205,0.00144241040368873313891329,-1.45387957241754461890082,0.165458833904174901219264,2.02342477563800304807273,1149.28922557701025652932,1138.12429512055587110808,1137.12475735025896028674,1149.29353243021614616737,254.512667174007674475433,-111.848102523128403618102,591.952204923692988813855,-428.359897935732419682608,149.926410281850849059992
44.8774999999999977262632,-0.786509929561778897699753,0.723211502665739636164233,-0.285150768821368194583243,0.00240020651595443130360552,-0.00438367463616250001290364,-0.0459779889164131719270223,0.012467057380549475750775,-0.00239186571562538226667916,-0.531817127665687006121686,0.846764023977487734207159,-0.0523812815961089833782793,-0.0460656956669773104406929,9.86115357504257517007318,-0.00200627340949527735447511,0.00390128598046542022018124,0.00164410892858410763797683,-1.45387984731362451817915,0.165472025411777801107149,2.02342882535429646750913,1149.86086530623265389295,1137.96405392183510230097,1138.2831700684394036216,1148.46856820497123408131,191.978923632670557708479,-9.36582738713216933490457,292.275720864504933160788,-171.526851572801689371772,149.926866956228991512035
44.8800000000000025579538,-0.697210186981634172376232,0.880640261434783688798689,0.00850096501548446709106699,0.00121556024385709345037032,-0.00165885439776290201374653,-0.0468707229115063461755142,0.0124927753452212415841149,-0.00241138261807213047718812,-0.53186019347416502167647,0.846736527910275316166633,-0.0482455067333923404149232,-0.0402629487705233740646449,9.8560015581483533253504,-0.0018113889366757451437201,0.00341480650462900551384005,0.00182859219847083479676408,-1.45388243940355765815298,0.165485150369642591838826,2.02343494044865979120118,1150.249120195174100445,1138.07746598362018630723,1138.5861359545822324435,1148.43589817235169903142,125.264028645987792742744,92.0048448124800870573381,-44.2211411323343099866179,184.365714499241477142277,149.927334174693498880515
44.8825000000000002842171,-0.599796170584525278890453,0.989395609743566106786261,0.372810756602901749445778,4.4185404585881234108477e-05,0.00139094418723562833831164,-0.0455631106546577277494059,0.0125186327868074178532032,-0.00243294699048842528663061,-0.531903245404742097690587,0.846709026966822042581384,-0.0439543467203005883137124,-0.0342241299614807759077451,9.85048411882472052525372,-0.00158931384204043864467881,0.00295372466921515206342286,0.00199226084147775036464756,-1.45388657090289519224768,0.165497457356944072115468,2.02344341400750682424814,1150.48718544946291331144,1138.42407814589773806802,1138.06206436277761895326,1149.39039677746791312529,48.8870396268329301392441,138.818898354283021490119,-305.863473216782836061611,498.894703057384390376683,149.927906824787839923374
44.8849999999999980104803,-0.536432145435367657704262,1.01453788056434035524944,0.627517641627515776470148,-0.000837709700936411193195053,0.00370742088671228119112211,-0.0427098730916203525587171,0.0125437561324296537046408,-0.00245751432212636729962574,-0.531947042944512227258258,0.846681055298135087916478,-0.0395646411186038465812587,-0.0280329170202786651100446,9.8446823103600493709564,-0.00134060878622097945714331,0.00251742999144213049772523,0.00213190880968801201728047,-1.45389109250843606702119,0.165508025457210078412729,2.02345420475836457185892,1150.49355539330804276688,1138.77156047539097016852,1137.05681858849970922165,1150.93037168763635236246,-35.9838447695253833558127,124.932510186936013951708,-472.149533438673131513497,720.685332199986646628531,149.928393419902846517289
44.8875000000000028421709,-0.49416492071841877642413,0.975036901421245771892643,0.781129758505062610218772,-0.00177080072341456382090108,0.0059967059603844956316987,-0.0388840059451219105524089,0.0125670674680062322003948,-0.002483104620416361815044,-0.531991462811741477878513,0.846652713829143199752991,-0.035178757829430008785554,-0.0218040224691601405848651,9.83868402772796635247232,-0.00106710659481930943311145,0.00210437182687691010443687,0.00224502348670838286839868,-1.4538949105874310330222,0.16551644260304573808007,2.02346651698162105503798,1150.30726622561519434385,1139.0487406968327377399,1135.70131669558304565726,1152.99382343846968979051,-122.085444973191741269147,91.5352359675566873420394,-628.509289726522638375172,945.789890605617983965203,149.928888509224208291926
44.8900000000000005684342,-0.462579974275725891441624,0.855035525567838572413848,0.830555111638651810679335,-0.00297807274681545193842358,0.00891691141923128469115589,-0.0346413061264193647414977,0.0125869664288276502522868,-0.00250611389330448845746968,-0.532035130672683376218401,0.846624901984374123031785,-0.0309169395183393307113828,-0.0156731933787653127110318,9.83258245613647297034277,-0.000771734275393325488447138,0.00171212711061962731019792,0.00233002257385601149047849,-1.45389699724455656593136,0.165522365996833870083194,2.02347920816742199434657,1149.883128168441771777,1139.22923665522898772906,1133.91427213986548849789,1155.65932114066686153819,-183.543437607780589360118,45.5902004605337367593165,-655.661996486974771869427,944.415841899394195024797,149.929490682634451559352
44.8924999999999982946974,-0.445367870130358001201643,0.697128696288561222615954,0.772534495363525031130791,-0.00398360203605760410106029,0.0111515713799051705695797,-0.0320317370878040671988707,0.0126020376804059416192549,-0.00252681891263517414969453,-0.532076330837941036122629,0.846598718792446414127539,-0.0268308661047644489427988,-0.00972647551256033970901171,9.82647362757723286108558,-0.000458213058138889765043972,0.00133758511349483058018583,0.0023863660347629316905993,-1.45389714080741527801877,0.165526162572366769554222,2.02349221022981140549746,1149.38954903757712600054,1139.27669169913519908732,1132.42300671315115323523,1157.71590264796236624534,-217.724847882052500835925,17.4182250142077492682802,-575.602484366050930475467,724.286195542884001952189,149.929998290170800601118
44.895000000000003126388,-0.427743506861221645110049,0.487255851644422088853048,0.646413174916528499025503,-0.00508420481959393107118661,0.0129010189955214484708312,-0.0304848568506210677864221,0.0126097658466543995764431,-0.00254211518561544419503306,-0.53211435238813975523442,0.846574658445181205124186,-0.0230095320423172045032345,-0.00409658554573243127716609,9.82045508544989864674335,-0.000130758461056912697736618,0.000977181516153091981810586,0.00241458766847505541461305,-1.4538944435418910128277,0.165527941475501982893093,2.02350450456208141858383,1148.79450392903095234942,1139.31632778030007102643,1131.03625971803376160096,1159.28075211838313407497,-246.626950383653166909426,33.1163130711787516702316,-525.999567346802109568671,514.921560940283939089568,149.930511526376676556538
44.8975000000000008526513,-0.402196161236612503842025,0.244749427851443462911263,0.49389183222652049964907,-0.00643763338713739408786241,0.0143800046585191073494903,-0.029648696600317377830569,0.0126086602871261759667432,-0.00254811053153810706389804,-0.532149374394943031063576,0.846552642983762537731707,-0.0195573152446983991592511,0.00110001609076591788660693,9.81462349422491797668044,0.000206270250181194570024065,0.000627261672824966148506731,0.00241621683503734927325746,-1.45388826365773216053867,0.165527519811187184828327,2.02351462802412784824924,1148.15641428565822934615,1139.44227326449117754237,1129.79300887641579720366,1160.2905104526651030028,-253.596819661109833532464,88.5060556876292139349971,-451.520730574249228084227,261.024937361035881622229,149.931029684872981988519
44.8999999999999985789145,-0.361339724610683865613225,-0.0173566494291439790687015,0.340663483525253385497678,-0.008192968704580758446121,0.0151140112094079494264864,-0.029388647292918457232247,0.0126002262871027885526853,-0.00254699975940684761321897,-0.532181986184522282101739,0.846532271764686816695189,-0.0165000111245113788294159,0.00586739312418473046850664,9.8090715146366704857428,0.000548765427457104429907753,0.000284519837049291754969838,0.00239355768620144043756781,-1.45388033380039671804695,0.165525252605455558407854,2.02352305987963498878912,1147.52651983072655639262,1139.7588580587378146447,1128.77865606516456864483,1160.5858768051871265925,-258.086052264893453411787,190.461706041917636866856,-382.826221415811858150846,-16.3196117015020902840661,149.931554744790616950922
44.9025000000000034106051,-0.29961571605758208214354,-0.318772641298719239255632,0.183318293085322797653092,-0.0100966380456879861737818,0.0145035131933528797093524,-0.0294260587829486830457881,0.0125851109458136271174178,-0.00253926070626959467235739,-0.532212604114262632926113,0.846513271335559980279584,-0.0138745700235048952109196,0.0101836769453585024303166,9.80388732288894537703072,0.000893176757398371967341943,-5.36894034617683150100928e-05,0.00234941662021711248145572,-1.45387123111994176483108,0.165520934966223609574598,2.02352961581842016869359,1146.86598402433310184279,1140.3945817947012528748,1127.87887776933575878502,1160.20891239415755080699,-214.624478333443477140463,266.895185462226322670176,-274.053862470505805504217,-229.844752479421657653802,149.932194877298599067217
44.9050000000000011368684,-0.253048121645566670423477,-0.530264213592506861161269,0.084417496961341431660486,-0.0107903098481997878482774,0.0128058741911327104295859,-0.0295839076051345635509637,0.0125626360340701723194989,-0.0025220131180015920371873,-0.532241641523602648788938,0.846495400670623010519478,-0.0117519534796147601118932,0.0139753144416925739745849,9.79915362708750770082133,0.00123676932272659629089007,-0.000389133329935262381894107,0.00228680983490597063839678,-1.45386035845628991403089,0.165514188141204277027185,2.0235330388377370525177,1146.4533974390587900416,1141.09333398604962894751,1127.40838675281133873796,1159.43665304278943040117,-126.323338646558411824117,287.383418377782959396427,-133.382700111163444489648,-357.59953459128848862747,149.932738822303463166463
44.9074999999999988631316,-0.2368773784148062999666,-0.673046305368912078925803,0.0213511944989586525955882,-0.0101517850195313313887979,0.0105663337900301201183195,-0.0297547160092266060882338,0.0125341364760058696786738,-0.00249535354988514096116758,-0.53227114452215906759136,0.846477353355991057881624,-0.0101676195844805916657094,0.0172376945485857302475807,9.79494525064706600403497,0.00157791496230389469493383,-0.000722485154954840332747201,0.00220859102311434830900883,-1.4538485668676441875391,0.165505751270864365221058,2.02353350587531366500116,1146.23436733110088425747,1141.83149888658886084158,1127.21196426878054808185,1158.42091472120273465407,-46.3639273555362905199217,287.86627627799867923386,-32.8023268383108614898447,-449.362874747200521596824,149.93329688507748187476
44.9100000000000036948222,-0.269175083884076737916757,-0.748662016160202004044777,-0.0184045501498243044280478,-0.00859410210927386182533372,0.00782723683935006298018067,-0.0299094042853891468880523,0.0125041083717972456579304,-0.00246671567980769664701901,-0.532302332351434315249605,0.846458272255570021158633,-0.0090625281632967166767223,0.0200977552224703009953188,9.79132728548038322458069,0.0019163073455261917660275,-0.00105318192632015907202192,0.00211705584362771766226974,-1.45383928426801722899597,0.165497349666936022227759,2.02353373662420121803507,1146.22157780228098999942,1142.53266536744035875017,1127.24437511861970051541,1157.18983866905227841926,36.9400311170731754373264,191.929316396082896289954,48.4158205598967157357038,-421.793154270847253428656,149.933987096674741223978
44.9125000000000014210855,-0.328918966135042289966606,-0.729441901607792098083394,-0.0285407621727151138146805,-0.00787882649691291382654246,0.005382871318233592265734,-0.0299767483075973617534515,0.0124770683064376400328577,-0.00244449225222481128158569,-0.53233678200971812355391,0.846437072731331729968929,-0.00835724696642755476849729,0.0226943125814981078169907,9.78835578305649889330198,0.00225286368254052227905193,-0.00137951012329543898707329,0.00201375658574823920149433,-1.45383467590596771046307,0.165489961898219406499777,2.02353559300319396641044,1146.41906748668634463684,1142.79114546856976630806,1127.45404337158015550813,1156.31194894984741949884,119.066219139148472550005,7.71928421996355584866478,113.96449399513946332263,-297.484867388582188141299,149.934582220002738495168
44.9149999999999991473487,-0.382347799197284343719616,-0.63218334903440398520047,-0.0241836171969749616494916,-0.00882365401003417336445178,0.00309486921539575471004624,-0.0299714322402536183231891,0.0124559194020388182277959,-0.00243420792683134027192815,-0.532374380411628655984657,0.846413766103060516421408,-0.00799919755542102817180705,0.0251099372198657494470453,9.78607816454091938851434,0.00258929225398324674295436,-0.00169895057604320279080745,0.00189963020353139488798078,-1.45383558135164148161778,0.165483499489358254486149,2.02353995490677940338742,1146.8169088979761909286,1142.57126178854014142416,1127.81419758859487956215,1155.70241433211072035192,214.833226080626587872757,-208.224294642134623245511,188.03798931098228308656,-199.971379799296784085527,149.935200858415015545688
44.9175000000000039790393,-0.378400416395795857749107,-0.447809376348529741829196,-0.0123864134199245679718304,-0.0117496548698374156383117,0.00110157922571892628871293,-0.0298776785335834078882744,0.0124426840751766486226071,-0.00243768900999380075389489,-0.532413838160680996658414,0.846389128192814199636018,-0.00798433539228695504652578,0.0273742933509081992626832,9.78453279319478319564496,0.00292749671113803205946269,-0.00200868038571021170074493,0.00177535280923395611014926,-1.45384221002590297011636,0.165477573785448417442723,2.023547032881118923342,1147.49323361709002710995,1141.750023995358560569,1128.39423331813554796099,1155.31209205085042412975,273.83869967224740094025,-369.662316833493662215915,235.159964934216731080596,-93.0729990764554173665601,149.935972933032417131471
44.9200000000000017053026,-0.285569431014573771321352,-0.261416230449904973820452,-0.00311393510619144275874959,-0.0147151405127727060578868,0.000195658782717221497527219,-0.0297291814538729361194758,0.0124382137450178356652408,-0.00245290183094357388399187,-0.53245312051576576539702,0.846364432663113008814548,-0.00835669299633736567534115,0.0294579962565913316963062,9.78374839273080354473677,0.00326897607320031065650245,-0.00230616378215740738116812,0.00164178206526036682237624,-1.4538536927971659196146,0.16547147111335119840092,2.02355615300791491506516,1148.18610239633812852844,1140.72295020437172752281,1128.98999741326656476303,1155.23704933672820516222,290.818050764429074206419,-429.206685322723558329017,258.256287851925890208804,6.31357774128110893485655,149.93664243586667339514
44.9224999999999994315658,-0.0919101522274678173207718,-0.0724599868699258853332879,0.000889074459325921162555773,-0.0169158228823830560083596,4.75986533520666765849708e-05,-0.0295277595746928217534943,0.0124414441720053902534771,-0.00247311698478918035384866,-0.532491780147711257775711,0.84633999653536040597146,-0.0092139707790943811693829,0.0312527970175133090746655,9.78374345361072528248769,0.00361433663961931855856946,-0.00258971944362035039893799,0.00150036589137064703056157,-1.45386846365712973927486,0.165464374212859338664217,2.02356595924572157940702,1148.94732387091085001884,1139.60399056874689449614,1129.685514757394003027,1155.34365993955680096406,302.125469083130212766264,-415.693779235667705052037,289.471152431076177435898,60.2834308800684937068581,149.937340064139903006435
44.9250000000000042632564,0.166188491546723687841691,0.0962111504394711491983117,-0.000631228647828968592037313,-0.0179223332343040192560224,0.000469461257203248022006753,-0.0293249608514021126159932,0.0124510550231695625578165,-0.00249072712758501924393273,-0.532529062667327690583363,0.846316336954903158940056,-0.0106609073183843022780692,0.0326396854282215015397028,9.78452429361659170581333,0.00396297669450883672387365,-0.00285899309974911412790544,0.0013534114365263156393171,-1.45388431681025420694198,0.165455502246474817074073,2.02357509182972838956971,1149.69672974175455237855,1138.6444813081923257414,1130.43735317542268603574,1155.53846649112870181852,276.443716584248704748461,-294.870819850288285124407,303.095727305007585528074,87.9376989636971586605796,149.938061343826433358117
44.9275000000000019895197,0.457218799098480566112102,0.218301327300375158646517,-0.00710812308830672222315084,-0.0172226665480596924373557,0.00149024055407230874778501,-0.029228109896685307983466,0.0124657532194343469850173,-0.0025034829458877778420034,-0.532563991924096091779006,0.84629409402789324001759,-0.0127080434415865958786007,0.0335600929847964385421832,9.78608280781589456864822,0.00431300861668291578981949,-0.00311522671850905175441881,0.00120414842977381022701144,-1.45389901433676316244714,0.165444718736393769908943,2.02358354071675794472185,1150.32954245383280067472,1138.12963646949469875835,1131.20099339391981629888,1155.78334843437551171519,223.234958585974936795537,-82.6276143131805156372138,320.200971571394063630578,112.009714600491875557964,149.938811012093538010959
44.9299999999999997157829,0.776951559866273955279325,0.292943517410029441450092,-0.0155097578800575675028739,-0.0144500087139690092108424,0.00319183700497734177542464,-0.0293395432057304977879753,0.012482433179650115340209,-0.00251078839387327808554962,-0.532597349485790960699205,0.846272824296860792792074,-0.0153129490505659396348825,0.0339488231114364186202792,9.78839648139514295621666,0.00466138668933241927250233,-0.00336125992040504483621133,0.00105668925168069492703804,-1.45391010301233958301736,0.165431692974710636834246,2.02359107190709908152826,1150.81290453468341183907,1138.23134323662679889821,1132.03835803327820030972,1156.09851506413065180823,112.237828002082309808429,164.946940091126577954128,281.399242234721327804436,118.156481030080755090239,149.939742722232097094093
44.9324999999999974420462,0.974930853332295010993391,0.292254440501021783838098,-0.0190508465895497421105365,-0.0109101447203815132142024,0.00466176626545588071448556,-0.0295428945126787641239918,0.0124986828453169836194991,-0.00251418497825806443526919,-0.532629352646146192462595,0.846252423564750499984655,-0.0183975339772235180202387,0.0337817235472828297782044,9.79142730355133394937184,0.00500419145262464681173098,-0.00360127656829590430190291,0.000915970134980002761299067,-1.45391747891418376958939,0.16541648262411873249178,2.02359698381457286942009,1150.89073159384270184091,1138.95437116994958159921,1132.60798960509214339254,1156.37413083952537817822,-52.9155829312642111972309,405.011012519819075805572,193.466843663228416971833,113.675552446999120093096,149.940545170860389134759
44.9350000000000022737368,1.06901829936979853030721,0.235781210848144767711076,-0.0162122876388475223308205,-0.00698714503874894692081465,0.00551345238369967821645545,-0.029744497054953085435347,0.0125123006438921484384519,-0.00251005306855283868983086,-0.532659879603274988291162,0.846233013583733706397538,-0.0219635432667569657771978,0.0329928131177705946663892,9.79512282304763104434642,0.00533703118923756734959252,-0.00384037289424065102910744,0.000787614355975310926130661,-1.45392033314137858468484,0.165399131767180768148862,2.023599331030497161521,1150.54832662002695542469,1140.25639829922693024855,1133.00569225159483721654,1156.66689282636593816278,-253.70798583408694071295,661.122917071887172824063,139.416007648079897762727,131.576165691581991268322,149.941373586734130185505
44.9375,1.05474367003572710999038,0.124868170064852221368135,-0.00561183928075572290017359,-0.00281186349876182605997399,0.0057138204723732356760113,-0.0299233368652634668105605,0.0125193299489101024513094,-0.0024920679185696350058099,-0.532689791467318096707118,0.846214131438746797186923,-0.0260314939339251379124551,0.0314680932314406885952351,9.79941622596954786672541,0.00565552422044934745976041,-0.0040840121377029147547999,0.000677529040003626995339325,-1.45391763984585842273134,0.165379462381546799010223,2.02359606639539046923915,1149.62219166467161812761,1142.25998575531070855504,1133.3050696433328994317,1157.0320116679836246476,-417.569943847381694013166,763.863014323864149446308,91.4644848145976254727429,132.821179134346323280624,149.942396280015259435459
44.9399999999999977262632,0.948609620590536217754618,0.0115140078580973134053655,0.00707806242765580007764159,-4.15910527176111284434513e-05,0.00568245173702355225314742,-0.0300043849487584661506201,0.0125185234786510755228273,-0.00246169374027201516910712,-0.532719256359178494619755,0.84619568572711234555328,-0.0305138336435494192389051,0.0292288961226298271700585,9.80422488048569995555681,0.00595580415393491720277286,-0.00433742030403870462013094,0.000591266984123435643434796,-1.4539107782721298889328,0.165358021001576566133551,2.02358808257238953487445,1148.46047690079194580903,1144.07571337084277729446,1133.46301467566740939219,1157.33099872203706581786,-520.500615972248169782688,699.656213924623898492428,63.2873342573606336713965,112.791018188987948178692,149.943271167087800677109
44.9425000000000025579538,0.769383968773311166522433,-0.109904511820245909259341,0.0195011950773359317434785,0.00208762025027925965728337,0.00556998285631581796506495,-0.0300095265046873144187956,0.0125131535290790695674756,-0.00242813746990152689447795,-0.532748837131291175239767,0.846177244952530771548993,-0.0352354776764101096375725,0.0264614017551532271221859,9.80945196338487335196987,0.00623498511114155620771449,-0.00460499665654174727275061,0.000533351057816564954466854,-1.45390285329586443907601,0.165335810978692127060086,2.02357873223032136422717,1147.01968858480904600583,1145.75826682493561747833,1133.62150631461986449722,1157.59596675892885286885,-594.203451245962924076593,611.909523539730571428663,77.7873475622584464872489,96.3400419315310614365444,149.944167965887857008056
44.9450000000000002842171,0.551016288494590278368435,-0.229212177602908934170856,0.0277175384224320926762619,0.00379200729405785100234461,0.00510529884960986019698526,-0.0299491294147910362688503,0.0125063872787142850440123,-0.00239916667037089062844424,-0.532778983715819109967526,0.846158455507418749697024,-0.0400392382139993785461485,0.0233430632161906181920585,9.81499099115142392690814,0.00649138903682674409806319,-0.00488996934837917628796644,0.000506844775185752612067791,-1.45389605154309320411699,0.165313449337372797565138,2.02357053526308350299701,1145.48945964456061119563,1147.13526098854299561935,1133.85195141347890057659,1157.81269893169496754126,-594.276778836814855822013,442.450346281468625875277,121.844561034342262928476,71.8569836312525325183742,149.945081613091815597727
44.9474999999999980104803,0.312833737238865428054169,-0.335927882965045054852737,0.0257874438451555776374846,0.00486745278232133052331854,0.00418930771674754821864983,-0.0298067410960169212885695,0.0124985487459584408004298,-0.00237795599587935918561854,-0.532811475397671374665265,0.846138182818436224152947,-0.0448113126606516434802252,0.0199627214260761493003216,9.82072922026084782487487,0.00672454649042120589791383,-0.00519428204727417908159737,0.000513301757054033256158498,-1.45389110526518638977223,0.165290832213046995358141,2.02356395332148064625244,1144.04830469062767406285,1147.9705185563409486349,1134.23072911979102173063,1157.95525167708478875284,-567.616557496176710628788,221.62338018913519022135,207.353045034718320493994,43.2193369961402709122922,149.946013810203851335245
44.9500000000000028421709,0.0408541718388633623426642,-0.439632025634977219308297,0.00610311749133309391912583,0.00501557598749924078013196,0.0028079580012608227647386,-0.0295491383009217900568188,0.0124900168705321962941968,-0.00236075487647961160947441,-0.532848018078480700765454,0.846115357423382064006034,-0.0495524103467722479288149,0.016342115968107098766815,9.82654997308138788980614,0.00693503298227558014760197,-0.00551869158141188743266214,0.000553007560420689997168764,-1.45388769444988774637295,0.165267748822559873422833,2.02355798452303892176474,1142.65137685707827586157,1148.24337788948923844146,1134.88871663865302252816,1158.02879561667577945627,-434.212204840610638711951,-16.705927642388452625255,273.271437158151741186884,9.2246559227940547742719,149.947151318376427298062
44.9525000000000005684342,-0.149143890879530810478215,-0.50180702514231423361224,-0.0271019689949188354038956,0.00416972285587668967110631,0.00165955532481937089415991,-0.0292929862172743755988069,0.0124805674716218471809182,-0.00234274158196973864010104,-0.532889458738600496623405,0.846089462828799709903649,-0.0542756402730310005821934,0.0124840977902386379705391,9.83233477083241425020788,0.00712431151374131026859926,-0.00586290940569725218395325,0.000625095358496387514674053,-1.45388556045122463444841,0.165244083049022355558222,2.02355181570190856277236,1141.87724366642351014889,1147.88698891812896363263,1135.5970863055824793264,1158.00137495669878262561,-220.110234187013816153922,-236.424410021787878122268,307.99568607941000664141,-31.9994441107446618843824,149.948112708974321094502
44.9549999999999982946974,-0.279859886682174818783864,-0.536217439352214442216393,-0.076712213534354936617099,0.00283977014807422793382652,0.000609333295126963220798844,-0.0290908741327939174281525,0.0124722320523286567955923,-0.00232566549212769209387108,-0.532934070753985245083584,0.846061549684914648850054,-0.0589110884115387894999216,0.00849840808769418420975938,9.8379650911069074226134,0.00729458380608911417797291,-0.00622574793547236125801358,0.000727604192114578987235496,-1.45388618216611753553025,0.165220482385541350689451,2.02354688938236693118711,1141.5508256861442077934,1147.06125583938137424411,1136.42869506904867193953,1157.868798396122201666,-52.0547200661173690150463,-422.102515763356279876461,378.106701694821197179408,-86.2072949876633316534935,149.949084778426936281903
44.957500000000003126388,-0.359730138791433617928561,-0.540591454484656619428051,-0.14757774574235263398414,0.0012907502604431510002253,-0.000709320446937337879475538,-0.0291229549881996639670856,0.0124667934988706256838054,-0.00231147581670268801798396,-0.53297903352211040139963,0.846033361169026276726868,-0.0633868450269593208812324,0.00449203314271133524737678,9.84332618575777118508086,0.00744861040649021782789063,-0.0066052800681466305315892,0.000857565007466254414225659,-1.45389068582198088819268,0.165197321365590843456062,2.02354449062112751178688,1141.6169700660927901481,1145.7764763393111024925,1137.48761981405755250307,1157.57033848176024548593,82.3288267173699637169193,-480.100854181118791075278,383.710760094103704886948,-133.976289776068938408571,149.950258993737918444822
44.9600000000000008526513,-0.365229280966937519536941,-0.507123210650972322532937,-0.206438481386363531511208,0.000204466478448041727748394,-0.00204341428342026025857803,-0.029482363675516529144538,0.0124643906343005830827941,-0.00230144002486325736922534,-0.533023658834421154573135,0.846005323946502851839568,-0.0676298468350369219592721,0.000535570989704831079691871,9.84830965794476753671916,0.00758944849488940760651179,-0.00699907405110853069601928,0.00101122506167417611049053,-1.45389909365943714725233,0.165174362878116709474341,2.02354491206503128708505,1141.96246981973126821686,1144.66075156847455218667,1138.34724886952017186559,1157.19891694724151420814,173.285366718412916497982,-413.51510099635879669222,320.285276227487258893234,-171.723814370190410727446,149.951240060272169785094
44.9624999999999985789145,-0.317141101928650859242964,-0.426547102442624503915169,-0.251100110354536443235673,-0.00066473964918004166575749,-0.00375180163928854389782108,-0.0301606922309855807196044,0.0124651050578479371394591,-0.00229731567942404422966174,-0.533066994231869539788704,0.845978031422299658892427,-0.0715637533371444034546727,-0.00329927332392147831807705,9.85281499467732047037316,0.00772006628655663978272328,-0.00740458185038499801938761,0.00118442253368681378773719,-1.45391071661243098667171,0.165151328426142801619747,2.02354773373952756543304,1142.4833968996840667387,1143.70890083433118888934,1139.08904619519353218493,1156.71171940991007431876,220.318924031949848085787,-331.84339777373071456168,263.408627698074099043879,-208.502526163586225038671,149.952218511543492240889
44.9650000000000034106051,-0.233718711835905423868098,-0.304340915423363778113952,-0.273809900998323474397012,-0.00138335287279914395837388,-0.00566189543471451190576049,-0.0310870633100171593621308,0.0124683224953477337498819,-0.00229937500319230469711385,-0.533109018579179805286117,0.845951505095024591796005,-0.0751353111465261624957179,-0.00697161097194635981377786,9.85675115363894605025052,0.00784305605770700686729668,-0.00781944644796549875875868,0.00137292975288268843080119,-1.45392489652927170418195,0.165128099473632772298259,2.02355247407896987610343,1143.06406443989158105978,1143.0015345796050496574,1139.66429200801121623954,1156.15640431642304974957,229.80805285075868482636,-213.731060997160767556124,174.644555708893449263996,-227.598171498695563741421,149.95319039076943568034
44.9675000000000011368684,-0.11945539867561551228281,-0.141163251405881956523913,-0.261056671899861703067813,-0.00187594314924558630032492,-0.00721984536401626755819372,-0.0322673456357608356981359,0.0124727044619208794068443,-0.00230843431236364996991806,-0.533149862416815389920544,0.845925680758264575409555,-0.0782801955895183476652477,-0.0104508174067562270570519,9.86003740345934431843489,0.00796039776677114584158002,-0.00824176745046739829547722,0.00157271576607625877299024,-1.45394112837439237750914,0.165104281944085912181563,2.02355865848323013267418,1143.63243716393844806589,1142.64024552934483835998,1139.96226897373844622052,1155.57372855241601428133,228.051199435938599435758,-85.8623874952953514139153,50.1968683487122646624812,-245.654332364479756733999,149.954148446200008493179
44.9699999999999988631316,0.0369751691013420757947472,0.0700068688730824117971707,-0.201719938478382099233954,-0.0019724391427411828991989,-0.00751570823809861489339657,-0.0337253440980528618187151,0.0124771514920850902508054,-0.00232421148248030881577897,-0.533189293900112271096248,0.845900722403630900281257,-0.0809602652059228933278945,-0.0137176319835209947761712,9.86260374478386836472055,0.00807329966340975327399043,-0.00867029540705831561209216,0.00178017058053111468934882,-1.45395862061242975293851,0.165079360032553190684723,2.02356584331685729338801,1144.20432043707023694878,1142.57222264212896334357,1139.915276349754549301,1154.92813265460176808119,176.7452566963589504212,19.8253592047775306639323,-93.1888188272728967831426,-215.350426569401747656229,149.955273934115098199982
44.9725000000000036948222,0.171124107844949691070724,0.226912149975456084449732,-0.121899841178296886035071,-0.00157281076441839404167489,-0.00624672605446113891197735,-0.0345799303661989201885696,0.0124805314613268009821256,-0.00234339149624776489286293,-0.533228950370951859660806,0.845875624593563357755954,-0.0831923134502587646732508,-0.0167886738501224486164176,9.86439111728121709177231,0.0081822045978342042293896,-0.0091045071264508493219525,0.00199222047728074471567572,-1.45397599417419676193219,0.165052739916531382435849,2.02357316096600658994475,1144.51616344742069486529,1142.73937232536877672828,1139.49632487960184334952,1154.49697641956845473032,71.3150224298350536855651,87.7255755951870526132552,-248.502766625879502271346,-137.890933787568826573988,149.956185635990635773851
44.9750000000000014210855,0.296147238618670427534596,0.33252754216971269762837,-0.0274687323118009418809748,-0.00085518816591450739182656,-0.0043023165524739455378711,-0.0346396563863400480665078,0.0124816982871563831453132,-0.00236047019373773238337666,-0.533270159800435905594895,0.845849583314562614155818,-0.0850339912975672795880655,-0.0197069246897830507858629,9.86535128221299473239014,0.00828687006323623742698459,-0.00954464129045193808431602,0.00220633240184540078965281,-1.45399137221897034599749,0.165023791013317627784929,2.02358004471421448755564,1144.56089554921959461353,1143.01085052010512299603,1138.67276251662451613811,1154.23867798566357123491,-62.6621916777936931453041,114.919847117712308204318,-442.904219950644687742169,-64.5447227412337696250688,149.957063100728447579968
44.9774999999999991473487,0.423769495862235667793527,0.386486443657945877294679,0.0795368109461783434621651,0.000286251354133123657886434,-0.00219828599630649901622292,-0.0339308049283695914444259,0.0124799112992469481836499,-0.00237183553157137337955018,-0.533312866759026227292395,0.84582265526595912241703,-0.086519923110684654465885,-0.0224913629450826102473826,9.86544661574715142648984,0.00838666082117068244217162,-0.00999152700723820834383115,0.00242041538304380412019445,-1.45400342022671336117412,0.164992290081039466587143,2.02358654145692540282653,1144.20285248903201136272,1143.31397156095681566512,1137.28180377985063387314,1154.1742528058625794074,-208.203570066946554106835,91.8513252531268591383196,-555.756364198430105716398,19.0789519572165495731042,149.958068577548857547299
44.9800000000000039790393,0.504442536761440130099743,0.376159334236627673764275,0.151164236113302458131002,0.00149537638016350991378156,-0.000929333651591929244505097,-0.0331881729145734119534872,0.0124760341173346649829012,-0.00237839283769312017161046,-0.533356217862847481470112,0.845795362863503208394889,-0.0876303288729553681024598,-0.0250890162918641704270506,9.86464988025548628058914,0.00848101487124084882363029,-0.010446205753528409881925,0.00263270939431162979277312,-1.45401348040899436320217,0.164959122957231169026571,2.02359275719248632441349,1143.51987769888432922016,1143.4701071463709922682,1135.89398069563094395562,1154.3340727454497027793,-347.936081388165177941119,32.7356911732582247509526,-565.674053021968347820803,102.172768653456415677283,149.958861316145174669145
44.9825000000000017053026,0.55173536220289265408212,0.32523033164669640227018,0.198512496577955388499248,0.0029665751082932302271078,-0.000186665794088992399724081,-0.032591617513494361424442,0.0124715357938232230400333,-0.00238046288709361413341026,-0.533398719297006107531445,0.845768624927199952345802,-0.0883658083923949122517882,-0.0274453327007449440766429,9.86294424442272976705226,0.0085698389917624982758948,-0.0109095603251805790823159,0.00284164798375205387287457,-1.45402299646604982186204,0.1649251524766688903334,2.02359858922938684600012,1142.4631720820902955893,1143.47765001682319052634,1134.45343351473934490059,1154.68511664913012282341,-466.876455811477057977754,-23.0230903119472927187417,-553.921286921516980328306,160.102892214135948734111,149.959600709960682252131
44.9849999999999994315658,0.568199477012396036990083,0.255145806744044134628524,0.225507446076172790583314,0.00456651154098839263256737,0.000215890409924977935739523,-0.0320243262423054730891891,0.0124686535099991328834346,-0.0023784556357111089931744,-0.53343942584568770914899,0.845743002914651764712062,-0.0887379802776696174904103,-0.0294946754175940267783673,9.86032319039712312758184,0.00865376755432853070337806,-0.0113820144393262032145309,0.00304572461447507897985831,-1.45403305668123250526946,0.164890882443794711820217,2.02360386535310565747636,1141.18549541982906703197,1143.35499169481136050308,1133.12437426102587778587,1155.13458720651965450088,-526.798279005382596551499,-78.0809071521217248346147,-472.139064366624040758325,180.832193166450707622062,149.960291180823674039857
44.9875000000000042632564,0.547263692777985144566344,0.176503355886746232661366,0.22959497434877673693876,0.00632416686769387247080143,0.000354827261005218139860995,-0.0313787774325249152473916,0.012468597881495704221555,-0.00237441459043948683779734,-0.533478183226922864079711,0.845718570060823515710524,-0.0887252556117248680767062,-0.031174546284708753995929,9.85679081342546759003653,0.00873423761821885517864228,-0.0118633842351792660740895,0.00324329007983982162133252,-1.45404457869267789149603,0.164856724787988323521759,2.02360871118377483313111,1139.82918068706203484908,1143.0872454810623821686,1132.09273819290501705837,1155.58927761496283892484,-553.568934535122593842971,-147.165315295903582182291,-360.169519131702486447466,168.260736418328946228939,149.960917167715422237961
44.9900000000000019895197,0.48548692165565821010631,0.0842397794789503245871387,0.211681771037372512545005,0.00836966434108769863353672,0.000375725298945516926127364,-0.0306897451449541051882175,0.0124716775278120011599681,-0.00237130819832879731826059,-0.533515777273720570583748,0.845694817337991455730162,-0.0882864707449624308566172,-0.0324316131240408589420099,9.85236189360685798988015,0.0088134200645399000950686,-0.0123528339344238791142061,0.00343240777437883596082124,-1.45405788288790582818422,0.164822755145198673876195,2.02361334372409640280921,1138.41765074715203809319,1142.61916511833146614663,1131.32352666536644392181,1155.97589088861172967881,-435.407543878714420770848,-194.047530993197199222777,-201.847544424846859101308,95.384231958674163820433,149.961587189488625426748
44.9924999999999997157829,0.414657975380141430310488,0.0131010470865901337139681,0.181384778232362459116089,0.00954280574838742810805936,0.000348113930549177202650873,-0.0302692991578509540406827,0.0124780782625312329503497,-0.002371157891696173102003,-0.533552569134950860352262,0.845671508058896126414083,-0.0874009400522938184607824,-0.033229097736361831727514,9.84706190266024883328555,0.00889401892154061991802028,-0.0128489299186953526837884,0.00361075902626472981793437,-1.4540730697177686181476,0.164789064874320989595446,2.02361816954236761745278,1137.65214296767044288572,1142.11700782609727866657,1131.08350047078170064196,1156.0661987747557759576,-175.988293393926142016426,-223.105251909167321855421,-28.4778016234927022765078,-22.1917644839979324444812,149.962073943518106489137
44.9949999999999974420462,0.341809799115254719925616,-0.0510981874466951771496248,0.139351212720703249159371,0.0100276582194807097059286,0.00031400512761051168914711,-0.0300043740921230595031233,0.0124868138487260402214041,-0.00237670671667528782267098,-0.533589153958963002821747,0.845648273189146926220872,-0.0860297412543676587315389,-0.0335473481375201387777452,9.84092733999699831315411,0.00897911458436152255802032,-0.0133496825721553333959912,0.00377553888760604697966139,-1.45409064072908389420036,0.164755685321115397101721,2.023623743375539962841,1137.53770928018320773845,1141.50363885878664405027,1131.18113765724910990684,1155.86493206619184093142,126.164906297598491846657,-293.079228301517218824301,87.0794548227886622271399,-145.938898752154187832275,149.96248307774047248131
44.9975000000000022737368,0.269700256414793282377929,-0.120403245968881272842665,0.0784084533851361620282461,0.0105858024499906680504502,0.00025188417597504282217577,-0.0298089888249256952656996,0.0124972469194465658076654,-0.00239048097364593812794165,-0.533626109106129731252111,0.845624750439724293116228,-0.0841473529475158937840362,-0.0333688800023517334603085,9.83400562323668125941367,0.00907192773918111435016431,-0.0138526375119218565779011,0.00392351419385224622904396,-1.45411116223649528045314,0.164722596082340438927716,2.02363066012669001736413,1138.28296749915875807346,1140.65161168458894280775,1131.51889774489586670825,1155.33650428099463169929,416.315221431719521660852,-325.795223086894793596002,132.18856070218467380073,-222.013227833736095817585,149.962882307618258437287
45,0.230454680612142387419183,-0.170676039486313629867098,0.0195577042265047927604993,0.0112174222243437097384922,0.000136899655163587124183378,-0.0297058103713307569693214,0.0125095891934925446814519,-0.00241261652251686378387041,-0.533663740258596530630086,0.845600742770697855199558,-0.0817826817168950392922255,-0.032693215969215122518321,9.82635497304751837077674,0.00917553761539197446084337,-0.0143550390666768445946389,0.00405114216028783918899236,-1.45413480905473457838184,0.164689874295617710853179,2.02363910729777751740244,1139.6192853873428703082,1139.87466274335133675777,1131.84208046076037135208,1154.75486592702259258658,650.384246915155358692573,-310.648969167742166064272,108.79319812366593112074,-231.640691738249785203152,149.963138314619271795891
45.0024999999999977262632,0.220402470558337865158549,-0.208674519821767601168716,-0.0478785544697572229555504,0.0114318684439191665946911,-0.000131655780595625246636587,-0.029637863120535418853807,0.0125242959146823051169717,-0.00244421040598349036121473,-0.533703350394252984401078,0.845575417550963881474502,-0.0789559454673992300310914,-0.0315118339813153305883908,9.8180443369852188340019,0.00929266744733412038137477,-0.014853987858737592239744,0.00415471643453831432357681,-1.45416106926990207348638,0.164657155713448410949695,2.02364921726666002754769,1141.53488873373157730384,1139.09836683875164453639,1132.06286373551370161294,1154.17830082230443622393,821.204289195191563521803,-296.515457847802451851749,59.0449649037207464630228,-208.116694887287792425923,149.963315873911852804667
45.0050000000000025579538,0.238573104342429759272548,-0.230422904357793195684323,-0.122153012652965478612721,0.011164872294984503134363,-0.000605610423814945185265468,-0.0296081482886041240376596,0.0125414545062659879559597,-0.00248528600431058548786423,-0.533745170152624570647504,0.845548627859384449578783,-0.0757053977001802269608532,-0.0298395006748827310016914,9.80915292743292965838009,0.00942535210990280009069053,-0.0153466848569692188714031,0.00423055211895523308740508,-1.45418951990384504036058,0.164623946416878913501236,2.02366106348649310575638,1143.72530683332092849014,1138.39208545411156592309,1132.13730528527912611025,1153.71428245258562128583,881.934727535148226706951,-250.610783004784963168277,-4.5027711969373438449793,-140.913633983901263491134,149.963430310702875658535
45.0075000000000002842171,0.287011830949696622461431,-0.223438565371925884628368,-0.201768566579602098842727,0.0109674014847826913066076,-0.00140066617557941175062353,-0.0296798580292927174917317,0.0125616039670423187968318,-0.00253300131509847465879903,-0.533788133099387551716575,0.845521047435844774753377,-0.072124278078115638956902,-0.027718899546757477803105,9.79976935737246535040867,0.00957472746315997554067412,-0.0158305993425186357359546,0.00427524292464008612985049,-1.4542200905606503802403,0.164590014958560210134308,2.02367472810101656222059,1145.94456237140957455267,1137.84531292372707866889,1132.04034987952900337405,1153.4737326523845695192,905.360707151117253488337,-194.367609766681539440469,-63.9111791959875645829925,-48.7151855268154747591325,149.963472255170955804715
45.0099999999999980104803,0.359184013420573211572417,-0.172429271976886400175033,-0.294195821104175414539839,0.0115800012997732629932424,-0.0027062564605532281325484,-0.0300135571431520628560286,0.0125838853686228505091016,-0.00258388841104896429395898,-0.533830419951112689069816,0.845493848900184863381924,-0.0683026118956289868267007,-0.0252269836660414872864244,9.78999081508264445972145,0.0097409483144768483492415,-0.0163036127818044669635089,0.00428584537422610663270905,-1.45425280163873504868377,0.16455512241898431757825,2.02369008759730606428207,1148.25211036907239758875,1137.42024740527904214105,1131.81774938929947893484,1153.47070652495176545926,739.171527883931275937357,-120.507213391540261682167,-80.9611076860205258753922,37.0911115503796580128437,149.963444562456601261147
45.0125000000000028421709,0.408063532807065809659974,-0.0936496437371408391170391,-0.35727309962900238859973,0.0127827267085232568893938,-0.00389896787762123537765535,-0.0306250173162463945608636,0.0126072292795811422699837,-0.00263401198465768081671823,-0.533870113191496131754832,0.845468272766899286985165,-0.0643354373275659557895878,-0.0224524927064954082922554,9.77992153860039792334646,0.00992313024497345347318955,-0.0167641548779911275790511,0.00426017549889047206224113,-1.45428725538807279704656,0.164518664738842773642702,2.02370650608349622601168,1149.64042001083112154447,1137.24277685676906912704,1131.63554434109869362146,1153.65918821013656270225,406.786088689678933860705,-49.0852883681531153570177,-55.696625466879297050582,90.6480406371420173172737,149.963360420093493985405
45.0150000000000005684342,0.418192082094799022495835,0.011266769028129978644226,-0.388311955773395056645825,0.0143499103791961749032602,-0.00462828847013057025766569,-0.0317283062342880034512049,0.0126310893821643035334068,-0.00267903385604513618808986,-0.533906705387055757761061,0.845444664078791263683854,-0.0603278391993276527638379,-0.0194818127166818538809068,9.76967109717223181064583,0.0101194039494150039848464,-0.0172113195942484101252923,0.00419704549907195384461644,-1.45432242755578067239242,0.16447995525523889659425,2.02372282861947461185537,1150.28604081252183277684,1137.17482096343815101136,1131.53926626196493998577,1153.92394672813770739594,98.3549315521926104111117,-29.3898003254793280802915,-19.0580621569725359165659,96.588760011033258479074,149.963216534868308826844
45.0174999999999982946974,0.36338859699634340483243,0.138290045652810111853626,-0.368744927636515062996381,0.0165155804420972843193915,-0.00424876829554750659601048,-0.0336624965030203268656628,0.0126540762234104639527565,-0.00271545148764265999521972,-0.533939034003908630232615,0.845423791603769458902207,-0.0563594934371754036073199,-0.0164074371083178238706068,9.75935270851552871818058,0.010326978500363995575051,-0.0176450244567408973117573,0.00409629737667924730126767,-1.45435687720658979316113,0.164438101415070564437215,2.02373754975868536121197,1150.13219466859163730987,1137.09582785514180613973,1131.54025403031391761033,1154.14213201019128973712,-201.551785303660494719225,-45.6733819584081288667221,11.5806639628258256635718,36.7672060083162435262238,149.962977592330076959115
45.020000000000003126388,0.256039945616239938974701,0.220362330965253594428077,-0.297102431117689969042317,0.0181538920607018962327661,-0.00312818897150828360495534,-0.0355945905130517145642521,0.0126742639666126699626858,-0.00274570580433474353485024,-0.533968006080125401346947,0.845405103439267002762847,-0.0524028063093693041718524,-0.01326821925163769455569,9.74908102218527794491365,0.0105425944348717885029609,-0.0180659244712880820427081,0.00395872721733331930232813,-1.45438932335806603290962,0.164392461794309108213952,2.02374996410804364188607,1149.27828188600301473343,1136.9464540536459935538,1131.59716958177909873484,1154.10778275817938265391,-459.611353206620549372019,-89.9601531965339660246173,16.8135934941260920538753,-79.6975311581310705832948,149.962724324859237867713
45.0225000000000008526513,0.0924428858581752554979261,0.25544912251457974061708,-0.173864755102332180225488,0.0191499269698753235569022,-0.00186796824357298688230877,-0.0371581413322360498696639,0.0126901711113098954186729,-0.00276859335919159982308813,-0.533996661617555101742028,0.845386703646995418814925,-0.0484915205186953607308098,-0.010131976048189841876912,9.738970576870469741948,0.0107629557668322880376044,-0.018475316745137575213942,0.00378586070611249990089386,-1.45441893105727126922488,0.164343143302606325972803,2.02375913296779597061459,1147.83413790255735875689,1136.64602708915890616481,1131.6243219977845910762,1153.74364435440043052949,-638.921429547498405554506,-146.807780733567426523223,-8.71827053998342194063298,-202.176733861190029983845,149.962415022042051759854
45.0249999999999985789145,-0.102474448732840547893197,0.243611530182315849657471,-0.0258031978855048083065782,0.0194529400417333929451669,-0.000776817507965486039184233,-0.0376373207407657145440183,0.0127017303499572069280799,-0.0027851709441573451950247,-0.534025976959923820430731,0.845367970870210538869571,-0.0446342816095805366982674,-0.00701743866450015019164965,9.72913380039543795874124,0.0109851686667923140877656,-0.0188749778918746793920924,0.0035796448736431204021291,-1.45444607254734714629762,0.164291060186182669156096,2.0237654763680961167438,1146.0836747382684279728,1136.21241514997882404714,1131.55357822907922127342,1153.09689908887435194629,-722.48252233270579836244,-196.873381403283246982028,-66.7171768582761330890207,-309.504101040170894520998,149.96205853774580418758
45.0275000000000034106051,-0.309891762534218906388617,0.174540815971165719222569,0.121357250885341869106604,0.0188473359064232348636381,3.6678835782809256780071e-06,-0.0366409002322745092072864,0.0127091259356340736258462,-0.0027969314779173102235299,-0.534055315210046122054166,0.845349298301700691204985,-0.0408334690438315189853213,-0.00393196386225380667411855,9.71967979557742900453832,0.0112072769576808482089314,-0.0192668787552193986056803,0.00334201483485725356348262,-1.4544712790294416215886,0.16423716267546098479535,2.02376954110827966815123,1144.22172529089198178553,1135.66166018214198629721,1131.29073611349303973839,1152.19612384919878422807,-781.472407744932183959463,-245.186571120722959449267,-171.631818126619208442207,-413.365374449238061060896,149.961643279388084692982
45.0300000000000011368684,-0.539252989222506640132337,0.0319526216231319007410328,0.264764660561842890551532,0.0170933382467902579560093,0.00056579511674664242307925,-0.0348306432733903395537745,0.0127147335893497189646117,-0.00280816823769577212852044,-0.534084090348046047758146,0.845331005137121449521942,-0.0370675919291495320484486,-0.000814779934136783401399384,9.71071263731210621017453,0.0114286998835134660096324,-0.0196528404610556775566899,0.00307469541149026082127449,-1.45449694989487299245923,0.164183489671538729304245,2.02377378223397386136639,1142.17631269954176786996,1134.98648229437458212487,1130.69541913844568625791,1151.03007221662710435339,-682.119428277230440471612,-224.597699914079015570678,-266.383974971419206667633,-405.49805589253583093523,149.961073466772432993821
45.0324999999999988631316,-0.693147573609542377859327,-0.128422346168525797205362,0.346776013752475631424232,0.0149467774312656287438728,0.000711483671510403439808279,-0.0335630796368736883383832,0.0127198083662510268848633,-0.00282296961563595610184008,-0.534112613804807567774446,0.845312861827430150896134,-0.0333077581158408991823805,0.00237732287790377860847713,9.70233088322241243872668,0.0116503298241372732491072,-0.0200343561509132087050666,0.00277899810414243206291296,-1.45452471191877630296574,0.164131370841756246692356,2.02378004697952107449055,1140.81112814950893152854,1134.53867168257261255349,1129.9588162386371550383,1150.1686335697379490739,-450.965352839372201287915,-120.81591870590459336654,-337.002929678474572483537,-284.238451697174355103925,149.960536217889057297725
45.0350000000000036948222,-0.793013740402010003371913,-0.318405028730235239997626,0.391603337499154047218752,0.0124859168782902058697504,0.000441586913731386340557783,-0.032813973086553163693857,0.0127245889810201056463468,-0.00284203172344977151447809,-0.534140455992601848045354,0.84529513401944600392568,-0.0295725947797414595585863,0.00563832106979102187782615,9.69462690636753521289393,0.0118741727176537442689508,-0.0204125941702226129659259,0.00245606357325237837502252,-1.45455515861858253323646,0.164081233744441001842773,2.02378857448161930676633,1139.92148593534375322633,1134.38240270084475014301,1129.01040449005245136505,1149.60887995814050555055,-279.288445671175281859178,34.0726752503822680751,-446.134706979227360079676,-153.631791107830935061429,149.959931305212791130543
45.0375000000000014210855,-0.847048897728517324878794,-0.559452337537141408674302,0.408750654603018626076505,0.00942590578272719560593007,-0.000563869922616838767544245,-0.0321881833554091487115123,0.0127287754092749658130224,-0.002863249549162984620293,-0.534167728391125584685994,0.845277763598627940311303,-0.0259243616516645208891489,0.00892673569441873593355297,9.68768585606160215206728,0.0121029449822603867720217,-0.0207884027499728313292948,0.00210729434823768045290104,-1.45458821894729961599069,0.164032842686842789126089,2.02379831038387836272818,1139.41468592115234059747,1134.70903505882461104193,1127.72814270373987710627,1149.40047461419840146846,-106.386983607905122539705,220.15260625627902868473,-473.881128472816158136993,0.156724236285441964611209,149.95912459426745044766
45.0399999999999991473487,-0.843672054079244837510032,-0.752301197009112354585625,0.392917174089612075693623,0.00707002090155440729435377,-0.00215306364712131333150058,-0.0314194342166291204487827,0.0127307927885094863268423,-0.00288231629473806186605978,-0.534194624123241701418863,0.845260668266422876548916,-0.0224522183014714549198487,0.0121591469488450815150671,9.68158468581799702690205,0.0123395602913464047523107,-0.0211623979961264724325432,0.00173468400709924719729771,-1.45462269663953036591408,0.163985170011474196138934,2.02380699525690621598528,1139.38955101730471142218,1135.48316573212514413171,1126.64099884769052550837,1149.60966357932193204761,43.0844724993001051416286,409.711753850542265809054,-412.678793187358564864553,144.943996619138914638825,149.958383607337168541562
45.0425000000000039790393,-0.805351931868253267943203,-0.912932087277289250337731,0.340836819579879879427153,0.0053412241627974425123293,-0.00465742451221661836469057,-0.0301272485802845657598681,0.0127283216213796360194443,-0.00289443757363439880050948,-0.534221010297106890796215,0.845243984483522114992127,-0.0192499525822750587600307,0.0152357889901710702451609,9.67639079518546374458765,0.0125867429260869152091162,-0.0215350011503466602647006,0.00134097005806007142994507,-1.45465659955770854061541,0.163936883702673286133944,2.02381190221642404125646,1139.63010828364895132836,1136.7575938280783702794,1125.66474873780202869966,1150.12519459729446680285,114.072267899824353776239,571.482283303911117400276,-355.402180056444251476933,236.380803155831955564281,149.957570239911206044781
45.0450000000000017053026,-0.750411624936906052063534,-1.03208909294984585436339,0.255915957197759835750617,0.00395979739730523659646533,-0.00779999783904935638928491,-0.0287021323166893431444446,0.0127203217770957745930138,-0.00290240611736921737956463,-0.534247286238023866289382,0.845227465314091652714978,-0.0163046601404252325395738,0.0181562884907790628163937,9.67215944208064470899444,0.0128469418740124931982427,-0.0219063205340758078432106,0.000929544649996059068296217,-1.45468941485699820859168,0.163887767038503523453485,2.02381289646024642436828,1139.95991235680412501097,1138.34057714864616173145,1124.8639879474073950405,1150.7915675951016964973,122.614881212096051399385,664.374429327257871591428,-265.118034628099053406913,278.874594455900364664558,149.956696525750317050552
45.0474999999999994315658,-0.684951712145970614820101,-1.0934785363980910055659,0.136337352125725619345076,0.00256209808717550039172672,-0.0111868696528027583569909,-0.0277780698263763378697,0.0127077622431667827673785,-0.00291466563349664390877858,-0.534273985255478423006537,0.845210728279994660816499,-0.013535554137550715597671,0.0210103466937496957678277,9.66893266745539392559294,0.0131223187004612384942703,-0.0222760051726277608086235,0.000504097928049660566271473,-1.45472193208247047024884,0.163838141140175863608164,2.02381121196822766350465,1140.24318268970887402247,1140.07946597471163840964,1124.33915856466273908154,1151.5195675695727004495,82.0419914692627969543537,735.912562011877525947057,-161.316108520313036933658,313.569989179062417861132,149.955750203536638309743
45.0500000000000042632564,-0.598772668740414348853562,-1.10671732946199607994231,-0.0297030991330526419891278,0.000879833016963699979934299,-0.0149173405746590107684435,-0.0275863230453856009272151,0.0126917211378788901549042,-0.00293775573039883886039547,-0.534301382279474545988762,0.845193559527105509054934,-0.0108967375169209193530584,0.0238675650095263730543493,9.66673982792627839444322,0.0134147429574833741694473,-0.0226431055387621704699797,6.81732753568727598350585e-05,-1.45475505105798053051558,0.163788217795795887354871,2.02380788033762870625765,1140.37012231415064889006,1142.02013995870743201522,1124.05740740480541717261,1152.35941754099781064724,-2.39026236404120506762183,642.808997482223617225827,-47.4340727389729366336724,296.472648116817481422913,149.954531596229287515598
45.0525000000000019895197,-0.520732752572872548135763,-1.08126869559896721106895,-0.17062720632493832972898,-0.000363738219711883404433594,-0.0176149757654974620235677,-0.0279852155502653028584792,0.0126736461364468974005737,-0.00297633990733295848707396,-0.534328437750079321411079,0.845176577983373311653281,-0.00837774499476177242351937,0.0267810988041250336300081,9.66559702996633873794963,0.013725665869962499349155,-0.0230060331091033673511781,-0.000374971523797955244138719,-1.45479118779543314943226,0.16373895024258805497297,2.02380552745681718818105,1140.23123137788866188203,1143.29351096212440097588,1124.1019882009677530732,1153.00193081015754614782,-107.73299516564087241477,399.687664851671513588371,69.2077617938313807144368,247.856226268775429844027,149.953448093423247655664
45.0549999999999997157829,-0.434361788838471929441454,-1.03904297917170707066248,-0.296142490845637595953121,-0.00134548645205284276259172,-0.0198488702887230986093847,-0.028631331900378816091024,0.0126550226228858489485596,-0.00303051454225892070298842,-0.534354105807888779544612,0.845160422343809392131675,-0.00604195667387273649406865,0.029754155954106312198526,9.66550724288927831651108,0.0140559356766869533034159,-0.0233626215854696867024742,-0.000822257998947133845676905,-1.45483171209084871655648,0.163690659339063265820258,2.02380553055692535835419,1139.83145733832293444721,1144.01857828296397201484,1124.40344621377425937681,1153.59869867234056073357,-220.747276674656632167171,174.364614361342660231458,182.418297769420320264544,261.404877002279476982949,149.952296043292506055877
45.0574999999999974420462,-0.316092553562681788381639,-0.991071197140457993413065,-0.410544100578333348572357,-0.00213108293824107192931949,-0.0221422327116844903927007,-0.0295887676197247942444513,0.0126377704331647570945574,-0.00309666222793123380868652,-0.534379502863246202970515,0.845144371259798132811625,-0.00401440013065729878194432,0.0327555005744763344521786,9.6664598243978687719391,0.0144054817220137122008028,-0.0237103440388631604707204,-0.00127035638203278110694439,-1.45487651583243637887222,0.163642770419045985308415,2.02380772854565060825394,1139.12749499451638257597,1144.16533403393032131135,1125.01407968981402518693,1154.30895519516775493685,-276.746266264030339243618,-62.2968749468918403522366,257.275462057446304697805,264.642291861492708449077,149.950837475514049401681
45.0600000000000022737368,-0.198854713549308254050274,-0.963660259102861238567073,-0.462379427850498070373675,-0.00261142802958866339022026,-0.0238578754808807247389524,-0.0306125519398836483386805,0.0126214690589293836858742,-0.0031698792050917331056259,-0.534406655795642060446937,0.845127168616686241797709,-0.00241105226801333755171086,0.0356990937924311496631802,9.66843024521064009491056,0.0147727688669987335806644,-0.0240467354364078574058272,-0.00171532848636270153670769,-1.45492439199786249837132,0.163593912604764635254639,2.02381077290478739172386,1138.44772600700207476621,1143.70709390822935347387,1125.68982352406214886287,1154.92191013164870128094,-265.965637377394500617811,-283.461832813591684043786,292.228584051677557908988,246.418924520604718964023,149.949561392272812554438
45.0625,-0.051166812911407608122083,-0.951937095208832961823475,-0.452572537937719676648385,-0.00327586857916498021964236,-0.0255476335151082339924855,-0.0320184866636352011282085,0.0126051508157213835309429,-0.00324081721885925971154974,-0.534437164161388089667071,0.845107854189982798942538,-0.00140656613907694932885661,0.0384409674089408875952145,9.67138032318021423350274,0.015154430863175496341233,-0.0243698016793192119566758,-0.00215214974413133284386612,-1.45497298140313491288111,0.163541807774068292946623,2.02381139420381561677686,1137.79766680762872965715,1142.74802486986163785332,1126.47522261007316046744,1155.54104981777140892518,-252.465224410436775315247,-503.904830998093416383199,349.981574907224057824351,253.139359363242988365528,149.948226378064674690904
45.0649999999999977262632,0.171402480265998663488958,-0.946062727704008343820874,-0.353653087221814044216472,-0.00433831675584917496324433,-0.0278022729758388986720519,-0.0341974693137235830064924,0.0125876556423754563246442,-0.00329823488889427213904826,-0.53447248622639387249933,0.845085566533981369374828,-0.00119404252943652172680444,0.0408121978846224392478703,9.67525783255053184461758,0.0155453412441802218957321,-0.0246782739947494708654396,-0.0025746595355868101204222,-1.45501930702362547442874,0.163483988795509155300678,2.02380511162162735061543,1137.18539988495103898458,1141.18756975324117775017,1127.43973139859667753626,1156.18760692846376514353,-181.150530863349644050686,-612.789660799767489152146,338.124505006144147500891,196.113041847220017643849,149.946561645309714094765
45.0675000000000025579538,0.392044103417420686241712,-0.933755385124558023868246,-0.195139186590813057398108,-0.00509503540080791499783386,-0.0299031234782957677786897,-0.0362073779073328189115344,0.0125675244411548436146431,-0.00333959057736069389599187,-0.534512514822270468073384,0.845060402498132079429638,-0.00180886855954399267121246,0.0427275568411251138734031,9.67999488727440748903064,0.0159389924183103610932921,-0.0249717812292520394135131,-0.00297609261653462115956859,-1.45506191684626240423484,0.163419702167500374700992,2.02379012634273536264118,1136.89191415331151802093,1139.68407656586123266607,1128.16584513510474607756,1156.52161502700801065657,-58.9663306098071444694142,-608.820087770761801948538,250.334157401365871464805,58.3540268552198355678229,149.945126585750927006302
45.0700000000000002842171,0.625575818182827703139992,-0.892332688591731981730959,0.0281963898209667968020042,-0.00482319256834772003283973,-0.0323622595306179566820859,-0.0376230675287399923822917,0.0125439692880296074090074,-0.00336655075592512658538835,-0.534555807755826561944446,0.845033277678588046200048,-0.00321078111243870006896728,0.0441565484405867098027798,9.68550979664958333614777,0.0163283622639933886921959,-0.0252507699918727637755644,-0.00335000839072288700976054,-1.45510107022247958674654,0.163349853343971368468956,2.02376743303733785950271,1136.89056823190185241401,1138.14346931438581123075,1128.6914021856041472347,1156.47937706274001357087,55.07124132259838944492,-595.659535244290623268171,162.121227733234377410554,-97.8036544768636275648532,149.943647812720570300371
45.0724999999999980104803,0.836777413459715457832999,-0.811274892749242915179764,0.278417927846918156209455,-0.00322808435190374788323342,-0.0352266637076697544661563,-0.0377023602822227077435713,0.0125174319433846714666458,-0.00338398675520236533881269,-0.534599871484948696576112,0.845005742826533623457408,-0.00530547501494320339343602,0.0451239676684627721847676,9.69170911763089648616187,0.0167068153824470981561046,-0.0255163445522162690703993,-0.00369131125661698207551797,-1.45513859758850494507953,0.163276723411241053707244,2.02374060044638337529932,1137.16727035992425953737,1136.70577888964248813863,1128.97645127377018070547,1156.03259675462413724745,182.344674369458005003253,-518.516921734643233321549,46.7055830176593431701804,-282.795975264517380765028,149.942137301462622644976
45.0750000000000028421709,0.972732233394973500040237,-0.672276754858418090776695,0.516255945667821847244738,-0.000343098362323933077453614,-0.0384068071005667713291309,-0.0359750118419693426519146,0.012488465873441044126646,-0.0034000676187984145253107,-0.53464218287045561783799,0.844979353052019210856827,-0.00793171941387820628177607,0.0456945407810760012567997,9.6984904330381791481841,0.017068773262080762231907,-0.0257700960473329111766194,-0.0039970488181969576757524,-1.45517665347405378284407,0.163202632526135371637821,2.02371434431683461241391,1137.80229160374960883928,1135.55088470571126890718,1128.92493010069256342831,1155.06539718641670333454,359.376937442719167847827,-406.789727738779390620039,-97.1655135584981906049507,-531.033820336098187908647,149.940593823320853061887
45.0775000000000005684342,0.993231644330830665268195,-0.448098741822868296136306,0.734265483188881518117341,0.00409920797740308956447208,-0.0415941912790675633049275,-0.0327855204501053681953593,0.0124568265429615462197566,-0.00341922822930822547030094,-0.534680999335651052639662,0.844955196446268597121332,-0.0109681374767333014719206,0.0458868613063295044396384,9.7057468909383217692266,0.0174100161479230838845744,-0.0260139917210186893958834,-0.00426661292419293174116302,-1.45521618384888218322715,0.163128974833763790153185,2.02369161742146896898475,1138.96415504713877453469,1134.67183025094755066675,1128.4906237059774412046,1153.37742765294228775019,481.811284835050003039214,-219.291219562928091590948,-206.727370589812124990203,-682.043286274785714340396,149.938710160843129415298
45.0799999999999982946974,0.865200199715276063727742,-0.240011112664961084872672,0.834592562645050772829336,0.00822621831856307737795841,-0.0427831677478670499570335,-0.0298591093627382647701651,0.0124219093066527484087169,-0.00344057165873148463122733,-0.534716069994005671617288,0.844933443265602268645864,-0.0143657598088412913339695,0.0456652695628604748945278,9.71337035679427529544228,0.0177276193746349515489857,-0.0262503627797284720679638,-0.00450131352625391702171331,-1.45525715865744009747118,0.163056083497702675177976,2.02367323579646463116433,1140.2113480279226678249,1134.4544286078976256249,1127.8912932477444428514,1151.65518075504587613977,532.662401309335450605431,27.9000420519280893927316,-259.921920564924050722766,-715.712281665398563745839,149.937118874086053210704
45.082500000000003126388,0.582350438763431732525078,-0.0554800553895862663678074,0.839211388638555821906095,0.0119043224765723529290362,-0.0420957503681828881791915,-0.0270640311583788747973323,0.0123818096955506367490285,-0.00346257889413058165054005,-0.534747069260008700553044,0.844914332969086023794603,-0.0180631375448325852406395,0.0449740012433048896856036,9.72125333182090578532097,0.0180195420447515283757234,-0.0264820152131020544739037,-0.00470376697416751039793059,-1.45529831103317985885326,0.16298336825655432291704,2.02365852886068697813471,1141.62746705368681432446,1134.81133046120726248773,1127.1910141031521561672,1149.79886624461346400494,623.75591836139312817977,277.927652677857338403555,-292.981243176505074643501,-802.148320590321191048133,149.935510592209169544731
45.0850000000000008526513,0.0998500144517225490803369,0.0930502258250570368769417,0.740715554406216947214148,0.0145372349114148095156063,-0.0399677559028350920522499,-0.0241254481651561117350191,0.0123355739869538336139776,-0.00348424047944277236882327,-0.534774542401750041520359,0.844897538126964220417392,-0.0219933561820956288701545,0.0437868974719991671529229,9.72929061640392589538351,0.0182844597011768902894424,-0.0267121767753205029138908,-0.00487707237348283979827546,-1.45533835177111026126795,0.162910087167722039680484,2.02364575997072515534114,1143.33012761973122906056,1135.84406687128762314387,1126.4263870318611679977,1147.64443915209221813711,595.511660981124350655591,457.662319857588670402038,-244.68383247926311696574,-750.7334150610865890485,149.933567039222566563694
45.0874999999999985789145,-0.371696141477936337071952,0.142318837770642331319593,0.586193209576323925880104,0.0145230812755417996312568,-0.038291542076195804467087,-0.0221614456228569484119717,0.0122837039095781540981589,-0.00350641731619510651010718,-0.534800305458272395853214,0.844881897932580394616764,-0.0260692252058414494775285,0.0421305613889513402847697,9.73738076656648843254516,0.0185217076821526036023435,-0.0269443461787953475461421,-0.0050242619260294175617676,-1.45537727553177576034216,0.162836484530249986368844,2.02363443070009862978509,1144.60502535858972805727,1137.09964206049312451796,1125.96759494075695329229,1146.04519916931144507544,451.499297114965941091214,546.504777658485750180262,-131.982260219525187494582,-579.863815623297227830335,149.931940327123413680965
45.0900000000000034106051,-0.842599874510750690426164,0.124308249905798973156124,0.380968390567751946651498,0.0118888380283881690824277,-0.0376042688512728956462539,-0.0208516506853151720179973,0.0122266483089157503016953,-0.00352945815508837927934604,-0.534825901092005895343107,0.844866427647520179533558,-0.0302090720988464414564767,0.0400348243986550361706023,9.74542806663908223185899,0.0187312180558231594629248,-0.0271821216733705087187367,-0.00514805564889691483904111,-1.45541496089084887444187,0.162762208138430009007891,2.02362333403414407229093,1145.58762410530721354007,1138.57659075958144967444,1125.76647573076320441032,1144.74512007397424895316,332.347901304286153845169,594.012959577654214626818,-38.0014140137778895223164,-466.874306444640183144656,149.93031118570428361636
45.0925000000000011368684,-1.26326338991000874933945,0.0698958421864264989320503,0.155410346722940101438226,0.00742583982490880797899813,-0.0376172428275014375520513,-0.0201740222856911684268244,0.0121647676470518044389291,-0.00355295528785413592884335,-0.534852143504081722902299,0.844850608174366413116729,-0.0343427838301612817217823,0.0375293539282827992575875,9.75334334703277505695951,0.0189135606310281111086535,-0.0274289912783687202246785,-0.00525069259819240571202092,-1.45545087253765847989939,0.16268669042580513606211,2.02361088471444361402973,1146.26676486511200891982,1140.06970685838291501568,1125.77758787068796664244,1143.71082763708704987948,197.415082228551369780689,560.001489153146394528449,44.7645198974394276092426,-354.403433606289013368951,149.928683593221336423085
45.0949999999999988631316,-1.58709781640634450816663,-0.00393335945759723526471419,-0.0671030992384863966826458,0.00186846863018964208860706,-0.0380101638780103723291859,-0.0202856768225471127686799,0.0120995834177642265505614,-0.00357737456456975327911962,-0.534879499871140917655055,0.844834119675229811008421,-0.0384002970141968311135194,0.0346807129388029405925309,9.7610439222855145402491,0.0190700875665685172510866,-0.0276881029924190315283372,-0.00533387061361341539150738,-1.45548617211861719411559,0.162611197836220522372486,2.02359770950751460816264,1146.57469951644907268928,1141.37659820534463506192,1125.99029833025019797788,1142.97310290594441539724,65.1292598789617471766178,486.509189211643672479113,120.344719053657456697692,-264.498246765789417622727,149.927062047927250887369
45.0975000000000036948222,-1.85751601996894222246226,-0.0907821601174211428864069,-0.297174845319179037339552,-0.00464779918840739839080989,-0.0384483932472611047992395,-0.021318305763559385057615,0.0120323904570730187690852,-0.00360302826179359925867773,-0.534907775088011239184027,0.844817065634321573419641,-0.0423161672131948246589062,0.0315578236728747268946549,9.768454185279990653612,0.0192029818986415856674199,-0.0279620491500717771593543,-0.00539893466721255363416354,-1.45552177321415099342516,0.162536709409911300783236,2.023584197710635912415,1146.59241116450698427798,1142.50225280444237796473,1126.37931146595656173304,1142.38833640325742635468,-31.6376364583286004972251,316.264253949950330024876,151.235413089184419277444,-167.068464032314324185791,149.925128425193889825096
45.1000000000000014210855,-2.00408141853669130583171,-0.149265934303568464924794,-0.438099568875672751300243,-0.00916965690935352129020686,-0.038520449297438454083764,-0.0228677086989444479370182,0.011963709211131986348553,-0.0036291046312050137881422,-0.534937152998523957059263,0.844799325614408291862389,-0.0460417150417072873480606,0.0282115294647806574834803,9.77550580573998928457513,0.0193152252268012913916095,-0.0282526510543431377819878,-0.00544697539794089004294708,-1.45555819947211473319726,0.162463341089828766650172,2.02357033910958472588959,1146.41651133415734875598,1142.95791947509519559389,1126.74647539569650689373,1142.13776058578241645591,-80.9983298773940987302922,71.3696436420572126735351,144.708620695059579475128,-48.2228575900064484471841,149.923530980617215391248
45.1024999999999991473487,-2.10253630257630952371528,-0.178974993190333969694805,-0.511769108026713714920675,-0.0125926242284831665929623,-0.0386430448215498156816494,-0.0248784515458952554256555,0.0118936924977232731659438,-0.00365327352540148562326516,-0.534968839737689383362351,0.844780143606313926873952,-0.049557288474626023933034,0.0246755522753596412410815,9.78213754261093804132088,0.0194104237197145652882302,-0.0285608336629329245814901,-0.00547883852901526104822727,-1.45559607828040227239796,0.162391036542945482734623,2.02355619944035725055187,1146.18741951512038212968,1142.85910102265233945218,1127.10285456943120152573,1142.14722211530761342146,-83.2620370566957461733182,-162.67286871944497761433,149.823686445248057452773,71.883685405973267279478,149.921952282397455746832
45.1050000000000039790393,-2.18730484424740367899176,-0.159906963866440599009167,-0.521966393646525084193399,-0.0167500279468085488954188,-0.0396089488779203316437538,-0.0272043253133262066811859,0.011822541925710515833825,-0.00367410384332800743142911,-0.535002748418062834545594,0.844759577898377189697499,-0.0528377993677568574826253,0.0209967518059431673682624,9.78829476037161505530548,0.0194923633326401016252483,-0.0288867271762647780108946,-0.00549513546005407204492199,-1.45563597136239941676195,0.162319550741599594179121,2.02354169311293219379877,1146.00020114887365707546,1142.144555131497554612,1127.49559382792313044774,1142.49717901281246668077,-39.926779031181958146135,-342.743926985992573008843,139.420758144953254031861,188.516719719922519971078,149.920084373494034934993
45.1075000000000017053026,-2.22362215795176121346799,-0.0835750728479141696825039,-0.476001131420634271407266,-0.0212631550915852902960967,-0.0412644417289452850039488,-0.0286933688658141568261772,0.0117508750413552413155438,-0.00369128021882676607759444,-0.535037354266512332756633,0.844738586770588217866873,-0.055853564563491650551974,0.0172418342211840130984157,9.79392933080004901569282,0.0195647139749947247822082,-0.0292297421464766289667114,-0.00549626127994635223922293,-1.45567834910888915800342,0.162248501512539028412974,2.02352635063847952068272,1145.98778561996437019843,1141.1453813877214997774,1127.79995836015632448834,1143.08980571390770819562,29.1483605239856373714247,-452.742081169574476007256,121.132943756239129129426,296.11012718409813260223,149.918553343799828780902
45.1099999999999994315658,-2.19580899435166276845166,0.0585548712799838846909672,-0.394485286702828119587139,-0.0269774095021329401999921,-0.0429204083676835643212932,-0.0296097455358210193132606,0.0116790762079767365677618,-0.00370437501781733938624463,-0.535071540800716061170306,0.844717873868873425635684,-0.0585838494837717660423948,0.0134722445415240144050983,9.79899993696598237136186,0.0196308928201103689847873,-0.0295886192018901504618977,-0.00548252454568026043046913,-1.4557235163187978166377,0.162177507996698389014512,2.02350981301062082806652,1146.14594295149345271057,1139.88084472565174110059,1128.10125854670377520961,1143.97772964873161072319,84.8248175887895570213004,-525.184214737969000452722,123.286213424017347506378,393.061348873678866766568,149.917052846725226800118
45.1125000000000042632564,-2.09043230954544689836894,0.238851183792835181085579,-0.300502064374410904346036,-0.0333211861952882951176669,-0.0435843707813726929933829,-0.0301265376298886049244441,0.0116077368992631504984736,-0.00371390224449035964357502,-0.53510506711738958784963,0.844697581435187250242791,-0.0610036483390499345569324,0.00976098935153897617755803,9.80347210048278938643307,0.0196938575666001508546188,-0.0299616331502982023715642,-0.0054542631446656249585847,-1.45577117658423960122605,0.162106168154843799378284,2.02349217934394243201268,1146.41190970790853498329,1138.51946031403031156515,1128.41638942727672656474,1145.05511245827710808953,113.237821827702916266389,-541.321457643558005656814,131.744816871265271629454,452.963023312891152727389,149.915580462486474289108
45.1150000000000019895197,-1.87443927062409643191643,0.425582735780494880728497,-0.208654693799367296769276,-0.0397581648926648156816555,-0.042484521165906286022107,-0.0303093160212968455724525,0.0115387765779025649320877,-0.0037199602771826310344816,-0.53513801005496297591435,0.844677633720001486139495,-0.0631172210147636914001623,0.00619565758089855866952433,9.80731845731907370122826,0.0197559147263938611471801,-0.0303468527293264678235118,-0.00541193217757172679444055,-1.45582060548809066879983,0.162034217276480346781042,2.02347347911189023861311,1146.71213206063225698017,1137.17423743743256636662,1128.75998263106043850712,1146.24254476529722523992,105.008367720215588292376,-561.717946721329781212262,157.346467230224646982606,509.825533030207054707716,149.914144935120958734842
45.1174999999999997157829,-1.49461275818656336156209,0.600702353607538097612917,-0.115585751404719994095416,-0.0464355047438976820117773,-0.0394437453338323321117009,-0.0303186077526661490466608,0.0114724277235682230180469,-0.00372331661492444248098832,-0.535171481187568853776781,0.844657319460610733763417,-0.0649074688919037134926526,0.00283882158772748305342049,9.81051968422163511718281,0.0198186483104673544231034,-0.0307422721828002655508616,-0.00535649264169797863222033,-1.45587105108764669481047,0.161961195403844349094413,2.02345398822072386479931,1146.93695154650913536898,1135.71087058042621720233,1129.20312176342713428312,1147.60424012342582500423,31.4634765177119923862392,-498.436663094342691238126,164.546823479090136288505,462.232902046627941672341,149.912468146751137965111
45.1199999999999974420462,-1.10590208277027657324254,0.676062464736546964161334,-0.0573548674009852002542154,-0.050461734203652831853848,-0.0363013052448014836293133,-0.0302463996112126674853382,0.0114079759283910939227091,-0.00372529904669610537407132,-0.535205525513642421664429,0.844636613621803977736135,-0.0663445014809796729249314,-0.000261723594435950279724068,9.81306497615086925634387,0.0198827812996981191651091,-0.0311460218400872075605879,-0.00528951266608726489160119,-1.45592184295254201131797,0.161886663608786424140007,2.02343412918304377257073,1146.86944944322067385656,1134.68205412196311954176,1129.58271674845514098706,1148.55370927552826287865,-108.504940918272922090182,-362.95271757362189646301,147.22246002417449517452,321.335901054743999338825,149.911110970445378143268
45.1225000000000022737368,-0.696229897801994401795866,0.667490453428587038331443,-0.0195864870856965293810514,-0.0525447716099000858291923,-0.0335494532626968780530952,-0.0301618122846933414682447,0.0113445983986187413222746,-0.00372748548602282485028847,-0.535239602253549495713969,0.844615862773054226764202,-0.0673984501388535384158729,-0.0030628620697718267340548,9.81495257222212558190222,0.0199483246800990499103534,-0.0315563850147873373175322,-0.00521321355882055879893411,-1.45597265764882055627538,0.161810322813657869733817,2.02341438224052350136617,1146.39442684191749322054,1133.89610699255717918277,1129.93923406354838334664,1149.21091962870036695676,-317.529703383362516433408,-285.423894373561267912009,140.305595386254083223321,221.870325027816932106361,149.909797298030298406957
