t,ang acc x,ang acc y,ang acc z,ang vel x,ang vel y,ang vel z,quat x,quat y,quat z,quat w,acc x,acc y,acc z,vel x,vel y,vel z,pos x,pos y,pos z,mot 1,mot 2,mot 3,mot 4,dmot 1,dmot 2,dmot 3,dmot 4,vbat
46.375,-0.103838635051955660570933,-0.0399891128009585705704865,-0.0668019590062031709543078,0.00183019498400228681871116,0.0138800967149504007186467,-0.0201541809289605133859169,0.00629868853825621063946549,-0.00561510862727321400506009,0.0654329892184430800261552,0.997821186909829460631727,0.0317902595375442464931126,-0.0118159066271149026938758,9.83540597158479990014257,-0.00675198131350605249695329,0.00924979381348157818354405,0.00725910513305907771630654,8.42666106413787474593846,4.97510576753258249027567,2.08649576870981023901663,1124.55624716062175139086,1135.61922372033836836636,1138.23511697900221406599,1138.02643372234592789027,-55.3635090138008010285375,190.326746943028695113753,-343.623820336637095351762,-254.01119839503189723473,155.782847710902643711961
46.3774999999999977262632,-0.0833428249858653852344403,-0.43055694004799727192534,-0.110542589572242028195248,0.00153523678732046635342368,0.0134229221888813015500785,-0.0204852057887090523158324,0.00632655691683151576165667,-0.00557261684003863833059,0.06538181257644623545211,0.997824592459441883640636,0.0309309851055938646313681,-0.0116363952268793285904636,9.83315331214254584324408,-0.00689902073239916351771184,0.00905184598070868894070795,0.00731411295215223227622614,8.42663826327133413940373,4.97512976383199578833683,2.08651595343052509434756,1124.53227953189571053372,1136.38533273086568442523,1137.56758438281303824624,1137.41212082366587310389,51.359687894338193814292,451.164255288764479701058,-193.789975905147912271786,-237.861013339003164901442,155.784819740365804818794
46.3800000000000025579538,-0.00309495682495556506674816,-0.859711533694171192721001,-0.153837222071812884660602,0.00102701867146560554128198,0.0097162026640116617992593,-0.0210391864890733561177516,0.00635349792294644718365637,-0.00552380787259098334635032,0.0653292154297114013861147,0.997828125918443942232727,0.0299685471733735601940207,-0.0113204537254670001278356,9.8308940403123372675509,-0.00703930485767232955868211,0.0088522768927220534668221,0.00736006384181700935159798,8.42661371567236194835004,4.9751535382027682885564,2.08653626633539523993477,1124.81304560009357373929,1137.87504499678334468626,1137.26616709947597883001,1136.83712865565030369908,154.349146219386227585346,617.697265513245383772301,-27.5537593440135424316395,-174.556679827766686230461,155.787214395198503780193
46.3825000000000002842171,0.116312753650729669430142,-1.12606028448302875055731,-0.178837288984738135289021,0.000417061906005449303802557,0.00508439657742292255154792,-0.0215497820271445261752774,0.0063800705700626852631685,-0.00547147370342965146811087,0.0652755824754813057664293,0.997831744344978788241463,0.0289494517175864461699941,-0.0108763173002245916443087,9.82863782892506421262624,-0.00717233129590168824035734,0.00865196016697423152252977,0.00739766054943885587036334,8.42658728611079155257357,4.97517589486167022272411,2.08655658379524533430072,1125.30402526299303644919,1139.47381905843349159113,1137.42981558609290004824,1136.53933742452659316768,238.053406322013017870631,674.513922461232596106129,141.801352817212148238468,-83.2105206804346408944184,155.789232610661201761104
46.3849999999999980104803,0.288793419618476487897851,-1.26052873350303284993856,-0.190421724607956227570682,-0.000463746609276882758646221,0.000228004973439381152661154,-0.0219425721113813212981292,0.00640704356782250024349157,-0.00542410081614157820600886,0.0652216072774155219970993,0.997835351594357988780359,0.0280344870275130060577329,-0.0103191578654560703331988,9.82639180247941901313879,-0.00729820546928750153725662,0.00845241778562792062112763,0.0074279732120069849252153,8.42655891922658462078743,4.97519586875908537138002,2.08657594139426239010504,1126.00331263170255624573,1141.24761460908644039591,1137.97517386356139468262,1136.42107605224850885861,327.258662618638425101381,762.24382754137081974477,305.701602840534235383529,-27.7019010575572046661819,155.791273195956392783046
46.3875000000000028421709,0.533194984751416689583436,-1.27138433801749561880001,-0.187277619728246302877039,-0.000882939209764703231315963,-0.00489213140477804449973709,-0.0223748287676331578111011,0.00643469565456500098427073,-0.0053912311750945558427861,0.0651711973394517585234098,0.997838639294721718719927,0.0274077960082152079224205,-0.00967872661761349367681717,9.82416078957853677877665,-0.00741792791445368936142923,0.00825568412103668686219393,0.00745228848755057158431692,8.42652990323100148373214,4.97521287163840675304982,2.08659345594313982985568,1126.94031857608706559404,1143.28503819614229541912,1138.95832360029635310639,1136.40082791923873628548,332.519030689684711887821,684.028236747976961851236,392.053405428468522586627,-5.05555847211977038568875,155.79374643354614704549
46.3900000000000005684342,0.731345395703796974373745,-1.17915412899928395695781,-0.168264802234421778637241,0.000612398918470853409652677,-0.00825034444974347483392485,-0.0229201418692031727575298,0.00646128674177736273681605,-0.00538193072563428707988376,0.0651265176964693631722625,0.997841429663384404946669,0.0272459908928157600038755,-0.00902707683176528358215407,9.82194743369428202584004,-0.00753368743545889014978645,0.00806391154553878081179263,0.00747189753431355685453497,8.42650207859918864983229,4.97522714610682204039449,2.08660923549334986759618,1127.66590778515183046693,1144.6677557928280748456,1139.93544089070474001346,1136.3957982598878970748,246.220941856923872137486,434.548971914668584304309,389.775746470276999389171,-19.2862234948909510023896,155.795826976423740006794
46.3924999999999982946974,0.868950597246468614542891,-1.02432146298263404560203,-0.129806815136243619557277,0.00444998719547609611346672,-0.0107818516686286267058925,-0.0236560450899596722007523,0.00648777166327957604402554,-0.0054011693831661974907199,0.065087348784425222425476,0.997843705417648552113974,0.0276539740450723776910014,-0.00838095440257710655451717,9.81975198202051835494331,-0.00764887097591671408225444,0.00787908043410008411544521,0.00748771299057113173119893,8.42647800615365483167807,4.97524005257523693757093,2.08662502441402564201667,1128.17142328537056528148,1145.45778305571366217919,1140.90720233264596572553,1136.3043968017643692292,146.875566005171435790544,189.61477896854680125216,360.517144315960820222244,-59.6628677668981595161313,155.797926687278760482513
46.395000000000003126388,0.926136944449633570108915,-0.851817567682993104227762,-0.0763520673961797652351535,0.00907564093772572806628762,-0.0124461758636243563502788,-0.0242761698144958078249278,0.00651610648961226546910241,-0.00544395926851703147730799,0.0650540661382505158716327,0.997845455368580713795268,0.0285481813018232562229048,-0.00772669506591937282902194,9.81757311690448730701064,-0.00776773271431270909137545,0.00770274804852337513505489,0.00750007020446530163482191,8.42645826111645668277106,4.97525315419271851880012,2.08664200080851935936721,1128.40028561517806338088,1145.61582968767129386833,1141.73802661228546639904,1136.09748392105325365264,13.4588308303522623532444,-99.7463931430446706372095,267.183469108658471213857,-111.635606707693298744744,155.800041499836737557416
46.3975000000000008526513,0.882638171035876162306977,-0.693970054163125960045022,-0.0116967790128054242859701,0.0128943066942820098313982,-0.0128965961206607797329138,-0.0243859403213873733584638,0.00654447333699247416061162,-0.00550180153161516395654562,0.0650279760779119697655659,0.99784665177109121980692,0.0297766475977936755092923,-0.00712094312655518063559512,9.81540808089481231490936,-0.00789468241616149944694936,0.00753586879795190272418592,0.00750896289113708263057712,8.42644209310932978951314,4.97526665966463976786827,2.08666075479851809149068,1128.23871743952236101904,1144.9590510899981836701,1142.24311967818994162371,1135.74621876822561716835,-159.138928589308420669113,-456.359057634614487142244,114.64645478273691026061,-179.915446503291519775303,155.802173574129625421847
46.3999999999999985789145,0.748640826861978192496849,-0.547677516179376544513957,0.0666644118108193350913382,0.0154762120252451146340533,-0.0128382468583583073812315,-0.024059442643046519139105,0.00656999410196514293386327,-0.00556680055262006798222352,0.0650135185552445649115327,0.997847067351944505553263,0.0312021072399954087217555,-0.00664136276682152082440069,9.81325229221303274584898,-0.00803353925933098129974486,0.00737888439328806666067662,0.00751427199714519138823432,8.42642896578282218911227,4.97528031872465259510818,2.08668138212330589453813,1127.60459097223224489426,1143.33403439950029678585,1142.31125888619862962514,1135.19790668853761417267,-292.824959750337541208864,-697.856216812676848348929,-78.8711340070727970896769,-213.304085486588547837528,155.804750796872667706339
46.4025000000000034106051,0.607080612799121066558428,-0.460195665965286826448732,0.125168822624961567635538,0.0159847917704317478426734,-0.0132595046654860691109912,-0.0237188053635548345976503,0.00659233681281185326938932,-0.00563313879274809307245997,0.0650125810537454523752032,0.997846613809181381959945,0.0327339401259278961475729,-0.00631646930356315194909911,9.81109906232170203566056,-0.00818702086541188596424679,0.00723172517589697628342948,0.00751600294814568688911427,8.42641816489785178134753,4.97529373755518644628637,2.08670328298283314083506,1126.77459264076992440096,1141.46977000593301454501,1141.84876400815437591518,1134.67969834079212887445,-368.977194148367232173769,-791.27942682676336971781,-294.751050686940459399921,-209.831910098666384101307,155.806913223188644224138
46.4050000000000011368684,0.472115319097033081519044,-0.3871782556817831566498,0.170562120381183679462822,0.015472750872901737395626,-0.0146080792107476827024204,-0.0233252778380189998430616,0.00661059284597308605829769,-0.00569337455729029308371114,0.0650205367139473217052981,0.997845640114764731443131,0.0342495809215634383626536,-0.0061805805360184290497827,9.80894060004110635020425,-0.00835640222598228732397985,0.00709369162952812673528236,0.00751449015126535221215098,8.42640759677587958265121,4.97530574306108874793608,2.08672524758631938723852,1125.75970500148946484842,1139.37763726536445574311,1140.83750363276317330019,1134.14874713804374550818,-453.002898256821026734542,-901.498370632090427534422,-552.910529033672787591058,-227.239808340325225799461,155.809090110858477373768
46.4074999999999988631316,0.330881724306342772656819,-0.286950976790864786813984,0.204560596399733368722096,0.0150537386355291333273065,-0.016678171445896797231434,-0.0226041265503310884188437,0.00662122762083542336364328,-0.00574226397913000629474878,0.0650321399501912755791722,0.997844541228065984306284,0.0356641962275310170360498,-0.00631727962111952590085195,9.8067681316709940375631,-0.00854113912736984351448122,0.00696342150160829224947445,0.00751057626075556528794097,8.42639547353794249318071,4.97531625766032448154874,2.08674576473389183917106,1124.50957814948787927278,1136.9622781527766619547,1139.08421136298852616164,1133.54349929909153615881,-436.909831420284035630175,-827.311505848533329299244,-705.660095913165719139215,-211.076371229256693595744,155.811718580939611911163
46.4100000000000036948222,0.218090944752013099483534,-0.180541644069328821586851,0.213320482331873145787071,0.0155750211180203570332514,-0.0181265004584736447168503,-0.021946790666584951173812,0.00662231447286593718354331,-0.00577846513108101235423053,0.0650449327525883247425043,0.99784349828293317230532,0.0369668263893274534614974,-0.00677732652904658450232489,9.80457159535701450181477,-0.00873884804374315884989421,0.00683887044427955621828108,0.00750548282123437559415491,8.42638031731069148122515,4.97532577364386785490069,2.08676354385834939009214,1123.57515584438692712865,1135.24107973611967281613,1137.30920315319553992595,1133.09336528189692216984,-323.274804746386678289127,-597.436596122101036598906,-731.299342925229780121299,-162.665341614282169757644,155.81392242436757555879
46.4125000000000014210855,0.0833595276856984174207454,-0.0508274358245869931072214,0.201378376113944823622148,0.0167226936544780449556136,-0.0188642425324181857437811,-0.0214251521221477947420908,0.00661366093336444079570091,-0.00580291432310959219564861,0.0650532785720258910355795,0.997842875967194342656796,0.0381865011528448594635421,-0.00757297699751124236966504,9.80234034279661514688087,-0.00894571485759740846199772,0.00671712939396185843010656,0.00750048188596585778398218,8.42636108553815965649392,4.97533560169762267832994,2.08677807246821300779516,1122.89320412575511909381,1133.97509517216462882061,1135.42771464836050654412,1132.7301725910197092162,-218.827267409341231996223,-444.782393178906943376205,-797.908984482544724414765,-132.659285860184041894172,155.816140540483189624865
46.4149999999999991473487,-0.128354184973015567061694,0.116954469551891815370936,0.164587993461545206708152,0.0179336824474252420902332,-0.0187844206975497675371489,-0.0208959230565103140642158,0.00660010210391521415923544,-0.00581642190389773054010059,0.0650486359078776554820678,0.997843194947084732859821,0.0393475070337046817225968,-0.00860966152927367806002579,9.80006384114264506024483,-0.00915698692132605081284158,0.00659454968572222976347375,0.00749639009870630129012126,8.42633768946434535962453,4.97534752329313789687149,2.08679052097271666710299,1122.48101950734121601272,1133.01716777022716087231,1133.3196582307864446193,1132.43006885259660521115,-76.0058970413476799876662,-269.190290369032084072387,-714.231375548886944670812,-82.8410198526429724097397,155.818819598335494447383
46.4175000000000039790393,-0.35142660973381190103737,0.252620987725038437243796,0.116450922530554820677473,0.0183607734073967035492991,-0.0179497181795273443027927,-0.0204664445657054584748469,0.00659180729160093251128849,-0.00582015753069447042133966,0.0650284734501615918622619,0.997844544681584899592508,0.0404778108406274456099183,-0.00968037256301088055998605,9.79773259604218083040905,-0.00936736093041493772526351,0.00646721071164439720302397,0.00749319840800019738857873,8.42631102648987351244614,4.97536224502772128630568,2.08680256971082700445663,1122.51317464054818628938,1132.62914372031877974223,1131.85655777061424487329,1132.31596749175628247031,87.5853890524474394396748,-97.0052069592797465702461,-498.176096789911525775096,-14.0290236112760879905181,155.821067469954414264066
46.4200000000000017053026,-0.611742689331267186503283,0.37038501620339525643999,0.052353925581832203017818,0.0179529688485306551659626,-0.016536511309330426122699,-0.0201131947432318727853051,0.00659626210179267095240485,-0.00581469719515010328991789,0.0649938456701397992976155,0.997846802466539894993502,0.0415796194771077542995386,-0.0106214681540493793843183,9.79534021526565013004983,-0.00957148264067748423544746,0.00633124378278557189275721,0.00748997101604376939315566,8.42628163475568392470905,4.97537968467512836667765,2.08681593704451895376906,1122.91894645260367724404,1132.53214173543051401793,1130.82877774683561256097,1132.35992373454018888879,213.490562983964537124848,-14.688475745938092131837,-330.695410254593923582433,43.636610344805042416283,155.823332649526548721042
46.4224999999999994315658,-0.883502124757677975708248,0.469667747029445248330148,-0.021882859971065399262713,0.0168223193185553787643016,-0.0150107986411337490650908,-0.0198762929436776224212391,0.00661483774753698905435328,-0.00579942275095647434557389,0.0649477040294358237693118,0.997849769673182618312524,0.0426134755513464941190094,-0.0113795923317350708425799,9.79288481234785912477037,-0.00976431786187866891657539,0.0061832752874577947763135,0.00748493299523774260895159,8.42624997048486790163224,4.97539886650761431496903,2.08683164513668062411966,1123.58062745546703808941,1132.55570134158915607259,1130.20308071934277904802,1132.53415054348010926333,305.93450864642176156849,12.3183631604143286608632,-153.096255646154418172955,96.4129279003334573872053,155.825613446564773312275
46.4250000000000042632564,-1.13500396882398169040584,0.551116478351264538204646,-0.101956386484334832198684,0.0146175534646935390004074,-0.0138200316503180667404571,-0.0198279432093069266085372,0.00664344324428084703065833,-0.00577114916334078940224339,0.0648944524290765711871387,0.997853204370770852094097,0.0434732379036117944082207,-0.0119982554956252138178563,9.79036989229860665773231,-0.00994144967609898212723696,0.00602086914948668158742429,0.0074756911945488826662376,8.42621597569627134305392,4.97541837363043182307365,2.08684978102011964296025,1124.44861899583656850155,1132.59373355123261717381,1130.06329646860444881895,1132.84198837404210280511,399.565721945941959347692,-2.09853538076351409102926,44.953920582588317245154,154.340186408501892856293,155.82791437281397861625
46.4275000000000019895197,-1.36167997995521972143251,0.638280273622007010558832,-0.192667181629187722613494,0.0105008313070090349150565,-0.0124050964267195199669525,-0.0200654855493197677163142,0.00667415139439990392350444,-0.00572941109824358189850368,0.0648399972955390896389716,0.997856777291047714051331,0.0440931218729866680750007,-0.0125942797589252558632111,9.78780398280424712709191,-0.0100992628815855349511121,0.00584280527408380725984394,0.00745967446987003471314814,8.42617972256684666376714,4.97543615899106494993021,2.08687002465413895535562,1125.57845606519776993082,1132.54520866468533313309,1130.42785032225583563559,1133.30585147552301350515,409.015979883278305351269,-38.7934052371645492485186,215.287380708664642270378,173.881629944729752423882,155.830699105824663774911
46.4299999999999997157829,-1.45178502732057812529831,0.707418376525965508783145,-0.252386153976752514171977,0.00614233176220225097347027,-0.0108077848167435156684357,-0.0205809887823029079301218,0.00669830754535176431385679,-0.00567734012121222635788298,0.0647893820844442219764048,0.997860200076549297421025,0.0444710043979104491240761,-0.0132998809330767547853824,9.78520032089914160167154,-0.0102352459702627213156134,0.0056490802507104852583919,0.00743446928716052363173006,8.42614192526656680115593,4.97545068664095335719821,2.08689156193660707572235,1126.49369889525110011164,1132.39976652504697085533,1131.13973337214679304452,1133.71139652376496087527,343.666123228780350018496,-73.9462860296261652592875,356.193695632015248975222,150.628401049016815704817,155.833038501346237580947
46.4324999999999974420462,-1.40839648551895346706431,0.777105603966647184854821,-0.280686094793659857149493,0.00147334071682198031183475,-0.00902672570202908350345261,-0.0214983497434347997634418,0.00671141203030799736450884,-0.00562018350509744819137881,0.0647444586968008439775701,0.997863352203221642966469,0.0446483423542719803922552,-0.0141672646867450832686153,9.78257633567826445641913,-0.0103482965054519059078242,0.00544067748540955683361764,0.00739801280536262796660996,8.42610389665021486393925,4.97546184956288861656049,2.08691339516981733126499,1127.29678668134010877111,1132.17547723453753860667,1132.20881880041429212724,1134.05899348076741262048,317.877929801599009351776,-98.7419635519422200786721,528.031890026025394035969,123.710606553486655911911,155.835394932106964915874
46.4350000000000022737368,-1.18996663222241738644414,0.866077372834393455214297,-0.263900907205524892784609,-0.00395739722261306825501492,-0.00703044724123682695376969,-0.0230330748908373975081254,0.00671124127491827624641951,-0.00556240872574861617422259,0.0647048921134454335657438,0.997866245359505410483791,0.044654110869576393860747,-0.0152035769825871192040267,9.77995369192589869555832,-0.0104388908383775177307617,0.00521916885632405912892606,0.00734869147692740302957315,8.42606688633170719526788,4.97547045574694557501516,2.08693436181685942898412,1128.0830885442599083035,1131.90605670728700715699,1133.77989282227827061433,1134.32994955653271063056,256.924431530483616370475,-82.3529750780414104838201,598.27453549074880356784,67.4544753708797202307323,155.838237719252674651216
46.4375,-0.879199753665751315701016,0.945942794832227207280084,-0.203444851434838286374784,-0.00803813843801875864414352,-0.00534118749504710731840218,-0.0244664144085406549955497,0.00670037361551651701463417,-0.00550651487039721318494934,0.0646665140121997772393314,0.997869118586008241322816,0.0444878987640511397438914,-0.0163218000854224373763479,9.77735739900304601235348,-0.0105090711212075596514559,0.00498634403146788751648444,0.00728528357810946831929488,8.42603176410529997042431,4.97547754295102340194035,2.086954518734698726945,1128.58140883899318396288,1131.76371235914712087833,1135.20019147786956636992,1134.39626585762198374141,167.378956198096943808196,-21.304466170496475285745,552.886073383390680646698,-8.37680964387652871039336,155.840614715797613598625
46.4399999999999977262632,-0.471407667440015665238917,1.02681938255582672070432,-0.102202131203731172437443,-0.010930497196958618641438,-0.0035902724414913550141093,-0.0254888515260004062945587,0.00668525481215304171606073,-0.00545557947879934772295041,0.0646276319526689763117488,0.997872021106276596569273,0.0441710796904543345764438,-0.0173639510421937648398938,9.77481454313273445677623,-0.010562135485773499823936,0.00474407227562261956527179,0.00720694242211523516256078,8.42599872149544282251554,4.97548443367105885926094,2.08697448248372152690422,1128.91998332524963188916,1131.79953437643462166307,1136.54432318919270983315,1134.28806550831336608098,113.020905000654622085676,72.9586838412241860396534,525.903263683543741535686,-79.4736580545807527187208,155.842993186273133687791
46.4425000000000025579538,0.0574535155024722618555266,1.10805998449567866259713,0.0418544253436776009236198,-0.0119352001462399732317765,-0.00100118202155981034402743,-0.0256117072838127970979549,0.00667061018037288632615001,-0.00541222301285653080438198,0.0645901289098658321075064,0.997874784902073930226152,0.0437219799659323560270252,-0.0182101266804163899881708,9.77235372806301327841538,-0.0106023513874001010237613,0.00449415964369405569744931,0.00711317438464129179337414,8.42596768591002742709861,4.9754918262699803221949,2.08699461846536760134541,1129.14651336399674619315,1132.12850577835342846811,1137.82970779628863056132,1133.99889756734887669154,53.0447835177894049252245,174.900044202287631378567,384.384544451708109136234,-119.289540953907732045991,155.845839450727510211436
46.4450000000000002842171,0.466431785541683296969495,1.14306028473567278247458,0.157939653719315703517267,-0.0103450517257415216393346,0.00206325495385032428932726,-0.024758631476885104016894,0.00666155764366179944935276,-0.00537945687021763093577098,0.0645562381663500467476879,0.997877215258928917940295,0.0431772559735761340959925,-0.0187392545764493850812826,9.77000337478859393058883,-0.0106346431454176493236474,0.0042383737302043467815027,0.00700385984906156614654416,8.42593861149993195169827,4.97550004020773162238811,2.08701522120386595560149,1129.18520724283871459193,1132.67403459744650717766,1138.46624591145223348576,1133.6916178035435223137,-16.3053642616580916069324,275.663736296906506595406,133.963940802990663314631,-113.816565310311318626191,155.848197237922960312062
46.4474999999999980104803,0.771077476935817629488668,1.12066554745396906866972,0.247845049494101188347628,-0.00680133152101968993519243,0.00580286724912896026418174,-0.0234033406138636282389776,0.00665862491297558676400792,-0.00535862473588306562066741,0.0645275031800833787087868,0.997879202071438098364808,0.0425469557579742085895447,-0.0189244284123848208190033,9.7677909540781193697967,-0.0106643034497990365355724,0.00397850100482701179299694,0.00687931747278465541978187,8.42591117453650007007582,4.97550881079662676853559,2.08703609193468242466452,1129.06498654268852988025,1133.50682445983670731948,1138.49952750030297465855,1133.42981474079783765774,-74.5441612845825716249237,376.340221170665529371036,-100.641871115743370523887,-77.8005911661750673147253,155.850531839340533224458
46.4500000000000028421709,0.954209170354452407281087,1.04162334370524067850283,0.308734419389735559313692,-0.00259695769158085247932388,0.00930767611761635152434202,-0.0221017889960028364459976,0.00666118502787333473941223,-0.00534793029316513179871606,0.0645055209677119906208631,0.997880657076036348129833,0.0417909466523793959868982,-0.0187646411209803562480936,9.76574134577164443271613,-0.0106966899583083481506396,0.00371656902901824556795241,0.00674032628515428347548699,8.42588592772411892894979,4.9755172973139485392835,2.08705680682157046490488,1128.81248643641561102413,1134.55573570330079746782,1137.96303655587325920351,1133.30261484771244795411,-131.698603964037744162852,460.056986847158611908526,-354.843200736059202426986,1.19796069957312845133401,155.852841321601971458222
46.4525000000000005684342,0.980097094338290508730438,0.897943318495363684839106,0.337098971133720670678713,0.00149488899525137023879817,0.0121491343592407662760335,-0.0211309417150762381132356,0.0066687125844000268853895,-0.00534732358999733762422446,0.0644889612614118201694424,0.997881671932821290305071,0.0409159791094343278095025,-0.0182668110132851307936264,9.76387460527605277604835,-0.0107368611503353503927594,0.00345487065794241590341307,0.00658827859751810393507121,8.42586290690761252619723,4.97552448360924604031652,2.08707724146983775170838,1128.40649352286800422007,1135.80710939407367732201,1136.72531149662177085702,1133.43580454429570636421,-210.226022812239733639217,574.405276598667455800751,-688.81388728663193887769,129.841590590540221228366,155.855113982465383060116
46.4549999999999982946974,0.853314458374041517885189,0.669324728410911395926064,0.34431549178477949268995,0.00547436899362856946998912,0.0149539885997073459383833,-0.0203642092492696963335064,0.00667918074461819766957094,-0.00536097525930325554538447,0.0644785622962406046454475,0.997882192785690347314187,0.0400209995008763697033061,-0.0174804491141265713749497,9.76220444938051734595774,-0.0107891815149760983416627,0.003195986191570852116145,0.00642526092765223662273133,8.42584176377743077068772,4.97552953700619315924314,2.08709693973410326250928,1127.76135632235536832013,1137.42776208629152279173,1134.51896711944323214993,1133.95182280066455859924,-257.943863167888537191175,591.690645158511983936478,-899.350378190178275872313,242.165729846159393900962,155.85779091721076383692
46.457500000000003126388,0.653881523948485088304494,0.452672157595340962643604,0.33595261152893457490265,0.00753457118803053504246803,0.0164681701833898838649439,-0.0199403369141607812731198,0.00668921942291838579619512,-0.00539226426338087778261654,0.0644747584013492941457102,0.997882198222446392676943,0.0391985222140342620678055,-0.016488099567911723708491,9.76073775059328951897442,-0.010857118956914437249428,0.00294255151336641910045366,0.00625391399225808369138901,8.42582180515887557703536,4.97553258673253662180969,2.08711512222954276296605,1127.11677420702790186624,1138.76556261986775098194,1132.2285596056685790245,1134.64663319352712278487,-271.093651977250829077093,500.639840757474644306058,-956.654843854959722193598,308.065618130173504596314,155.859974734787641637013
46.4600000000000008526513,0.413118020412775677208117,0.238662104236190802941664,0.317344887293509625436627,0.00799144586701566739250779,0.016758506641806888287638,-0.0195427853620510488807938,0.00670062695922543204857247,-0.00543663470606505720011947,0.0644723272410003545029866,0.997882036529453730899775,0.0384021857806421118564089,-0.0152690392615313225155305,9.75947391147285614465545,-0.0109431477123712109222886,0.00269699055487696405866704,0.0060771378539719294459287,8.42580178627252784906432,4.97553397669389951829544,2.08713137412168503459498,1126.40588806246842068504,1139.93096129008017669548,1129.73569290016598642978,1135.49215089131621425622,-312.812905593648622470937,434.368176610118439384678,-1068.13042263890406502469,363.558636297387749891641,155.862104366009418754402
46.4624999999999985789145,0.135297180372976333373458,0.0154034041931861848118146,0.280482420434614243553995,0.00723335859579964709359379,0.015846105250024937471931,-0.0188777385321507035209621,0.00671715091285215396693653,-0.00548581988808980597349674,0.0644671621834365382586185,0.997881991194900619390751,0.0375226742203761953753371,-0.0137668355301201958407198,9.75840397757560218394701,-0.0110485720274230998089182,0.00246142025162166553156617,0.00589802240010388074270553,8.42578042123218118319983,4.97553448828364164313598,2.08714625871488435038259,1125.55270967906108126044,1140.93740350291636787006,1126.88790749247891653795,1136.46442637501240824349,-297.809201725324328435818,279.325156683255841016944,-964.574892161506227239443,315.598376000818916509161,155.864591734814922574515
46.4650000000000034106051,-0.0588570344314710905408994,-0.131567295180034654622503,0.23183327153048061131102,0.00628831323652164625448435,0.0145360562477250838259168,-0.0180659343598774183026201,0.00674121342563705795714046,-0.00553438416079940400521542,0.0644584444392630045994608,0.997882127856592693326832,0.0365086715523178506614954,-0.0119604070195841322155061,9.75750995193616610379195,-0.0111735359409196374075313,0.0022375654026957113654217,0.00571982782652328235195593,8.42575701895713180533676,4.97553463163727016649318,2.08716009929935220057473,1124.91684205384103734104,1141.32758707349717042234,1124.91281843935598772077,1137.07014277132111601532,-217.43889015722533031294,44.8618519289764350332916,-651.900567359173919612658,165.90661791743212916117,155.866604174250454661887
46.4675000000000011368684,-0.200524442547920095369918,-0.243474647584416892254211,0.157928734439899520758388,0.00546697706410307748131627,0.013653655316235725758478,-0.0170177639669606209360531,0.00677265602093592763294216,-0.00558117575527963122317132,0.064450736592250243428559,0.997882158154891563128785,0.0353912146480137301818303,-0.00988903658383781525298417,9.75676507608786280911772,-0.0113172263001961193734646,0.00202680912586100268543698,0.00554589579245596403511698,8.42573208309517873715322,4.97553420097826304413502,2.08717293191878727753874,1124.46551522827439839602,1141.16171276256136479788,1123.62840465568137915398,1137.29395946459999322542,-132.820151823428034276731,-202.55247273803666985259,-368.002714017682592384517,-11.9621971529449755422547,155.868550309294278122252
46.4699999999999988631316,-0.310444492727462217906975,-0.360220541202788790968725,0.040627503170605754057032,0.00443430048585891686124816,0.0136091530384073681331225,-0.0158566701601333993887355,0.00680894865919685465111,-0.00562510328069461273958751,0.0644479262241481332118553,0.997881854376127530592555,0.0341997329409173406178368,-0.00764148207657978917328734,9.75613513409039079249396,-0.0114781827515298678193956,0.00183010785268062996754279,0.00537945306189350873349309,8.4257061450760968313034,4.97553294623662267781583,2.08718428239909048471645,1124.25274129472450113099,1140.31482470980790822068,1123.0728048692692482291,1137.01033178555644553853,-12.9964531366501336862029,-405.140127626029538987495,-35.7798126108535825551371,-197.27061647789835774347,155.870805516047312266892
46.4725000000000036948222,-0.357626875401486465921863,-0.457612521528375115753562,-0.0712020447708667375552594,0.00354254641145431694790324,0.0138589899102553228832369,-0.0154429824834337592331934,0.00684414843038236211242298,-0.00566184622844103160876905,0.0644500683956831937893028,0.997881278057059839525778,0.0328947585669802089469727,-0.00537061536313492710048578,9.75558020507816614497187,-0.0116545029414645926607585,0.00164790546857345983691734,0.00522339914579462299970558,8.42567932810611885940943,4.97553028090993176846268,2.08719344076311097424536,1124.40053296259111448308,1139.13601212443018084741,1123.4495055926270197233,1136.30760638220999680925,125.229921724967027785169,-540.795800479505260227597,299.946101261031117246603,-360.738399181806983051501,155.872615978016369808756
46.4750000000000014210855,-0.368206554849561884523723,-0.556623906541873103570595,-0.176241838679518869614782,0.00277422251583892172377421,0.013435509985327671877986,-0.0159917993596498317354637,0.00687180224381648847159498,-0.00568972357522678877372879,0.0644527620608294771198388,0.997880766995230095162128,0.0314840728449543583167269,-0.00324276475755106569076602,9.75505536806940298788504,-0.0118438861525596971641106,0.00148006975937149481102606,0.00508020700967855114160709,8.42565158944615966163383,4.97552650647753225143788,2.08719949424493478318254,1124.87889090334965658258,1137.61084570740899835073,1124.57253537557517120149,1135.20663978964648777037,233.329911910808135644402,-640.699798518190391405369,535.487603285751447401708,-481.240487768565117221442,155.874353017232721185792
46.4774999999999991473487,-0.355575858859751237073255,-0.645168735544507043755402,-0.257943966159759174860966,0.00201562138178095493282194,0.0119690130535020228252918,-0.0171714692170997738907001,0.00689104845528968560502969,-0.00570890719806102335531772,0.0644492885546415206210469,0.997880759081315238390175,0.030013547280698441716007,-0.00131638726559487467815401,9.75451212488843921732951,-0.0120437313302589887875627,0.00132589971290906290420086,0.00495156685864692105297769,8.42562285090238205498281,4.97552228304790489232801,2.08720276897220102796382,1125.56718252214409403678,1135.93251313184214268404,1126.12694360905334178824,1133.90140394336935969477,297.723876237143940670649,-675.439918669844814758108,666.571710918537974066567,-531.555080205044760077726,155.876028134973665828511
46.4800000000000039790393,-0.321996805659128360055377,-0.701193451966059089208727,-0.296894576356240946779508,0.00126214382173341099248332,0.00943037121632248065417059,-0.0185640491166273700895939,0.0069028459886666636291519,-0.00571625137540060588442481,0.0644352276514274791008319,0.997881550296685015943865,0.0284606279924965489824817,0.00039257650804100374664074,9.75390165874998871231583,-0.0122512814109106728255316,0.00118415303918205242275641,0.00483791007184509232880165,8.4255926358540591536439,4.97551808321628463716024,2.08720504538594608945345,1126.36751028453613798774,1134.23364611405804680544,1127.90539393016956637439,1132.5488643886199042754,332.319807698570969023422,-714.953049720768717634201,754.909639761195080609468,-553.762121064336042763898,155.877627818250232394348
46.4825000000000017053026,-0.264980602971941037182546,-0.715579123630943669809312,-0.289038694883840874272352,0.000544200294851411407737185,0.00625494838140093316336543,-0.0200695775159182854263662,0.00690807021299060658447999,-0.00571009597363247335677361,0.0644111184289991312024171,0.997883108440513422188189,0.0268248458532864171577348,0.0018691260663103378969474,9.75317704227923165660741,-0.0124637034411265411326664,0.00105314686634290239491962,0.00473829884615519902196779,8.42556031417701944974397,4.97551478370813882179391,2.08720777340740593075452,1127.22878156063779897522,1132.35774788323647044308,1129.90149180786124816223,1131.13259333804626294295,266.171609093422546266083,-640.273985954618410687544,658.286296972990612630383,-453.408957268996744005563,155.879459838851488484579
46.4849999999999994315658,-0.207827359169773601133002,-0.685646503769102966252547,-0.24217850162589313334216,0.000136159322960484509149395,0.00414652281807860543377808,-0.0210415232258891783667654,0.00691008792880873357056259,-0.00569348408163954794458661,0.0643809344182397907951909,0.997885135063066086580363,0.025193480703263718828433,0.00314661579252751427704382,9.75229514712516909469286,-0.0126782409206107320870371,0.000930903440178898933417273,0.00465050882846730455344453,8.42552670655586233294798,4.97551215084384779174798,2.08721231727539402456273,1127.69836833000204023847,1131.03227618428786627192,1131.1968254150315260631,1130.28181960227698255039,107.106073251534098744742,-468.356321199495653218037,399.722212528081570326322,-249.186132040185697178458,155.880913521116696074387
46.4875000000000042632564,-0.143511260513265126448346,-0.626399456139711596769359,-0.166960259909236768960383,-0.000114627122257976216037484,0.00262154785273120563907079,-0.0215728582390171952365421,0.00691264260430364107373746,-0.00567068098369604822045487,0.0643487690449617566468277,0.997887315335128421978084,0.0236712177282107048836846,0.00427096661559768497884448,9.75121962046679158220286,-0.0128924085062165037773863,0.000815241867222549925799113,0.00457116167653221633360161,8.42549235259670048492353,4.97550964897754344207215,2.08721948122453682117339,1127.76431192689574345422,1130.01596627723779420194,1131.90010287050267834275,1129.88666267784469710023,-75.2228787746459488516848,-378.657506676051525573712,154.882678249271407366905,-64.5490656860271769801329,155.88229131244511904697
46.4900000000000019895197,-0.0579020461881204762111253,-0.542169386646409567909188,-0.0635016690984481491089042,-0.000309356821020096849246539,0.00126310398837317216375054,-0.0216363857096551412406704,0.00691777500573008321399504,-0.00564478497110535402947473,0.0643172768298238411999179,0.997889446774850363830467,0.0223313841221585603069588,0.00526388888018096412491076,9.74992333639402630751647,-0.0131040918118783839690922,0.000703851272113403120256336,0.00449602608593244884582774,8.42545701528403156999047,4.97550664910322559819633,2.08722904151380417303585,1127.32225393612861807924,1129.13898865090664003219,1131.97123880627827929857,1129.95907427384668153536,-238.891644931108118043994,-275.913790634263875745091,-93.4562723425128325516198,106.038425945967929919789,155.883856377563091655247
46.4924999999999997157829,0.0222957871770934346056237,-0.474129375875375735915895,0.0207034951907196194953453,-0.000425201887572569908312764,0.000498261497394458905026149,-0.0213443688782751217480893,0.00692513281854799378489673,-0.00561890759157882523078253,0.0642866984955126202772036,0.997891500002798026436324,0.0212386642696506290628466,0.00610836730711095121648668,9.74838979932373383974209,-0.0133115976112052180474477,0.000594300892903288605247092,0.00442045364407146063046028,8.4254201529983845375682,4.97550290347805379553847,2.08724061059767906911588,1126.56985370224128928385,1128.63639732406772964168,1131.4328215087905391556,1130.41685480757405457553,-350.29224878831001888102,-170.909084301020726570641,-305.38970465423096811719,238.384602654913010155724,155.885086338423633378625
46.4949999999999974420462,0.113997659961464076205928,-0.417877543990575084364991,0.0921980941101549211769139,-0.000503227225495080261741254,-2.23661982236913019759551e-05,-0.0209433041258660773697997,0.00693323842652832696836773,-0.00559588969434819671899817,0.0642580166930122598234476,0.997893408006964466316902,0.0204459745931145735198253,0.00677389893115164232195724,9.74661380639854790786103,-0.0135137679440018795840039,0.00048412193057578348622319,0.0043397448724940591857635,8.42538154331180244582811,4.97549873164438949402211,2.08725393912243539773499,1125.57079269218866102165,1128.28444322940231359098,1130.4442902830085131427,1131.15099728712016258214,-409.984848838639095447434,-125.334739779309074947378,-432.575478236737296811043,313.920691758742975707719,155.886238046093211551124
46.4975000000000022737368,0.215143253266035117121646,-0.372355549108973005179024,0.149125906941560609775266,-0.000515996818489735417471997,-0.000502300357516031223230335,-0.0205514337437680133513496,0.0069431921368104882255623,-0.00558113879563097801256299,0.0642316108807962776738876,0.997895110731259804559556,0.0200552285405216253189042,0.00728478586968596408812715,9.74460084958423955470153,-0.0137101140693510377410735,0.000370799430906614642042274,0.00424954867803600463971314,8.42534229057711492316685,4.97549475440411015370046,2.087268058330510545062,1124.51992945804704504553,1128.00972362517086367006,1129.26994411760574621439,1131.98645826636857236736,-396.659041324780332615774,-93.2293508330054123689479,-463.704721184275683754095,328.954184450926675253868,155.887323719099185836967
46.5,0.322650935741946365276078,-0.33335006194812427660068,0.186414426042422864959747,-0.000348573669998521315158135,-0.00112638533013155591952503,-0.0201747230202033375756621,0.00695649361550371332640896,-0.00557868442828625670654175,0.0642063289358026090258846,0.997896652428590158478983,0.0201387939350893101220219,0.00768214908077601010827351,9.74236725319252272470294,-0.0139009364751058722003974,0.000251781172916079099867448,0.00414598315796448589620748,8.42530394286687212002107,4.97549178471501285514478,2.08728217054832265731079,1123.58749748556374470354,1127.81829647523704807099,1128.125766677085948686,1132.79576820937563752523,-348.925849081569083409704,-54.7419704723822562186797,-435.942475068746659871977,321.650320952559582110553,155.888328053977829767973
46.5024999999999977262632,0.443821984725101814639459,-0.279527225764090836435116,0.206376448279988994327638,0.000266120441005975125886573,-0.00220066850280847174994858,-0.0196628161273596571700928,0.00697772159675975715831253,-0.00558952434519111550359494,0.0641826492609192389426909,0.997897967128245744206083,0.0207116086045382834235351,0.00807733765312176887896101,9.7399388730383655854439,-0.0140872205629868560428086,0.000124718511921618140743037,0.00402570480055395706758814,8.4252679612569458811322,4.97549032982435157634882,2.08729680821223384512564,1122.77530021264078641252,1127.73601377280920132762,1127.09023174226399532927,1133.59470987112990769674,-235.901200916184563993738,7.70885394799339707105901,-290.024202026085617944773,253.884494181563411530078,155.88943660652037692671
46.5050000000000025579538,0.520875392703901596291871,-0.217877779713370967051844,0.200291546668807024511594,0.00130404005142642411690934,-0.00334424270286129638254935,-0.0191139279720668360529334,0.0070054151723418760927542,-0.00560909762921429303622611,0.0641634333857564881364866,0.997898905946254410892493,0.0216714489885114040823577,0.00847664902175104817416695,9.73735105037302872688088,-0.0142703225747222890718025,-1.23824395240590051973061e-05,0.00388591722162969898518581,8.42523481618463421227716,4.97549033280436514559142,2.0873128930614637255303,1122.40799148098221849068,1127.85684074497703477391,1126.67564566695477878966,1134.06519068028410401894,-87.9292994304710617825549,104.289103113470758898984,-51.8989130838879688667475,148.240487602485359275306,155.890277800437360156138
46.5075000000000002842171,0.548122650498445773692424,-0.131685343222735035118021,0.168278059299049098651579,0.00306214903827208831041395,-0.00442516828375029858816392,-0.0183959696106662726200476,0.00703597484507180459534226,-0.00562907738268664248337814,0.0641469599819430164044931,0.997899648870087196961265,0.0228392355653634117340633,0.00885343577185461472200956,9.73464607800957359984295,-0.0144514829615342323132499,-0.000161106181338115990063151,0.00372459888676901496040728,8.42520279588583598240348,4.97549093238484552159662,2.08733015803509758256951,1122.33565371548820621683,1128.25745928837682185986,1126.83073717684442272002,1134.33591230914271363872,11.291887763183050097382,254.284488756915635576661,196.900916598175996341524,86.5408386932236197708335,155.891031061109458732972
46.5099999999999980104803,0.498371084018220278366584,-0.00426992382455453761691544,0.100807737768218705354251,0.00595687515646411373110292,-0.00488310045823940955256326,-0.0174479706597420007596622,0.0070667010408271115420864,-0.00564548403630628966437532,0.064133169923627497688301,0.997900238209065593153468,0.024120769974352519043892,0.009195561794988399428874,9.73186991230644515837866,-0.0146313825733883715735084,-0.000322261801357210633973971,0.00354096682631018996878502,8.4251703652056040283469,4.97549121946582584286034,2.08734764651818549552331,1122.46445091979808239557,1129.12826318876045661455,1127.66015024994476334541,1134.49789487374982854817,58.0612628805896235917317,386.403284611226467859524,392.00561092232373994193,46.870845800798299762846,155.891831341369339725134
46.5125000000000028421709,0.381574676285357405891574,0.112408225816450491052478,0.0263050887673459965476752,0.00861386626224041641874951,-0.00438186408727706411952996,-0.0168543270834799231716605,0.0070955827159483470661927,-0.00565581273687498688879094,0.0641230114954040586461304,0.997900639834417679807643,0.0254505554246245747906929,0.00950306006650906975874449,9.72907009448487869462951,-0.0148100241843554282505924,-0.000495821377785480221431214,0.00333555610968766340362901,8.42513687860780002836236,4.9754907884621815128412,2.0873639185357619751926,1122.62596002989130283822,1130.18947571143394270621,1128.79076523145704413764,1134.57026653814682504162,47.7148875401991645617272,483.855750577484116092819,504.646345637107629045204,34.0034271882185521462816,155.892410831630826351102
46.5150000000000005684342,0.20158988622735660167784,0.23005199568795842157698,-0.0526452952280604818957599,0.0104271322627180022812876,-0.0035769748446384010132082,-0.0169492512230775341230959,0.00712017083357641914626024,-0.00565950359772743154251895,0.0641150497652562822992195,0.997900965950451968033974,0.026799320050095738060536,0.00976377034643216568099433,9.7262935333244939783981,-0.0149867688082296300622342,-0.000681024915967183628977277,0.00311021980301509669633586,8.42510185503728514788691,4.975489287739431887303,2.08737721403995557523103,1122.7030253574992002541,1131.54754194164911496046,1130.18338197813159240468,1134.66791200969100827933,-2.8493948832445763486021,634.497976139013644569786,617.252142735712595822406,65.1647950743746804391776,155.892898800247536428287
46.5174999999999982946974,-0.0416950158142678287132021,0.36869050960544791362139,-0.131820150343961273176063,0.0105669033996251843926517,-0.00276389602143991674337853,-0.0177543022171149818266844,0.00713576213457926475380866,-0.00565439471042445719606295,0.0641058346191124145407869,0.997901483868692151801838,0.028102698696065544353706,0.00992079056696816563576391,9.7235849817178898746306,-0.0151605024279269917641955,-0.000876427325754771833696277,0.00286778788037647929670682,8.42506516028523222416879,4.97548655332176803511857,2.08738717339717583243441,1122.611713055475092915,1133.36196559212612555712,1131.87702594513280018873,1134.89609051351840207644,-60.8410895353388454509513,660.305483083883359540778,583.550932390946172745316,107.961269285296353359627,155.893378212806936744528
46.520000000000003126388,-0.22647865533926667125364,0.481867259398725433783284,-0.173368654296734536757185,0.00913722666811974358613835,-0.00218601812401461549281723,-0.0185770263758447129465168,0.00714094519454686743609173,-0.00563922110338070919216547,0.0640936747735508099976798,0.997902319492130707168087,0.0293166075519666509408001,0.00997547757897276898830796,9.72098425226741014171239,-0.0153298234908715233504317,-0.00107983262233629162887838,0.00261178582122274707127962,8.42502673354601405719677,4.97548224196517985262744,2.08739418584265390421706,1122.39881990982235038246,1134.84906935707022057613,1133.10113664008781597659,1135.20771835611776623409,-92.2082617144934744146667,538.949654422455637359235,409.309434999176801284193,145.885169115143014550995,155.893689395682912390839
46.5225000000000008526513,-0.354281698341703421561988,0.588479322010845962154235,-0.183586477956514781961772,0.00711171148711089474991898,-0.00129843479764070761015016,-0.0192700427586566143400848,0.00713901749148910125947198,-0.00561718780262711759460048,0.0640785442593373444353233,0.997903432031866599594139,0.0304883290214596307243777,0.0100090390501353238006388,9.7185243387379571800011,-0.0154932549068164705785566,-0.00128841598033456027766475,0.00234617529541780332411061,8.42498701500427671362559,4.97547575985700252232391,2.08739835439523790938665,1122.1506717469023897138,1136.05671386423978219682,1133.92357312012973125093,1135.62551635909449032624,-82.8879540972437922619065,401.413209268595380763145,241.307053780284434196801,172.194644232579037179676,155.893909501367375014524
46.5249999999999985789145,-0.421361667873667855577224,0.681403385341799894270309,-0.168057772012505490799583,0.00515849223145176810634283,0.000313124902761775022064922,-0.0197938459481030483433361,0.0071344323649559365785322,-0.00559151818605551232527207,0.064061183718183395408019,0.997904723926783532306217,0.0316658459580892032159127,0.0101180698719460504531042,9.71623159916765111177028,-0.015649484959656595473021,-0.00149896136630525093208499,0.00207487213060008213877383,8.42494622962149541933741,4.97546689362753191687716,2.08740023496559157223373,1121.98438013933650836407,1136.85613540341137195355,1134.30767190898814078537,1136.0686915772798784019,-25.016664350947330319741,193.793768355354586674366,37.302486988327487438255,158.259291882687620045544,155.894054865728236336508
46.5275000000000034106051,-0.416676298938506883828836,0.745816158350812496991011,-0.124556155981242686059396,0.0036143680589912439288236,0.00275753556143490483748559,-0.0201326089869673235943637,0.00713096038184823054206785,-0.00556434550853474301640444,0.0640417760743116626365179,0.997906145286376999870015,0.0328744482063074022759608,0.010379703923254171571422,9.71412592876669656050126,-0.0157975386785841505343786,-0.00170815575804057263355207,0.00180142095924643226047268,8.42490476934413656806555,4.97545585235426646164569,2.08740046035922066636203,1122.02558842514758907782,1137.0256827060170508048,1134.11008555507146411401,1136.41681281850833329372,75.6353007205756995290358,-77.1454024925393326839185,-216.065261442261970614709,93.1588454464850599379133,155.894111456443880570077
46.5300000000000011368684,-0.344676535909423098491544,0.783480829727728145250865,-0.0447109323400178906848801,0.00233251373086984254562326,0.0055587462938458580621881,-0.0203825419710414353080541,0.00713007336248120023036723,-0.00553470801177886623928304,0.0640194360586953670200216,0.99790774859829090015495,0.0340764183717947727325637,0.0108227152881373855919378,9.71222151093161478740967,-0.0159369042217906951852679,-0.00191287035756027815232294,0.00152872205181171154191044,8.42486269410781751787454,4.97544221886252024944497,2.08739948152903975753247,1122.3625566429395803425,1136.47040839094847797242,1133.22734560177627827215,1136.53448580451254201762,163.704331807424495082159,-311.994757557669800007716,-415.15731339819939194058,-32.0445272140496371093832,155.8940789997169815706
46.5324999999999988631316,-0.246259309210469595763371,0.785706363345647695872742,0.0415090768985622027287263,0.00159652448745153181970668,0.00737435493427456099230222,-0.0204873051744792200601353,0.00713195774459935739886252,-0.00550444180431364053773802,0.0639943983316599296351512,0.997909508260403588231213,0.035287209322155399515708,0.0114402233300830158402306,9.7105267454159989171103,-0.0160676163837771904252527,-0.00211035995100116152006775,0.00125909566765671572692586,8.4248198201880502011818,4.97542623447670440128832,2.08739721706505187981406,1122.84411008418396704656,1135.4657089182301206165,1132.03429898808235520846,1136.25659018243823084049,213.7731392046860037226,-472.229035812037523101026,-541.974571550549740095448,-207.703307679351524939193,155.893970337161732686582
46.5350000000000036948222,-0.129343824898456805083669,0.766067813320427393186662,0.143424280655524344352258,0.00126896945889362058532135,0.00895610036867587784581435,-0.0204685344054435086613708,0.00713504825085902079362388,-0.00547663117244892062862593,0.0639710723481716481142456,0.997911136144571164763306,0.036545468923733212540661,0.0121833158427908649912297,9.70904550391099618877888,-0.0161903817756369784730541,-0.00229843517891252730259155,0.000994142545659831063792344,8.42477667682265085602467,4.97540879364315369315364,2.08739377277119197984234,1123.4314223389635571948,1134.10926321188708243426,1130.51747274402214316069,1135.49596926611525304907,257.279200111456930244458,-618.910439141793062844954,-698.40059648841554462706,-445.089795256444290316722,155.893779811908444798974
46.5375000000000014210855,0.00865395570137578867830896,0.723799924407671158022026,0.275211185877647257491674,0.00145807622724541236479412,0.0110219329333633223044764,-0.0202057344704566210769059,0.00713656839881226037758388,-0.00545407392015412936098206,0.0639517951158507236275597,0.997912487391208080644844,0.0378845092264920302316256,0.0129745465878443599905268,9.70777847533423887682602,-0.0163066116976688414708097,-0.00247585314604213896708118,0.00073461782024144303519797,8.42473445834372469676055,4.97539139314964362625915,2.08738935452625939959148,1124.13050608474190994457,1132.37115672251957221306,1128.54229600563849089667,1134.03114120615487081523,242.578349656689709945567,-617.108535467438855448563,-715.17406152180694789422,-611.062808793495719328348,155.893460403321256535492
46.5399999999999991473487,0.107414033233658987032122,0.675445013314518227787175,0.383169316119079450544405,0.00203637189012559728998331,0.0130723241328519149823117,-0.0196665646555986804722149,0.00713721588116132329981944,-0.00543950039806874712650098,0.0639367278213341383441559,0.997913531738173653629076,0.039342781654308406347198,0.013799757731405473681896,9.70672376987239005075025,-0.0164183241276344912829011,-0.00264235687063921588849102,0.000480419997718160797419568,8.42469424146629286553889,4.97537542786167019670529,2.08738513933016678336685,1124.64431408724590255588,1131.02372053455269451661,1126.94160243641636043321,1132.44065522215055352717,186.57724584399608147578,-487.166144588878523791209,-589.200343702640225274081,-674.103950128593055524107,155.893121766683094620021
46.5425000000000039790393,0.178559220077224967138108,0.618939747273309803787811,0.473261402408863496305003,0.00277285895383746951864401,0.0149636983133742667434474,-0.0186283022172792460391388,0.0071397038247426655027672,-0.00543217612726952774754308,0.0639284395275121347657077,0.997914088845901825486351,0.0408964582702711215711489,0.0146852955984844713022142,9.70587881815220399062127,-0.0165278896127979933738938,-0.00279838786587455591939322,0.000230525722406196853248722,8.42465656829001119376699,4.97536190043549808592616,2.08738245219304729971554,1125.06339231396236755245,1129.93532599957393358636,1125.59629428712378285127,1130.66062145551018147671,168.11774224539061606265,-406.344516837063054026657,-489.660053099191429737402,-771.154874640448042555363,155.892712150766925560674
46.5450000000000017053026,0.228199803446609228441133,0.555575749235307725371058,0.53995274080591393328632,0.00334109204651782988604314,0.016614388840006440173358,-0.0166880580602955727598236,0.00714684602198491659291735,-0.00543052394807844434482247,0.0639297761786535440053925,0.997913964403678188652691,0.0425077054030936485329306,0.0156589795406826548518353,9.7052414748914479503128,-0.0166375922639834146476989,-0.00294485011552150528074678,-1.67216870312170373625779e-05,8.42462153988383199987311,4.97535110866624918912748,2.08738177640806332746592,1125.48490279847328565666,1128.99199795036633986456,1124.49330217091915073979,1128.58488084894634084776,148.161110970930309349569,-290.035483459259978644695,-294.928883581583193063125,-712.868911568432736203249,155.89214386589691230256
46.5474999999999994315658,0.239577164592593594427683,0.518868747434328203560483,0.548750419941082201447102,0.00360969026926614934211446,0.017624737623682693726801,-0.0145830082654016136151087,0.00715803760390529286716799,-0.00542910616745824643747387,0.0639396354962219332085382,0.99791326135024449595079,0.0440612950127015068346736,0.016686993098438837601627,9.70481181065567177768116,-0.0167491265074895430420288,-0.00308287203373607248541033,-0.00026339754454914997977566,8.4245880706887330546806,4.97534109873783858546403,2.08738281085385102286978,1125.80419786881634536257,1128.48514858227895274467,1124.12164986921720810642,1127.09627689767125957587,128.148608292920386020342,-161.501814787069776002681,-18.9077548713060998863966,-513.595594262925374096085,155.891610137022212256852
46.5500000000000042632564,0.21696985267112070538964,0.511105688495227195033976,0.504465955250914976915055,0.0041832661919293540747633,0.0184362139788372889070978,-0.0125113829357711842105161,0.00717295034423293727948723,-0.00542225054255789009477473,0.0639552765374339915460666,0.997912187409383033553922,0.0454386722638321916001303,0.0177420234102595442138295,9.70459160468786130593344,-0.0168632193374211973579957,-0.00321346463432571529533766,-0.000511489338070768924555953,8.42455458806592893949983,4.97532977065064496713376,2.08738473258661905163081,1126.12564583993821543118,1128.184488876430577875,1124.39876339656257187016,1126.01690287763040032587,130.763549587687919029122,-101.437637391921214202739,218.632412605872588073908,-354.615529216562663350487,155.891018119467503311171
46.5525000000000019895197,0.162194551002389192317921,0.532338739686433304321156,0.422943698598196748950073,0.00514924822930502845697021,0.0191308026049875762319985,-0.0111782494614049779380061,0.00719195612715968924516519,-0.00540692486139696202457339,0.0639738622606881163212833,0.99791093761195193145852,0.0465732346221398862962104,0.0188087663540455612976032,9.70458399076923505788272,-0.0169794812074579720695411,-0.00333745712130703196460213,-0.000762505922566324243622171,8.42451996175203987604618,4.97531629641388040141692,2.08738666999689925773964,1126.45801561675511948124,1127.97796039531908718345,1125.21481193224713024392,1125.32319925158753903816,132.15932566670940673248,-73.5699617963960577071703,440.780459650059810883249,-190.107806372761928059845,155.890380568029257801754
46.5549999999999997157829,0.0678772990190574382340927,0.587293307165677958003869,0.312230593477305751193285,0.00627734479241703283852738,0.0198920374803277892616915,-0.0110108649924289276472722,0.00721355397872533703890197,-0.00538365905421475231945605,0.0639908804670334813158306,0.997909808658455244056995,0.0474640218778819011902215,0.0198337726046133172586039,9.70479349327094276134176,-0.0170964669267272169339567,-0.00345571995451428911477754,-0.00101729588683411708432969,8.42448349150820519071203,4.97530112308659333564265,2.08738765323850028465813,1126.78644246827116148779,1127.81663906744893210998,1126.60266569481086662563,1125.06636384576745513186,132.413317596758503214005,-64.9882332116840046865036,703.950477204401977360249,-34.1032433102865084606492,155.889691138504446143997
46.5574999999999974420462,-0.0782663496586197271476237,0.679721080392024390448569,0.160175390411228385501019,0.0071173172344243937001429,0.0212760172366662572707163,-0.0110506127145341657980193,0.00723567941278451323694476,-0.00535364351526779105178155,0.0640009811749393670021746,0.997909151978146558015226,0.0481203896458260588220313,0.0207550788988103834808996,9.70522572437828223712586,-0.0172119022575871194469244,-0.00356934063269079412603069,-0.00127609904295789737885269,8.42444422440854978617608,4.97528477774262789523618,2.08738693814127085346399,1127.1200822047383098834,1127.65301922926096267474,1128.73456431826593870937,1125.1526830350362615718,101.125562313648615031525,-49.3110835998979979422074,821.394689533906785072759,75.52854606943357396176,155.888807306077836756231
46.5600000000000022737368,-0.207150004950326510622105,0.763155742523635716167973,0.0187833986769369576386168,0.00679591979021368364222155,0.0231065880921588369389941,-0.0104267564391657043681993,0.00725437462568561709785886,-0.00531680301098930163661294,0.0640005793136927403352843,0.997909226707025753810854,0.0485226828455702502429503,0.0214793270266501051812824,9.70588723691726507070143,-0.0173230431683597009551168,-0.00367965538860590525918615,-0.0015387140447762077521271,8.42440139229241680141058,4.97526815445393300052501,2.08738444202335049482144,1127.29207027983966327156,1127.57008364944931599894,1130.70963914248250148376,1125.44400657611481619824,33.6812778944759472210535,-10.732363228311408320792,782.337690324684331244498,134.271944202714138327792,155.888025880033495695898
46.5625,-0.313086909722129991262562,0.832754591042936920253226,-0.13821162765777428305114,0.00532577369120730559348686,0.0258053638472045300533697,-0.00953639087999142050222634,0.00726691403865508539494655,-0.00527399358424924299265646,0.0639865035205407495233487,0.997910251383519630863361,0.0486686438208576155339813,0.0219400715499610821090926,9.70678396299886614428942,-0.0174271216249612774518152,-0.00378830196134237592517358,-0.00180454403896128010541255,8.42435526314254090607392,4.97525233927431376201866,2.08738062447608108129771,1127.28848859421077577281,1127.59935741311937817954,1132.64625276989136182237,1125.8240427560501757398,-52.8765299525756518050912,48.8585761045204520769403,792.984062183489186281804,158.747625706708959114621,155.887200091872784923908
46.5649999999999977262632,-0.387252285286911468453752,0.886311179381851554914817,-0.330220256322777294677451,0.003207671591981678567429,0.0296791907716451031085114,-0.00947703201885007930072025,0.00727444085528293742787254,-0.0052247554082782941831109,0.0639611590512344230230468,0.997912064458912229092391,0.0485337474398993412583181,0.0221517609160230416476267,9.70792029416456436763383,-0.017521842323355678316954,-0.00389691508298224123171827,-0.00207277290829884159109597,8.42430697987034271534412,4.97523752719753886708531,2.08737608678794028804759,1127.0276876300770254602,1127.81437652997169607261,1134.67455945339634126867,1126.2377447046476390824,-141.337317528969379054615,110.249030859984472385804,667.412948918194729230891,129.162525944936845689881,155.886160060397202187232
46.5675000000000025579538,-0.398024723915083089575973,0.90977789436873590656063,-0.471104269095927119526124,0.0016886748623939342936473,0.0326037269675571103610956,-0.0106139155912691480337928,0.00727784085027106779353101,-0.00516737621911485169728939,0.0639295113394467151568534,0.997914349116126531136217,0.0480680844968235099212706,0.0221299626153098200065372,9.70929901813890694484144,-0.0176057181952102466404586,-0.00400700335066404757927705,-0.0023424598800692430361492,8.42425762513447295987135,4.97522332406952738637074,2.08737096698950219675339,1126.58180200656556735339,1128.15060256741958255589,1135.9833175144840424764,1126.46985538577519037062,-222.393947186742394706016,161.611557032310059867086,425.155249752934537355031,61.4165989670395475741316,155.885253981289224611828
46.5700000000000002842171,-0.360228930154229465276927,0.932256820835778654554815,-0.562277828616245867188184,0.000627879500945505912394562,0.0342158725497409207938482,-0.0126376442646335719610651,0.00728043472866105999957709,-0.00509960288310093434738235,0.0638957203937780826574766,0.997916825700032483759117,0.0472145814336234759256428,0.0219427451650000965299725,9.71092006274092867101899,-0.0176782495454412685864654,-0.00411989205760100122427625,-0.00261249368528166086428355,8.42420806345535311265849,4.97520918042412141346631,2.08736514344161427914059,1125.91571789414274462615,1128.62243431513365976571,1136.80033570216210137005,1126.54482769948299392127,-331.119717434313429293979,228.530703763752654822383,236.687094204886932402587,3.43296630885873410576892,155.884308871726261713775
46.5724999999999980104803,-0.271656182832302306451311,0.984268404909232730304325,-0.589697402766727885037312,-0.000186864899052066211690426,0.0350130692662995526842629,-0.0153625989279414284366387,0.00728169643942168116207414,-0.00501965141376402041589744,0.0638621708801679482947478,0.997919354670932401418781,0.045922158350270192439524,0.0215875093364938513973428,9.71278079974448971256606,-0.0177399905377326541633387,-0.00423662369962621472574416,-0.0028816165067633843326067,8.42415848889368135132827,4.97519449885093845153961,2.08735884750918154750821,1124.92620341939550598909,1129.29325608623730659019,1137.16675298550740080827,1126.4870202173194684292,-380.480062849561363691464,257.531997342134786777024,30.560607542322767216092,-29.6447962736541050787764,155.883131836366601419286
46.5750000000000028421709,-0.171769020072136097132542,1.05190663012217178184926,-0.538002063454214418669608,-0.000607758037336058741691158,0.0357454774687858065074231,-0.0174771091461412737821934,0.00727974501754302585204703,-0.0049316529251152395330049,0.0638323879355887219277932,0.997921704180973589970449,0.0442559970454726170352444,0.021032015728405822896363,9.71487437827099142850784,-0.0177926102268682918838838,-0.00435784610170486270269707,-0.00314820048963410309764144,8.42410921164825765572459,4.97517902137203993362391,2.08735178450548808370968,1124.01331757989396464836,1129.91009430184499251482,1136.95313873987379338359,1126.3966037181146475632,-364.638859664496408186096,256.97716345144311844706,-190.57735110345021212197,-13.755128385211959241019,155.882116890055016256156
46.5775000000000005684342,-0.054901152847925002720153,1.12100799931472372428232,-0.415275186106563387600232,-0.000892649035349465892405507,0.0375245058989772464763668,-0.0190702043718298137886524,0.00727241908670961563487811,-0.00484502678363439662906353,0.0638113838603311944730478,0.997923523352744368253298,0.0423882473448819602213078,0.0202355286859606242622078,9.71718932922010480979225,-0.0178388590500733294763602,-0.00448386158476926123539474,-0.00341026365586301989304974,8.42406177708442172047398,4.97516268593177013457307,2.08734313089933865015269,1123.10300912107209114765,1130.57814190349517957657,1136.21386622998966231535,1126.41824457539337345224,-350.892597933944557553332,278.194037681331053590839,-376.004505925289777223952,56.3136139727760678397317,155.881068622594796124758
46.5799999999999982946974,0.0692521465733489521854338,1.15718368724182241180642,-0.246249850228291711218276,-0.00110628346441792209386978,0.0403448983627668275597777,-0.0201544970700891327985982,0.00725906431125891357658553,-0.00476944965354498054410648,0.0638009265467405772831455,0.997924658398852471030693,0.0405038282039973107639952,0.019189391309282377573453,9.71970978448057110199443,-0.0178823301521222055576743,-0.00461491107598930791477976,-0.00366570103514573348776895,8.42401691251297712881296,4.97514574587689395457346,2.08733301461649478625304,1122.25885459022583745536,1131.30106449025038273248,1135.07311621024905434751,1126.67817178797827182279,-310.446450138511295335775,307.410032333725268927083,-534.260333433121104462771,195.903268342217245390202,155.87999431031579433693
46.582500000000003126388,0.192165861313506491914183,1.10693461095071343791574,-0.0422798652070556640891752,-0.00104047965984176821706286,0.0441345286181853146967313,-0.0206576908637963359283152,0.0072414013980194695541126,-0.00471247017151451251526506,0.0638023718169794945564988,0.997924977230063681155059,0.0387561039220732928001212,0.017936208611874032703426,9.72241561602471726644126,-0.0179271306663417555327111,-0.00475118682302776151882284,-0.00391247508304570171949743,8.42397524698219335448357,4.97512888446686929455609,2.0873222846584864598185,1121.55077687037874056841,1132.1151920651645923499,1133.54256456282269027724,1127.39776091710496075393,-272.164752732075555741176,383.893929513382374807406,-722.96414483184287291806,453.193273971687688117527,155.878890577966870978344
46.5850000000000008526513,0.320750412568999387907809,0.899395104735821293573395,0.211696893758720805500673,-2.61560511071122470637407e-05,0.0492338726265795570413708,-0.0206152938359453266614629,0.00722255452100631183121049,-0.00467393833425099741729625,0.0638144984146948451853021,0.997924538458784815553315,0.0371577728837638593395454,0.0165574829933062411813083,9.72528337951840882169563,-0.0179773514750544115281539,-0.00489295794377845628952972,-0.00414887703007833959223394,8.42393727594092212029864,4.97511259980348974352182,2.08731183710616763349321,1120.89803082656476362899,1133.22053413781827657658,1131.45829548608799086651,1128.94413815783786958491,-205.374453756399248050002,426.365621998753681509697,-767.202856787177779551712,684.584671870547595062817,155.877534744007618883188
46.5874999999999985789145,0.399265538645647233284564,0.589902726200585703075774,0.40584985036334364494337,0.00148287777447670267132185,0.053241999365721083548042,-0.0199929855415414102492999,0.00720685488065981021826856,-0.00464448021900045956988912,0.0638300705270047757933227,0.997923815056295793191055,0.0355505447264639756754789,0.0151712826677320722357223,9.72828676078711751529227,-0.0180364702999587164788942,-0.00504067172310424665981898,-0.00437353266477736885714522,8.42390125372874543074886,4.97509665163465708559443,2.0873013311847157247314,1120.52390460159767826553,1134.24702017515642182843,1129.70655027889029042854,1130.82068427645458541519,-117.659697043822063733387,426.43438311207330571051,-657.095836247190504764148,849.959183887742142360366,155.876380760729290386735
46.5900000000000034106051,0.440165342534128367635304,0.155993727477388988145179,0.549703217215103179249525,0.00301956313116690270789699,0.0560610701853764131774582,-0.0186301860318676092143075,0.00719746870953251460800715,-0.00461783146391098447275381,0.0638444444950450884501691,0.997923107522588725970536,0.0338408924940502009448551,0.0138701265971366421991817,9.73139599406470701126182,-0.0181070774196803938038691,-0.00519456166918305130286715,-0.00458491277603588921057964,8.42386633107496152206295,4.97508013928392323066419,2.08729018999394533295799,1120.30973234134535232442,1135.35270605337973393034,1128.17281630485035748279,1133.19393407727875455748,-65.2536222354804493761549,492.102241616269736823597,-582.270743030742323753657,1100.42870404930090444395,155.87520422191354896313
46.5925000000000011368684,0.448858306431921982859734,-0.444843990781782161469948,0.628241973730388258978508,0.00429755028607288740855052,0.0566686688730270241021181,-0.0160155090046391196390019,0.0071939950294574155770233,-0.00459074204130388661276863,0.0638561843653766281203588,0.997922523457359766929642,0.0319940985239660496963765,0.0126738916497068504485313,9.73457900095830730435864,-0.0181906273781061653127544,-0.00535459318052177758728849,-0.00478134657215385869971636,8.42383136885713668107201,4.97506251482043637679453,2.08727732902964513428401,1120.19763649042010911216,1136.70753138323902931006,1126.79519656373508951219,1136.32282779670390482352,-24.2967948646531084477829,490.899823171722232473257,-411.563234556216741566459,1136.6392814385442306957,155.873769294584775479962
46.5949999999999988631316,0.42832256795263834447951,-0.946033442020120851623233,0.595849770403922840422695,0.00502620092312419403796087,0.0541782664064496821687555,-0.0131138406870162354395104,0.00719538583984956434808078,-0.0045633977850230182313207,0.0638636040387152992270359,0.997922175739455630250063,0.0300446715764115003521884,0.0115855243862492823803123,9.73780188630083287648631,-0.0182873294429056268417533,-0.00552067443798684182737491,-0.00496107614806423017489445,8.4237951671734148106907,4.97504419455826418783317,2.08726184866551145447033,1120.18824836702219727158,1137.80720516923611285165,1126.11500013207114534453,1138.87713048446630637045,5.44700279214970262131601,423.151601462961480137892,-175.04759207859163439025,937.62369260764228329208,155.872556554610468992905
46.5975000000000036948222,0.383074494774112039863212,-1.36919701376661540059843,0.457090335375269607443016,0.00559839193375979721906122,0.0491535754659447321479604,-0.0100936434932592366403581,0.00719898726925404398163666,-0.00453400445261934077756383,0.06386410725292869516867,0.997922256885385938751654,0.0279884525648377117945653,0.0105786319690386598768583,9.74103088897011559765815,-0.0183961748962348341229767,-0.00569273489965557450559475,-0.00512270775559801969795126,8.42375668177663428082269,4.97502535915727150950261,2.0872438102450607821936,1120.22487150438087155635,1138.82328939055491900945,1125.91995860334168355621,1141.01094625974451446382,21.6579357412572939267648,420.456665769337178062415,3.5426542413897617045393,768.600701678740392708278,155.871329009251212482923
46.6000000000000014210855,0.297514374766665201654803,-1.72838221784174161932413,0.195627461453408674207921,0.00638321545605581922022687,0.0418931198656357639542591,-0.0077134326196087064572704,0.00720314879031372281431578,-0.00450174200746401593359325,0.0638568145119368935080928,0.997922838587330551796128,0.0258418558140573774439819,0.00964400980614689429248898,9.74423312462288038204861,-0.0185152469233515887259145,-0.00587064903403510841839452,-0.00526539049312304587024958,8.42371468529911027189883,4.97500663301418377670871,2.08722339602492334975636,1120.29653804572853914578,1139.90948849808387421945,1126.13271340327810321469,1142.72013399286197454785,31.7985703779248041200844,373.867546100222057248175,124.408136705891962492387,448.320142677537944564392,155.869842228974533782093
46.6024999999999991473487,0.194133031451382859211563,-1.89340886951707343399676,-0.0600504137513570776518712,0.00754971372279690782630679,0.0361172860783163171549681,-0.00742113584153074670735073,0.00721003076001915706866319,-0.0044675905766956257314515,0.0638425046888983216408775,0.997923850494470299210548,0.0236602783728526479267718,0.00884285424408925990746866,9.74737777669854743578526,-0.0186421321238365716999041,-0.00605418149784537305835297,-0.00538905288358952540977986,8.4236694802427418693469,4.97498827264116894042445,2.08720134106059029832636,1120.3838643562703509815,1140.69262712105432910903,1126.54199928687057763455,1143.25254697313016549742,46.4618517569978095593797,286.239527599163011473138,171.592065128155326192427,9.77076142134547254158861,155.868594374860919060666
46.6050000000000039790393,0.0536095073291739804277611,-1.93851480348720373036997,-0.294923369740612950629099,0.00914081743901364041082758,0.0315534947051731226586035,-0.00879913501185022872697061,0.00722173609325132536546077,-0.00443019341686245581718451,0.0638224096157702647236221,0.997925204720970571159455,0.0214519849938885516504872,0.00823634619778858267924448,9.75043876922701890919143,-0.0187743140774040001561573,-0.00624284452373866267926861,-0.00549483958349870731108222,8.42362159676677357822427,4.9749697389453899631917,2.0871791652612912137954,1120.52884730451364703185,1141.34068613608042142005,1126.99067372891931881895,1142.7689877999687269039,73.1647113557381487680686,233.64053719257623242811,156.828976188273173875132,-355.362850716756042857014,155.867340461493682823857
46.6075000000000017053026,-0.109352771767257619939251,-1.90887530260813575999634,-0.472125769101275627459557,0.010321799950984854657432,0.027877814381419219885716,-0.0111473596517401348643395,0.00723794551849659892339695,-0.00438961136320234913271721,0.0637991400526539548243576,0.997926737246338735332074,0.0192477220989084978064465,0.00783454613952902501061715,9.75339636019583622328355,-0.0189096210868145778172256,-0.00643570382942465404191301,-0.00558508414000128978332826,8.42357215936226388919295,4.97495014613414010540282,2.08715865129785127507489,1120.7496879130492288823,1141.86082980701780797972,1127.32614416781234467635,1141.47573271954547635687,110.882064335747486438777,168.653025607835530763623,80.3943629219069322289215,-681.179644847526219564315,155.866083814599420520608
46.6099999999999994315658,-0.270443644885233758223819,-1.81202849225277273781387,-0.54885223315179898495586,0.00997365407701497619363806,0.0245396358967489916502736,-0.0138677319682148983415182,0.00725513087890773678001466,-0.00434898324725869426382596,0.0637751899880198841463752,0.997928301986504839860004,0.0171320104597248480671201,0.00757861161086835488642777,9.75623852997555118804485,-0.0190465052810305235375665,-0.0066314019727888679975325,-0.00566309603915326597450841,8.42352253683015916863042,4.97492882893977039771016,2.08714140697857120088088,1121.08325762619188026292,1142.18395126411883211404,1127.39264554352848790586,1139.36308957573419320397,170.997967983343016840081,80.4513381309377564321039,-48.3719072422652871523496,-1052.76993205198573377857,155.864826403353930572848
46.6125000000000042632564,-0.412475631808688736335,-1.62770094147412347496129,-0.513588407007041114482604,0.00768103625538244308423863,0.0201135191697115987830013,-0.0167934303849768401528664,0.00726878441290986030548504,-0.0043122136982391466933362,0.063752131007580925547984,0.997929816675623859723032,0.0152011391811042138877408,0.00738677882273083841191408,9.75896190151000020307492,-0.0191841154602446842258878,-0.00682832933556028805893723,-0.00573280694816860267315484,8.42347368810695051877246,4.97490525235126312963985,2.0871279013297034943264,1121.60467775296638137661,1142.26308649767270253506,1127.08428463160089449957,1136.21188305928285444679,204.30285309183554431911,-34.7795265659719348150247,-172.705711313986142840804,-1197.21784149553650422604,155.863319563242498588806
46.6150000000000019895197,-0.459189768574498557995867,-1.41356359312770440972429,-0.388552153016152590492283,0.00504960605438583166187927,0.0160811720015778293613185,-0.01855851191431599420123,0.00727588991783426931869716,-0.00427913144430954340419193,0.0637320927252922470040986,0.997931171319640486494507,0.0134722418044434279205124,0.00720845527619183579215445,9.76157223556587716473132,-0.0193222089713639272323675,-0.00702483118766000086408141,-0.00579837201763884653449299,8.42342600818389364292216,4.9748788312216047913239,2.08711666709310161849089,1122.10477189165158051765,1142.01005363128888348001,1126.52911698695811537618,1133.37700036825344795943,200.873706398034187259327,-177.346384627551145740654,-259.532193590129793392407,-1101.38216739301378765958,155.862067481024183734917
46.6174999999999997157829,-0.419697497898537275062836,-1.13163177944010051589885,-0.191912997940629354021169,0.00273642499335782643857251,0.012293292114915132032249,-0.019447532620743897269211,0.00727546448521402145531711,-0.00424839533505273151542392,0.0637138488431509136811215,0.9979324606795055840891,0.01194089196034081243325,0.00703125965000392372239446,9.76408399610436283921899,-0.0194609815525387218337894,-0.00721967876451367739781828,-0.00586357692795277073150029,8.42337943796583310529513,4.97485025791835333563995,2.0871061569897815246577,1122.60904628495563883916,1141.37635457453575327236,1125.7866236636514258862,1130.70497222232279455056,207.781531216967579211996,-365.6926506358246911077,-326.537241738766681464767,-1062.12044128320667368826,155.860821154754091821815
46.6199999999999974420462,-0.288918783259810574293169,-0.72128651968439883024331,0.0854441981613037887521855,0.00086055538178261489767884,0.00838456252754705803897917,-0.0195686295833969320367984,0.00727224951752582140368508,-0.00422288402605041756493476,0.0636929018122319723360647,0.997933925123115073141378,0.010691069984572570267245,0.00694654605086530985147419,9.76651883912518670172176,-0.0196009453110487438798337,-0.00741240733820855163954677,-0.00593129113775629594751404,8.42333403737552188772497,4.97482145201914960352951,2.08709574574125733548158,1123.14367954773547353398,1140.18159037811142297869,1124.89643077826576700318,1128.06639816184224400786,176.644762932801882016065,-497.886308120787305142585,-293.022611145793405285076,-834.819048834315594831423,155.859334199469287796092
46.6225000000000022737368,-0.13620168488976178156058,-0.336734607293543541928216,0.319658434355043541419406,0.000125238646811361099744214,0.00599030504038458241899967,-0.0190032925297879719261918,0.00727066284326548760430509,-0.00419950459007596092059211,0.0636681344904675150520035,0.99793561504876082679516,0.00968918930898029009957106,0.00704475224072488581672502,9.76890599055359665214837,-0.0197426981680323201939764,-0.00760311486405308451647089,-0.00600383681154173162730636,8.42328905791557858151464,4.97479414348532866796404,2.08708568578164399553998,1123.49227009962010015443,1138.88692303393054316984,1124.3215106079217093793,1126.53087697814908096916,117.293877903815896956985,-549.409673480014134838711,-164.27910075108920295861,-458.498793689834315046028,155.858103493317628363002
46.625,0.0236303443121141827643061,0.0534607917132067997356693,0.520872993164617326122823,0.000198376883260373884079394,0.00523525876013907539435754,-0.0179105571042075389920356,0.00727220597098326114460232,-0.00417564590430816780924905,0.0636412952983816115892779,0.997937418146835675258899,0.008906640395948604155274,0.00735716479317889693323451,9.77128060201159343023392,-0.0198868199237773879417546,-0.00779229428037785023380968,-0.00608273308934005087211805,8.42324349420989904047019,4.97476914212511367452407,2.08707550909416905682292,1123.73014893725485308096,1137.43454201070994713518,1124.07503527450990077341,1125.7739041933918997529,86.9825442555220291751539,-623.966880463671259349212,-16.0624821228030327802117,-166.979776741088215885611,155.856882805742600339727
46.6274999999999977262632,0.179109724301499850795949,0.467418056916596824645893,0.684159721616376836905715,0.00111074344898452574692538,0.0066750330054421280062682,-0.0158230799987692898056491,0.00727971831032569668962218,-0.00415215886820714374233487,0.0636170435585032556513596,0.997939013359341320352769,0.0083831239067274597454027,0.00793540484851305849556269,9.7736812046942169729391,-0.0200338318900188279425567,-0.00798054066310108049797645,-0.00616847541947822784746958,8.42319739697331293371008,4.97474549824323464264353,2.08706460464632748141867,1123.92718282089731474116,1135.76708863161502449657,1124.24119819730776725919,1125.6959780944443991757,68.7106933250209692687349,-557.172899725889351429942,135.681913656366020859423,81.5332312087813448897577,155.855431283957585719691
46.6300000000000025579538,0.250889146490042846959767,0.723590331539938680371904,0.728335450146189611331238,0.00244032528725038810532566,0.0095598425803311726928202,-0.01318603730888452674197,0.00729383814195021240589512,-0.00413136598516532921321343,0.0636015805353435936808637,0.997939992839958489589947,0.00818323680555553198412433,0.00878495028186850046569845,9.77614837455137930533056,-0.0201841306107857117180249,-0.00816821897279454423035361,-0.00626070749355627474697084,8.42315146694639338420529,4.97472222937129693320912,2.08705283605904767796346,1124.07370240388013371557,1134.64867751207907531352,1124.75344484279207790678,1126.18157034943601502164,70.6362470777642244001981,-348.318118463434132081602,267.207041266874227858352,262.955620311506265807111,155.854234482389898630572
46.6325000000000002842171,0.241102900871811104410725,0.852894180897558862319841,0.655634158227199392854345,0.00406890748890167356505154,0.0131737772985950317428117,-0.00982355602081825401983295,0.00731444760146559690844326,-0.00411430711194191601337566,0.0635974902732605318345094,0.997940189697150703551642,0.00834415438532156231166148,0.00989652332839070780767798,9.7787227109724401685753,-0.0203378151217936536943043,-0.00835547747825130318610753,-0.00635838236853532301484648,8.42310660506617914222716,4.9746988011717352407004,2.0870406778891692489708,1124.28036405628631655418,1134.02549803929696281557,1125.57723340364282194059,1127.0107561960026032466,102.692032753887076523824,-148.26676613542829841208,365.620371683067446610949,352.639937596634467809054,155.853053613769930052513
46.6349999999999980104803,0.159059675564251823409734,0.870926873071757756683553,0.486097581348773122300599,0.00555289699167143754876541,0.0166657994167345203939679,-0.00661346515447785044533591,0.00733494931166956548596048,-0.00409815893670653543651161,0.0635982100909768394148003,0.997940078473309344353481,0.00881751952871248287357808,0.0111372430403516436969724,9.78144389495190758054832,-0.0204944062954496332429333,-0.00854232877930101268393326,-0.00646004237939855341377182,8.42306234173018886224327,4.97467425897288695324505,2.0870280218489551948835,1124.58716256764910212951,1133.90734368140260812652,1126.58154670120575246983,1127.94477003741758380784,153.799154676574744371464,75.3790280980479963091057,427.999639350272673254949,360.05825985534778510555,155.851888388474208113621
46.6375000000000028421709,-0.000396095208904219397982871,0.771235045130248209055424,0.226398768258063709524208,0.00638410355634028928856205,0.0196516714538115082333558,-0.00471974732226373115684392,0.00735054774507628606861065,-0.00407987407127025948627708,0.0635949691220593915641501,0.997940262762612051439248,0.00954998302582226940571353,0.0124076011710327616111016,9.78434761390016483062482,-0.0206528523345857230320011,-0.00872851615676365107099333,-0.00656357013336272398368321,8.42301744673279806363553,4.97464806847407281509277,2.08701437346979012943393,1125.04935982966958363249,1134.40239317978739563841,1127.71723160039528011112,1128.81104749528026331973,241.080943690407735857661,332.547351964752067488007,514.309339483416579241748,328.248854263452244595101,155.850745522705267376296
46.6400000000000005684342,-0.253249462528066904276614,0.560028291836205394105264,-0.128051054885629789215074,0.00613153981584958502476512,0.0220532471481863986961791,-0.00469088066668282236554299,0.00736018211433236719393181,-0.00405752415704538436230786,0.0635825032938110712432689,0.99794109158744748189207,0.0105111663776668411152126,0.0136775002562364161873276,9.78746369619612899271033,-0.0208116215948622555742542,-0.00891343221165087108703862,-0.00666618099460804507810918,8.42297084487726266388563,4.97462042566936979426373,2.08699851805720548725276,1125.79256728610175741778,1135.57008044122721912572,1129.15309339862415072275,1129.58601430873568460811,301.061085205493384364672,487.930995563181511442963,531.991403484955299063586,225.381578935844459010696,155.849405162189384554949
46.6424999999999982946974,-0.489716723564210865138335,0.350277541196722885796788,-0.407554264964921475478121,0.005087446857342506692512,0.0227311288651444731723217,-0.00650544584465884839774574,0.00736531106237916198542504,-0.00403098651645811528049235,0.0635611880970174542015982,0.997942528787528426725828,0.0117050439416337796749712,0.0149615940381711276518928,9.79081504025339910413095,-0.0209688898803615242361076,-0.00909614394183147489947316,-0.00676461408008443513401042,8.4229227196298719348988,4.97459208498102523066109,2.08698018800478468648407,1126.55466525569568148057,1136.84204815760108431277,1130.37718861781763735053,1129.93795538995846072794,326.707313952980484828004,518.496517492402176685573,490.419375103851166386448,78.1481835539635056875341,155.848318424806279836048
46.645000000000003126388,-0.723547200739965479243665,0.155890773764595036432468,-0.620234807408484911661617,0.00362544615203380009640921,0.0223330748353883293266797,-0.00953959119509124875424533,0.00736847931975359669160008,-0.00399922212269317699229187,0.0635335174473798669492197,0.997944399926681380286198,0.013114551245369494153481,0.016294549680396674951055,9.79441720030745344161005,-0.0211226442895995000781362,-0.00927558683718489318525968,-0.0068555631306867637758673,8.42287335159755023994421,4.97456333946031925563602,2.08696004876475393885471,1127.42610385586749544018,1138.16256302869055616611,1131.60519027414466108894,1129.97675522650570201222,393.988655301089579552354,533.728315808957404442481,534.938957577332189430308,-40.5386944213907511880279,155.847268710950828563
46.6475000000000008526513,-0.968898671226922525434588,-0.0160838936386485942264812,-0.771208567696749724973415,0.00122617634501871915209126,0.0213138707235810860585179,-0.0132035195555657951238526,0.00736977103543533500901175,-0.00396129773993733960701924,0.0635029541136584302352119,0.997946487439622886839174,0.0147168331723556457257818,0.0176604343578158629046726,9.79827850672713118740376,-0.0212708445519595445993843,-0.00945056292351357726810868,-0.00693598967432905531144138,8.42282290995932214627828,4.97453410201287216096944,2.08693888708458841207971,1128.52460853220213721215,1139.51068973664723671391,1133.05188340570566651877,1129.73526191785140326829,397.20175264287462368884,422.519527130928054248216,519.345342778360077318212,-118.721347384524705148579,155.846058065899057964998
46.6499999999999985789145,-1.12023373408276238905046,-0.0905792344462866688692415,-0.812782201989047603518657,-0.00163733415780482004751872,0.0203418047833455566120175,-0.0156722833258465948924609,0.00736798958940354867253042,-0.00391995950890931376536797,0.0634726808026107314208986,0.9979485868614756949313,0.0165545186904545622852414,0.0190113821000396227001161,9.80239967856359228903784,-0.0214115892849476747994419,-0.00961978591849629166565805,-0.00700314417881601602305919,8.42277119164373999637974,4.97450440890390499504292,2.0869167825944292538054,1129.41211261908006235899,1140.2751606643432751298,1134.20191698803409963148,1129.38314848958361835685,328.872366295368010469247,211.932110142498260074717,438.488536165144410006178,-147.409206193985568233984,155.84509376436020033907
46.6525000000000034106051,-1.19114156485631594861729,-0.0880772176749076568524899,-0.786479933742940007235234,-0.00538747727547315806428951,0.0194495774379843805457213,-0.0175444967892668737818873,0.00736169628374576563711873,-0.00387890873909168751310084,0.0634441697838242779639017,0.997950601660579250662408,0.0186838989066943385319863,0.0202915575503309214555614,9.80677419882689349606153,-0.0215431854324310764758899,-0.00978195351152663303273549,-0.00705477636831318595522777,8.42271851869551113622947,4.97447358584847609819235,2.0868943468964604726068,1130.1689703636798185471,1140.57035028736027015839,1135.24432608653251008946,1128.99821588688109841314,265.1827286118084998634,41.4129574519181034020221,391.631535958349275006185,-140.943627063116508679741,155.844179119913661679675
46.6550000000000011368684,-1.18461753913186851328021,-0.0272585173583665685281829,-0.72239367817459798626345,-0.0095255986562764322078678,0.0187345234176187480645837,-0.0189759104152378461904949,0.00734905617544832131388111,-0.00384251303759189236433635,0.0634174917552260825059918,0.997952525717117899795028,0.0211693730967990843827575,0.0214349734663196178630074,9.81138897915904806268372,-0.0216642700024457027230262,-0.00993578858724882864328354,-0.00708921118411719956148298,8.4226656558980206312981,4.97444049541282584669943,2.08687243606659000860759,1130.73802626213978328451,1140.48222545160297158873,1136.16007466782684787177,1128.67843035426767528406,166.099265588869542398243,-110.464001506589255541257,329.480548444261785334675,-92.2711188365540380118546,155.84330740752520227943
46.6574999999999988631316,-1.08888539530796601972895,0.0877807220021124129383239,-0.631939843979115734029506,-0.0132637522442195215227612,0.0184310827959093329053708,-0.0199768768267704135976892,0.00732640338531965074758689,-0.00381684748760529289623999,0.0633929278349762148625501,0.99795434621505074712644,0.0241025182611974871094151,0.022336715567432524620628,9.8162253033838346993889,-0.0217739171297203666644027,-0.0100801267765784005603358,-0.00710530519785943729532685,8.42261325385171311097565,4.97440543205779750479678,2.08685123125415161737806,1130.99946669162341095216,1140.0180302798278262344,1136.89172882875232062361,1128.53686029269874779857,32.9252108209688927331626,-256.721687180702815567201,277.302546796721799182706,-0.708855201082407182511247,155.842488641863610610017
46.6600000000000036948222,-0.898564665898360925844202,0.258884738768165700850687,-0.50766865790526805035654,-0.0164299633711181627959697,0.0189358672663658342272264,-0.0209583336874337132493817,0.00729397971249118575592929,-0.00380143297904505291645583,0.0633693295677686951883345,0.997956136470089072432188,0.0274478035823413381300018,0.0229764861904474676501664,9.82125951740649938415118,-0.0218714620436146478521522,-0.0102143217680563686694528,-0.00710256495159258122162882,8.42256177716141607447753,4.9743695526908853210557,2.08683057412859040979924,1130.90265231624471198302,1139.1986170156988009694,1137.54658740181116627355,1128.67488607826226143516,-101.750258325539803649917,-316.038468771714406102546,206.334437524978000055853,111.238901136800834024143,155.841567655669194891743
46.6625000000000014210855,-0.706286974907913478460841,0.404838085336191255692029,-0.393575871037105506911047,-0.0179704102488539400883649,0.0201999317302792406880751,-0.0217948168401345017397563,0.00725652152061941058125427,-0.00378975601487024481989208,0.0633438191926132543319028,0.997958068441850865148979,0.0310536799622806482246151,0.0234307088811506608605484,9.82646400155426391620495,-0.0219563922058400896875074,-0.0103384301386600808286831,-0.00708102313395727635259025,8.42251054129445009266419,4.97433381120581330492314,2.08680931140314029903493,1130.49071539999545166211,1138.43783793596844589047,1137.92340101637773841503,1129.09305479838303654105,-218.500506337676142720738,-289.613591443266727765149,125.56316970037693181439,232.212435210778693317479,155.840850819385394743222
46.6649999999999991473487,-0.512628555918731021456836,0.529788143356839102970923,-0.264910774907078983009256,-0.0188407122259951417819757,0.0221165707727902921542196,-0.0227674908545137597015717,0.00721738606072615945796755,-0.00377544165727111951519346,0.0633130399641839008983979,0.997960355143969080060629,0.0347666096296161686307613,0.0237509135170701907169288,9.83180865949215920807092,-0.0220283494642102076199741,-0.010453084268823489150213,-0.00704111627104714830893695,8.42245896353050227389758,4.97429859619572312112723,2.08678750253090194988204,1129.81014978455732489238,1137.75054905848378439259,1138.17440325031247994048,1129.83594825431509889313,-332.680068239699608056981,-259.023388434028959181887,98.8662607957343340103762,391.316254807706968676939,155.840184869826089197886
46.6675000000000039790393,-0.307547238203361661401658,0.640578060848446817487911,-0.0889056560275061913412031,-0.0194660192464683329260922,0.0247422838823393581586529,-0.0239212166771691769895369,0.0071784377145967994543474,-0.00375403289963808454304806,0.0632758043961021005019418,0.997963076287386674501079,0.0384663991651477132904802,0.0239602027622376062554466,9.83726164293670635174749,-0.0220871736314473127160696,-0.0105592844267129431362617,-0.00698368226233975382399866,8.42240708005188842832922,4.97426382926293175756882,2.08676631878598728420116,1128.82731505879610267584,1137.14272099379763858451,1138.41773232035666296724,1131.04963607242257239704,-364.01634016974207952444,-177.097558145124253314862,93.6205454862350450184749,483.443472407523643141758,155.839441893912663772426
46.6700000000000017053026,-0.173375109306780683660065,0.700624718429737947111846,0.0740134147886454957232516,-0.0196500761120143030424856,0.0267656949797630272502857,-0.0245539495472350925708849,0.00714137617843784832522003,-0.0037257235767425614901549,0.0632343125729850352723105,0.997966078691826963265044,0.0421221202361118929324846,0.0240767269080758017363308,9.84278947334882658992683,-0.0221329659977626339029122,-0.0106582396173383765064502,-0.00690980994609657287602866,8.4223556665197332193884,4.97422941799854712030537,2.08674677527077001570888,1127.99006808370768339955,1136.86506126775771008397,1138.64250597774389461847,1132.25316561635395373742,-312.206945777427051780251,-65.7145853812068878596619,107.351514820590949739199,497.359328980153236443584,155.838867427355836525749
46.6724999999999994315658,-0.0868288335486455675749085,0.737817992946946499266403,0.242149460904592106480493,-0.0195271484764035982428787,0.0283034466251451989615706,-0.024522126117132139050403,0.00710659484508205808311887,-0.00368888271092854182903187,0.0631897053415935716635943,0.997969291687862081197125,0.0456639052842231496498471,0.0241003309911284185895752,9.84835849871140744937748,-0.0221658621158463443878706,-0.010751452968150228273192,-0.00682100191000562135201779,8.42230450656477991344673,4.97419509794128433810556,2.08672903670913667539821,1127.26628032991038708133,1136.81414806689190299949,1138.95448989445912957308,1133.53643271732107677963,-270.06275513963197454359,13.4392436839265787540398,161.050985243363726340249,552.555404513840812796843,155.838336646278662556142
46.6750000000000042632564,-0.0403286447786777579871398,0.770920985259089031060853,0.42636902814991384236265,-0.0191453946192518681401751,0.0297165060077335813071286,-0.0235385678805998359297558,0.00707544557110514893416564,-0.00364492928606011601030956,0.0631431075928764740101684,0.997972626757363867611161,0.0490819091655595174383819,0.0240516505257920842897335,9.85393422185463840889952,-0.0221860561335226226520323,-0.0108406344752087161614762,-0.00671868376399036276030996,8.42225327292868009010363,4.97416049149453076694272,2.08671330130093801713542,1126.63975430800883259508,1136.93225748617737735913,1139.44776090396112522285,1135.01594263892457092879,-181.154330367551750669008,58.0490847037411583642097,193.731070443474010289719,510.937315095100188955257,155.837746894835703415083
46.6775000000000019895197,-0.0448624567831268639128695,0.79404351581211563004814,0.545655804268219690733588,-0.0187788400457954175737374,0.0308172181554121800417523,-0.0221400330718943445795777,0.00704742305360697186833452,-0.0035928752387294300360554,0.0630965260637322694625695,0.997975961825781854308559,0.0523158985546312987890971,0.0239240046442734666243268,9.85948258086110662645751,-0.0221937167194349790899643,-0.0109276071207441028559915,-0.00660424571876706053424888,8.42220154093132400419108,4.97412523870606282372364,2.08669963763128718525763,1126.36050867807216491201,1137.10439349041075729474,1139.92314524667699515703,1136.0911192927978845546,-61.3471110840795006424742,71.5663393988248230925819,185.266970814323286731451,375.506023808998634194722,155.837292207466703075625
46.6799999999999997157829,-0.0812651292596948821023162,0.806975662251148806447532,0.608334811858599167067041,-0.018648718440664055484568,0.0322242777301234156750454,-0.0204340292283624463953728,0.00702132021972810913684748,-0.00353443482127837769676826,0.0630528031657354576244856,0.997979118114693308783103,0.0553574331855150314485314,0.0236999553751384567368277,9.86496892448359652405543,-0.02218909441570552504297,-0.0110143370992001696923035,-0.00647853425392265827587046,8.42214926727137225270781,4.97408990084904711892477,2.08668698849453138066679,1126.33301875258871405094,1137.29008918317117604602,1140.37409575803189909493,1136.89347275796785652346,24.4687081556316741171031,75.1631086245426160985517,158.638284188653983619588,264.394689285440449566522,155.836872497434256956694
46.6824999999999974420462,-0.129557458387287355305872,0.799125451270728537345178,0.611789260948636060000183,-0.0189720193846889713384929,0.0340937958010999464519841,-0.0185184260125534488894417,0.00699635223996660036288597,-0.00347187908609541528298648,0.0630155218725214488761921,0.997981866198880074314559,0.0582093878868959191397181,0.0233761164484060923740572,9.87035779031903537372727,-0.0221725502118518373595446,-0.011102964593389755623698,-0.00634173133774533926559913,8.42209770548099889708737,4.97405450714118391175589,2.0866745873977259329024,1126.4828522188502120116,1137.48020903353312860418,1140.71633666761954373214,1137.41309273922388456413,90.3110154412836010351384,85.5026122930684380207822,90.9897576681931354869448,134.550077406014963798953,155.836479299335223913658
46.6850000000000022737368,-0.173188103985107699767099,0.747177496237596328043651,0.534973363006194135849114,-0.0198182059990595765830435,0.0365011591692744052917163,-0.0163556556276762410373493,0.00697069767328132011002806,-0.00340621473274912685627602,0.0629857654522722881784702,0.997984147299060375679858,0.0608484100871550248612607,0.0229367448999224926575735,9.87561309974254797339199,-0.0221444419789978870494185,-0.0111959083925621712130027,-0.00619342026102987462665705,8.42204723977415881108755,4.97401978569527170037645,2.08666137898503389891403,1126.78457382979536305356,1137.71760224463673694117,1140.82904454637309754617,1137.56622314499827552936,148.933707438042091553143,133.782301503947337550926,-17.5853161490887117679449,-11.5772335522647047412192,155.83611494476298275913
46.6875,-0.201678166986172635599672,0.61515523956224638091328,0.351220691317428390654243,-0.0211255656586607880320638,0.0396566057394928117574295,-0.0137466156885316624636229,0.00694395249748617441470921,-0.00333895253331827198892134,0.0629611904575301944975152,0.997986107572291003542375,0.0632630077401775958723107,0.0223995099709050488057116,9.88069717646457945647853,-0.0221050058682946692911742,-0.0112958593789216840685974,-0.00603255445330039101470287,8.42199755012868855885699,4.9739866234851426440855,2.08664616403860936344472,1127.22752075604080346238,1138.14912054105320748931,1140.62841008687405519595,1137.35520657146253142855,161.044399043986260267047,196.601686435221012061447,-127.517860075274725772942,-129.201310476109199498751,155.835707219834887382603
46.6899999999999977262632,-0.199970754583739168674938,0.444423311240045026959677,0.136105070090698943019447,-0.0222121022842347200232371,0.0420487637117549981069509,-0.0121722717241510899194301,0.00691674411417837579907353,-0.00326778651196792460642548,0.062937356187749704528045,0.997988031076069592728572,0.0653681503048874762429321,0.0218123691522403295728338,9.88557142131916322114193,-0.0220541947800083452946307,-0.0114055354420066618059693,-0.00585791654714431803824271,8.42194762723025824868728,4.97395519656105378203392,2.0866291639958762793583,1127.58979582501456206955,1138.70061067681194799661,1140.19145524599730379123,1136.9202165926183170086,125.404817722282544423251,272.009005386095850553829,-213.387158073674044089785,-197.404088586826190976353,155.835389706841993984199
46.6925000000000025579538,-0.175648559353316358055963,0.225136455501085797070715,-0.109061554537557947597293,-0.0228970491867039396827188,0.043455765716822705724276,-0.0121735578218001329331432,0.00689098017742875278840442,-0.00319266644602482106349295,0.0629139342844066834503636,0.997989926375538405345367,0.0671257822489870620286112,0.0212490150296691798770254,9.89019539056335972304623,-0.0219918417746524860745261,-0.0115271243274704497661087,-0.00566818555066378546719585,8.4218969315197238501014,4.97392566212189723984238,2.08661153527973874943768,1127.85454484465253699454,1139.50916556798438250553,1139.56147429650513913657,1136.368186128527895562,74.4202794570429801979117,417.888647528175113166071,-289.043871202409206944139,-216.43063868216654554999,155.835093220048008788581
46.6950000000000002842171,-0.133515429939704388662136,-0.0593108641875196088144584,-0.388442020887089622949162,-0.0229867197037207787735369,0.0434385987710724508215065,-0.0139313283669101270478841,0.00687014262863245000340084,-0.00311552427534189440780366,0.0628932344303487489423077,0.997991617619014559359414,0.0685402609463525158695063,0.020813511003264492660314,9.89452713073226419737694,-0.0219176709252643410474892,-0.0116620307878056734401939,-0.00546219111574826679533778,8.42184574659212259462038,4.97389751569699267719216,2.08659429726939205096414,1127.96189722229996732494,1140.79005391445389250293,1138.74623588998451850784,1135.83806339920693062595,-6.63957452462149344540876,515.223211790057803227683,-283.054875785986098435387,-125.03618807761543507695,155.834760221540193469991
46.6974999999999980104803,-0.0967634830644876625660444,-0.285822265225005756050791,-0.579129282914402576665225,-0.0226794002703111091667765,0.0421256340363625816913817,-0.0160554374027345771180908,0.00685408356531843222098077,-0.00304043351131626790953555,0.062873185919265064947048,0.997993222265176394003561,0.0696554822737414230937603,0.0205362345506262117256213,9.89852465522066715664096,-0.0218312231046975807613464,-0.0118108364931145300158466,-0.00523915078003321654787072,8.42179346665922068382315,4.97386908136169125782544,2.08657763639620430495825,1127.82134697202945972094,1142.08528162693232843594,1138.14619991757649586361,1135.74300518814038696291,-109.014618131267226885939,548.538273146451956563396,-198.078377212631124848485,88.051338461491894804567,155.834501187472284300384
46.7000000000000028421709,-0.0617358213915219639078558,-0.477291272163179236542874,-0.706341148052032408166667,-0.0224001684551290991542771,0.0402629800446721586304477,-0.0181893109909396881451737,0.00684131736288673495544055,-0.00297222135853107737382683,0.062853665860846827384556,0.997994742925040645431523,0.0705312829293181231538057,0.0204179801834040858254937,9.90214668350032845012265,-0.0217321337051556047470502,-0.0119729070563664840437523,-0.00499869631998652984988807,8.4217396153034371764079,4.97383914857477371640471,2.08656150796552619652857,1127.41682413164335230249,1143.53274528018755518133,1137.75584400392085626663,1136.27832009151461534202,-229.573248478819436968479,642.328715872907878292608,-106.523153475282086333209,420.128567694531454890239,155.834261392895086828503
46.7025000000000005684342,-0.0146269942601368260759465,-0.658076874445994608464616,-0.779280296396431371164226,-0.0223113579426149483131425,0.0378820064300660064304793,-0.0206195184570795060630122,0.00682757360806444165562956,-0.00291439929766423508339379,0.0628361804754501290792845,0.997996104065323574872082,0.0712016416376413385780353,0.0204018147410450628731482,9.90535437028470333586938,-0.0216203529908842381757061,-0.0121464369370526143604438,-0.00474101175442447671931623,8.42168402990003528429952,4.97380731493240446638993,2.0865453676143341787963,1126.67348072963477534358,1145.29692520629851060221,1137.61358415019981293881,1137.8436480266141188622,-296.994074939354504749645,625.30487140627451481123,4.47658993557931950135753,727.876921396298598665453,155.833996849916957216919
46.7049999999999982946974,0.0384896337241588601396636,-0.772610784185556398462325,-0.774808810916066792451318,-0.0224979334845085247873708,0.0357242680382805488648046,-0.0226260277353926009258345,0.0068074623192606468005672,-0.0028697376907062237955115,0.0628207737960034540147802,0.997997333961695543003145,0.0716890763386777568610952,0.020403687117608274026459,9.90811217964276913505728,-0.0214964004828151269976821,-0.0123287651723485679189363,-0.0044668240122387008195215,8.42162677775270651636674,4.97377318237601606654152,2.08652871252620375486231,1125.93185375694793037837,1146.65926963721608444757,1137.77822695359873250709,1139.91770469849279834307,-288.671067381972193288675,490.346033936724950308417,117.054137155295535421828,949.813141353220771634369,155.833796987739390260685
46.707500000000003126388,0.11708675881286405295878,-0.864177223674805539133104,-0.707195872266972669351048,-0.0229641454555957226502105,0.0338526567313375895129646,-0.0246667454356408501203735,0.00677647181387363260751666,-0.00284333927575174984225814,0.0628057599805431771011754,0.997998558594560325474276,0.0720691111504560277811748,0.0203465375895485883761538,9.91038831596259583989195,-0.0213617121107224673670633,-0.0125166280366826830616755,-0.00417735110309722362104123,8.42156921171582339979977,4.97373664152696814966248,2.08651176357687218043679,1125.23012539272417598113,1147.74865537598338960379,1138.19885483597659003863,1142.59271373338265220809,-245.65018084532476905224,368.9800066335396309114,199.638895492569361067581,1113.92616450122977767023,155.833620191299047519351
46.7100000000000008526513,0.219996373223810742780771,-0.95028975739198229266691,-0.5931844167799772415961,-0.0234681258052271690672796,0.0324776959707601745042105,-0.0265658458710489979448521,0.0067358433993325392968865,-0.00283910015860021737801877,0.0627863482754738161384367,0.998000062430548728897861,0.0724075376566456763161028,0.0202601606240355031074429,9.91215589702282606765493,-0.0212187851004112977559846,-0.0127065204845481522638595,-0.00387446014733915794492347,8.42151366026609515813561,4.97369834947064060060029,2.08649536557607806486203,1124.70360285272067812912,1148.5041696703847264871,1138.77642143106209005055,1145.48733552100179622357,-138.483002354804256128773,203.928874957458845074143,252.280356771281986993927,1125.30917153251289164473,155.833463511382291244445
46.7124999999999985789145,0.344328571695039387101644,-1.03954765468587817522916,-0.43492057124355743003008,-0.0236293534500497809380803,0.0313056815311463232376354,-0.0279788599824434026930309,0.0066922425563399239381579,-0.00285293199422405113416246,0.0627585846348576587017121,0.998002058874732811410979,0.072627009763525138263951,0.0202819486913946717132617,9.91339555598761279497921,-0.0210711853296713762240255,-0.0128947697890771182521741,-0.00356101658421807210422316,8.42146154239561539611714,4.97365865563981124353177,2.08648066900969642034624,1124.53771038095078438346,1148.76829975076975642878,1139.46025661983185273129,1148.21925959104009962175,32.6578566585627712015594,-3.35559141849272446478381,303.726980268610645907756,1054.46074989327530602168,155.833331775889405435009
46.7150000000000034106051,0.491145845814583204003156,-1.14289012814920520888506,-0.213941881068072770055721,-0.0231026267481872285558531,0.0292412264006690347795114,-0.0290294683408307656324876,0.00665068293918684525639629,-0.00288129597364875610077117,0.0627234810294083067194748,0.998004458196409705017516,0.0726679219827897210359779,0.020505406319157329364522,9.91409612412646090717772,-0.0209234231094432010511497,-0.0130775225606769972958032,-0.00324065946425331754751631,8.42141345935479357365239,4.97361724527631832160068,2.08646878099578048093576,1124.86689213601357550942,1148.48739171329225428053,1140.29505633240592032962,1150.75963927047087054234,208.962012948661566724695,-192.387631096100250260861,293.857549277376790541894,743.359224194438752419956,155.833202760631138517056
46.7175000000000011368684,0.581747982851021916417267,-1.20567430959520494049286,-0.0206183624534305616482488,-0.0218437174841931529278849,0.0266187027967354529478516,-0.0293851799620980964899974,0.0066163306290691363195644,-0.00292067396078940846870786,0.062683281115684469364524,0.998007094206819878046133,0.0724804776395714389636282,0.0210171863572658074170718,9.91425515769244114494541,-0.0207803926212204483070511,-0.0132511567819499527509652,-0.00291755025120092170015651,8.42136893479579562438175,4.97357451785849580261356,2.0864601616937230588178,1125.58252044569462668733,1147.80636159528876305558,1140.92954436621948843822,1151.93605571201419479621,358.806935194624031737476,-336.968744799139074075356,225.028319316993503207414,229.895200948139887486832,155.833119165148900719942
46.7199999999999988631316,0.599215276227827109423174,-1.21132177507507732272529,0.16110299611249764839549,-0.0194923221566022410178309,0.0231170199077503531193134,-0.0291066470563667092918969,0.00659377422944624081574405,-0.00296452191748777186403041,0.0626405218493112092570385,0.998009796984903441163794,0.0719633146461421957518212,0.0218872735071343749169159,9.9138799605174607876279,-0.0206468445064625014118143,-0.0134125386722791783977726,-0.00259617846336465066953147,8.42132725135370563407378,4.97353108739002269800267,2.08645482847911534207697,1126.66092681198506397777,1146.80254798929809112451,1141.42019792898986452201,1151.90911527521052448719,518.069316571799049597757,-470.670409109730144336936,165.5096035063315014213,-292.347185220601716082456,155.833059470729864415262
46.7225000000000036948222,0.498961791879535820903868,-1.11852543771455437138229,0.341750477601280966410968,-0.0158108447070492881547654,0.0183843971177228455993191,-0.0279829601635649578839082,0.00658433697716648974607168,-0.00300559155713263879972086,0.0625984088000453436917425,0.998012379577369213023985,0.0710054464414770492020068,0.0231140286021926932846782,9.91298748164141230176938,-0.0205269871242639359576465,-0.0135591448003063285571157,-0.00228096756171006784588706,8.42128838073210062020735,4.97348712909861223607777,2.08645286756954728701885,1128.17286702855494695541,1145.45300954973890839028,1141.75709238375156928669,1150.47431978591043844062,556.366939434053165314253,-483.929671497596984863776,71.5491319658301563322311,-728.685482216760760820762,155.833013690242580651102
46.7250000000000014210855,0.306590982377657139679172,-0.946226058743504960801829,0.446574810099961194698182,-0.0128119278525365230120281,0.0144588807617049164983003,-0.0264651459492973029075102,0.00658321588731492889773333,-0.00303990559456580183850249,0.0625599157131302846535092,0.998014699978869823659977,0.0695601720301953357905589,0.0245643696432278485497491,9.91160354273204902142425,-0.0204241034721457347111961,-0.0136891893695347318521405,-0.0019758265323687536525743,8.42125159951327617591232,4.9734424112353998737035,2.08645360103319177369485,1129.44276150915675316355,1144.38289963180886843475,1141.77794358881919833948,1148.26568786412485678738,473.129051479575650773768,-380.589112806529158206104,-50.781800495179396648382,-1027.35842268068813609716,155.832995328401779033811
46.7274999999999991473487,0.0233033662151579668009305,-0.682803984115675000055035,0.49428999072566226491432,-0.011217712743023570964862,0.0111865113867400962216481,-0.0246840934835102915334559,0.00658493358157024970267468,-0.00306445891517334459766553,0.0625257231746196434629681,0.998016761907086435989811,0.0676046314231739525757447,0.0260867093680336031846778,9.90976143313029567138983,-0.0203401702431049886954373,-0.013801832851261006118726,-0.00168375619900443338622376,8.42121540673943158594739,4.97339683532372944796407,2.08645566242206825791072,1130.53851228595067368587,1143.55006398570799319714,1141.50318338127590322983,1145.3375276725116691523,413.563962983350734248233,-283.873061967133537564223,-181.566839720333405239217,-1358.45988633085266883427,155.832995005659256548824
46.7300000000000039790393,-0.362496117301746800798412,-0.299435934265438352674948,0.487274303938565855887077,-0.0119762026539590726859075,0.00868887113000558000686091,-0.0227543560325651345044307,0.0065821756476669547944458,-0.00308240198264114750870135,0.0624932490822709407751745,0.998018765592882162174249,0.065238872542584411262645,0.0274837032488911142680266,9.90750002995717871101533,-0.020275693530767940897519,-0.0138972965432589135037489,-0.00140650707534705540074915,8.42117822537222160406145,4.97335121795671319944177,2.08645702504380281538943,1131.51058132407456469082,1142.96353432197247457225,1140.87010939021706690255,1141.47338843246711803658,290.443684748731016043166,-137.683895036500473452179,-266.738207547268700636778,-1403.25720274605441773019,155.833012323051633529758
46.7325000000000017053026,-0.672157233086221661544357,0.0323928681888399905286491,0.436682589020881584129796,-0.0145231545984667032023196,0.00832957368315147099468998,-0.0214654334587481669671671,0.00656879649100933042660255,-0.00309328972256785747832475,0.062459376808931682534265,0.998020948516292749630452,0.0624947098524855360057728,0.0285855622521746649544738,9.90486365425049086752551,-0.0202298090221516707609695,-0.0139767748118289833469952,-0.00114493047889127771109263,8.42113871226760402066702,4.97330643716627296413435,2.08645651781163810056796,1131.99073070969507170958,1142.8616445105251386849,1140.16949234353887732141,1138.32124165877780797018,124.908253744865675116671,36.399120252996361557507,-287.662451306948867113533,-1169.79906892394842543581,155.833039098886189322002
46.7349999999999994315658,-0.923330992351698576214858,0.317496723805058500555987,0.35515405758192802876394,-0.0179975799895859892019168,0.010139223763325544425129,-0.0205796812568215040095687,0.00654513963991110517270933,-0.00309552660763308049030051,0.0624232856654058018697206,0.998023364098818421830117,0.0593889554719279760819362,0.0293538583534391911422645,9.90189915982963775320513,-0.0202006482219774900765952,-0.0140422006320427943115714,-0.000898999909301586653045946,8.42109560721701022600882,4.97326297425949004349377,2.0864540582069417418154,1132.13512259279832505854,1143.14552992323729085911,1139.43179713368363081827,1135.62439308785269531654,8.85573270315491711812683,166.693379511940520387725,-276.876688889746446875506,-959.201448403346603299724,155.833075683701679281512
46.7375000000000042632564,-1.10948384885703599245232,0.526931129919507967862558,0.260495413174523848809372,-0.0216738855575335509495716,0.0132858258125796557108655,-0.0200206196912292612444251,0.00651531730344726001113997,-0.00309357621017906448193657,0.0623864926281774354044352,0.998025874205811125428056,0.0560609457609229505647974,0.0298205345819459177736377,9.89865392991993964244557,-0.0201857871178206249584974,-0.0140959803326964061565008,-0.000667984664780700045094708,8.42104953260058763930829,4.97322112338239019635466,2.08645061230146122710494,1132.03500937321086894372,1143.69511140808526761248,1138.78510889908943681803,1133.52523441675862159173,-88.2870453542639950228477,262.960003687159826313291,-209.647658946762078358006,-666.082392807880182772351,155.833118061733330250718
46.7400000000000019895197,-1.21859215721637959006785,0.626962498546744351202165,0.163315514852465454298525,-0.0251467993560495761684592,0.0166938839972621509699646,-0.0197726305108693635459449,0.00648283736845332077963766,-0.00309013545540337076014681,0.0623520647632329963472309,0.998028254115019386460972,0.0526111005299208928098764,0.0300127570825518275032806,9.89517690228766078064382,-0.0201826699028345227238113,-0.0141407146291344740923757,-0.000451194402632775241543395,8.42100126123627035212849,4.97318073135003135831766,2.08644739003939472254956,1131.69368736602677927294,1144.46032994167376273253,1138.38355883894928410882,1132.29398112381159080542,-193.738985879593883510097,352.610988691778970860469,-95.1118106710010664528454,-338.606811114858487599122,155.833164475566064766099
46.7424999999999997157829,-1.28034743216252122621768,0.637532100309885940703225,0.056611419150215294693318,-0.0284928070432855055915677,0.0196081805508043147123765,-0.0197201597866120473256935,0.00645103906653264873999332,-0.00308437038625238761982428,0.0623227043133950039943691,0.998030314645792282490788,0.0490657922914555788551638,0.0299650977685139013884097,9.89151773587707516810497,-0.0201889358404270941038661,-0.0141789839277627720270925,-0.000248187316441036759026573,8.42095149930061737109099,4.97314105408089890403289,2.08644514047413176527357,1131.06631444381378059916,1145.45816635154255891393,1138.30954984573486399313,1131.83220036118586904195,-260.639771455008144585008,351.8373181356781174145,47.8178756546165644181201,-22.8071747170568492890652,155.833220876346615568764
46.7449999999999974420462,-1.29204207678269722414655,0.588061242781213078245628,-0.0179827514788799477929437,-0.0305960135998517741839908,0.0207533779262714275504198,-0.0198205873037973524797284,0.00641840678360627164833474,-0.00307348357494846829290891,0.06229964780178891964324,0.998031995748414280100747,0.0454022145695698459144651,0.0296260252352235492478982,9.88772655143718814940712,-0.0202026593055150381628149,-0.0142131803046372379162321,-5.88563016791969029033182e-05,8.42090124980191312431543,4.9731011207510995575376,2.08644435690467577870777,1130.3904885087529237353,1146.21951653235055346158,1138.62264821722214946931,1132.17994525022641028045,-299.159286762625697519979,258.901119051192267761508,195.063077673367189390774,242.917998722953910828437,155.833265485805384287232
46.7475000000000022737368,-1.27390159179788042820292,0.522110031015324049796789,-0.0735884387346433244125876,-0.0327008216984795985204926,0.0210287773807505025402964,-0.0200343290002291604667839,0.00638396702576736994882989,-0.00305536551146479281801382,0.0622815930875624118590039,0.998033391418200799272142,0.0416073829358751534623906,0.0289618893305167296459146,9.88385182667274797552182,-0.020222464969143722629541,-0.0142454831411725647144495,0.000116938279902111441545948,8.42085132917327605639457,4.97306053073396903130288,2.08644493222117688446815,1129.57051800999988699914,1146.75267194679918247857,1139.28486523410219888319,1133.04679035480126003677,-391.554791882644849465578,154.645206870884976524394,343.927684877877766211896,435.588065633378391794395,155.833304231691357699674
46.75,-1.21084529544088814745351,0.460590230210422002521398,-0.116249330362835495700224,-0.0359390215746088689807713,0.0210452589964401359790003,-0.0204063671898143672578385,0.00634753863106683052786039,-0.00303072886847388211356558,0.0622673243936887887972631,0.998034577813613599239773,0.0377209256800875442072751,0.0279592923784596908420852,9.87993952684136012010185,-0.0202476160814917122143797,-0.0142777945333722421084044,0.000279591691540235489851773,8.42080246628457906865606,4.9730191021439855703079,2.08644629067718012649379,1128.43271454933869790693,1146.9927425667053739744,1140.34228664161241795227,1134.35788557839441637043,-437.523113446275146998232,11.404361678443278194095,403.959758842305689086061,483.198042878924013621145,155.833340766926454534769
