t,ang acc x,ang acc y,ang acc z,ang vel x,ang vel y,ang vel z,quat x,quat y,quat z,quat w,acc x,acc y,acc z,vel x,vel y,vel z,pos x,pos y,pos z,mot 1,mot 2,mot 3,mot 4,dmot 1,dmot 2,dmot 3,dmot 4,vbat
46.707500000000003126388,-1.1582482095237478514349,1.17416023896175580887302,0.38628620764008680943391,-0.0203791003973890667844149,0.037100661772792288550793,-0.026246639601066844293964,0.00674218052178152376513465,-0.0029551702599317133252077,0.0656964206191419791691644,0.99781238001213523602928,-0.0116684037811073046397858,0.0178496087170505954300204,9.69216357283938556577141,-0.0114877212408900156170866,-0.019292644485128539189045,0.00163096731451494413034364,7.73723822554502849158098,4.28417226617438817726224,2.03421029439155454099364,1118.31688904279030793987,1130.0482671842123636452,1126.90953284118745614251,1114.6486910967926178273,-68.5344189002639296859343,18.6667013728670099226292,-949.55417152488359988638,193.318700797991596118663,148.602787943742640663913
46.7100000000000008526513,-0.926499009057012212764448,0.939264789072115191537193,0.548220948836538268800211,-0.0233209970006275774112581,0.0410701419418364466196181,-0.0256579078727384758684682,0.00677204982858963400876862,-0.00290784533022662907558731,0.0656924212921414785171237,0.997812581281726784787622,-0.0133398362114866032845928,0.0176322050966550361583707,9.69124968698925393084664,-0.0116153406663211788280021,-0.0194912447616306869213609,0.00137396327652847369434064,7.73721803724722967388061,4.28412200675378063152721,2.03421266271435818850932,1118.10906139913595325197,1130.12054354660017452261,1124.6514250389382141293,1115.03183344557146483567,-115.405196606039140760913,50.4339004272428041986132,-911.583097359981934459938,130.837108081214722687946,148.599494602602504755851
46.7124999999999985789145,-0.71542460529755436127175,0.618708077838679426641022,0.671126701876743392283231,-0.0249060175535521372003345,0.044393356555263892293528,-0.0244570278805571784952466,0.00679226801967321765912677,-0.0028623958701985128573464,0.0656913028779780999721893,0.997812649024580888834635,-0.0151748364724521300761495,0.0171938566390892541568824,9.69012985841491492067235,-0.0117500177915837600989279,-0.019700774919219107839119,0.00111354416891309569888346,7.73719579118395373029671,4.28406974602745549418614,2.0342142703952950100188,1117.73986305976063704293,1130.300436686348348303,1122.35161735439169206074,1115.30287663719809643226,-210.914372139251440785301,101.71998544005217013364,-982.184234520079826324945,96.3696964677144904953821,148.596169700634050059307
46.7150000000000034106051,-0.545675465094090927919979,0.167879918553447082807395,0.743355606251952294449836,-0.0247424130314890661219707,0.0462572035706398376753157,-0.0218978915367404602942969,0.00679909835245400516468006,-0.00281816373853791424936022,0.0656887075072489917682006,0.99781289988615828878693,-0.017166391791869222566147,0.0164981694309261489594931,9.68881236278864221844742,-0.0118912542010393557090353,-0.0199204173826945662995058,0.000848626768062185144261833,7.7371719201974116231213,4.28401694074112082688544,2.03421522392256859390613,1117.054489538439156604,1130.62914347380069557403,1119.74050386633530251856,1115.51368192791028377542,-296.334180528795798181818,130.660240046633134625154,-900.339771710417608119315,61.9622903098071660110691,148.592148447158336921348
46.7175000000000011368684,-0.503329276821736448788158,-0.224250011031406598638327,0.720026555612363394764941,-0.0237679773076632967765409,0.0458139043552208760634592,-0.0189984241801387683523661,0.0067921173192872488430516,-0.00277245252404136966264958,0.0656810348714424591110017,0.997813583131575976281624,-0.0193421558882397939815867,0.0155733583358246691075166,9.68731053408259690229443,-0.0120386107311403756092716,-0.0201492754878820172492748,0.000578117719854346224367392,7.73714721326107213172918,4.28396378008472211718072,2.03421596754330202827532,1116.25819215711590004503,1130.95373788658184821543,1117.84991849583730072482,1115.61268808874729074887,-364.138856332023465256498,127.722737223646362281215,-656.603828950352749416197,28.0968240184193724928718,148.588774643699679245401
46.7199999999999988631316,-0.56678833616993451460786,-0.585812976807306151627586,0.598474192722890929729829,-0.0235340435254134394682524,0.0439069117562882263450241,-0.0159405730309014823098401,0.00677535172422241704914825,-0.00272865221768362788135054,0.0656675918145477044429725,0.997814706123086758715601,-0.021606575505851467744467,0.0145228234467990741096699,9.68564247786567555920101,-0.0121919273992146474233644,-0.0203863099338468314880579,0.000301180374686364305068104,7.73712279844562100805661,4.28391005001130498186512,2.0342166205458904748582,1115.23379525678069512651,1131.2677571599183465878,1116.45748472158652475628,1115.65416604800225286453,-439.757502727436644818226,117.343048179449397139251,-447.003462295650535907043,9.08826535655397371726849,148.585380853831452441227
46.7225000000000036948222,-0.696445261000073423396373,-0.89433898264992295334963,0.403068865036476042806868,-0.0244438472981029601693859,0.0411273484255206614457201,-0.0134029171158780279621281,0.00675260106441884656175434,-0.00268884424173936389945716,0.0656494968550056373635115,0.997816162362751613024159,-0.0238903487092770004662778,0.0134430586437753810113982,9.68383136724633075687052,-0.0123513025340334751944749,-0.0206303487694014867082082,1.69686314710594608311939e-05,7.73709888017989921848994,4.28385604988081158950308,2.03421712204679261404294,1114.05940464347759188968,1131.54045312747939533438,1115.61490118435790463991,1115.65812941553008386109,-487.126179389657409046777,98.7545633126450894678783,-181.914097658270918600465,-7.20542573567031219283763,148.581972917121987620703
46.7250000000000014210855,-0.864182423554137102428285,-1.12023288951258281898049,0.148747229926028567970064,-0.0267117033049013852252784,0.0375530032446699524317779,-0.0124307151218151484134422,0.00672588045102677240666411,-0.00265426919169646025400966,0.0656261973900739009613048,0.997817970627867145694267,-0.0261436800824462606263054,0.0123919075795783303894915,9.68190519496667967302983,-0.0125168523417199372554931,-0.0208801425938200425902469,-0.0002753500191627172551459,7.73707527572163122897564,4.28380211085534945425479,2.03421698214243251712219,1112.79816435983116207353,1131.76152997648182463308,1115.54791423329470489989,1115.61813891932388287387,-542.843471828921678934421,94.4825870528297713235588,157.901014684246462138617,-29.4479746109386262276075,148.578550521615909474349
46.7274999999999991473487,-1.05517885214678130978427,-1.2930370627218581436324,-0.170858173094968701644092,-0.0303860353927022930342616,0.0331738189430580768246593,-0.0133340380053110687391671,0.00669136050353870068252427,-0.0026246281629687261312267,0.0655983314846621951010874,0.99782011508090717732955,-0.0283554399170988236100754,0.0113104984962140164839184,9.6798965999421575645556,-0.012688703582628385602149,-0.0211342200720667366953265,-0.000576745438104774607417091,7.73705211895349620476736,4.28374815717392198877178,2.03421610991565460224706,1111.34518728433545220469,1132.0128660627431145258,1116.40440625777841887611,1115.51088954247552464949,-499.353281158318281995889,100.63285150062564810014,458.505097308527240329568,-50.463814522819681940291,148.574429934041518208687
46.7300000000000039790393,-1.17447524205035414013309,-1.3665426541644585256563,-0.412964998721179032958872,-0.0336478347147755804669167,0.0298050445489717562297383,-0.0151740961229577756702591,0.00664480046519157641765618,-0.00259960985458044645940445,0.0655690108340452604274162,0.997822420380486851954061,-0.0305171890101910217585335,0.0101259305126501428229169,9.67784178232567526833918,-0.0128669256730650216624667,-0.0213907654939639382818406,-0.000888051145710915174925904,7.73702934223655436341005,4.2836935675626879316269,2.03421472462107066903059,1110.30139795403829339193,1132.26469423398521030322,1117.84043971983851406549,1115.36581984670965539408,-364.132379009374915312947,122.167957536231625681467,690.891397499273239191098,-68.4702151189517138618612,148.570986784001121350229
46.7325000000000017053026,-1.22688897634347870990723,-1.38846171784838001705964,-0.602763071343732859119768,-0.0368028502143450328421004,0.0267192184673243279813271,-0.0173058687032162927810219,0.00658843601910647554825706,-0.00258136916848341647912068,0.0655412089436909206519033,0.997824669508486028490779,-0.0325668675415994313127044,0.00888065069768116666093505,9.67577936422365603164053,-0.0130513133076106957464191,-0.0216476622387352414522699,-0.00120957745536796239596566,7.73700661386194532553873,4.28363785312149314421504,2.03421278611829681182144,1109.5245253892876462487,1132.6237058504245851509,1119.85886324527655233396,1115.1685384668805909314,-277.44126981990797276012,190.651937355360729497988,965.918207150312696285255,-91.084489614778320287769,148.567536534275973281183
46.7349999999999994315658,-1.19257525249716245241416,-1.38016686882747174891506,-0.760261426314841171070213,-0.0407140656268635409142931,0.0232999179663046437904761,-0.019817069582755628132098,0.00652680561353531554086294,-0.00257292261485360558570523,0.0655171274416831705966757,0.997826679619134959686733,-0.0344254520567475047476691,0.00765362419479022337842622,9.67375009536710983581997,-0.0132412834812325620054141,-0.021902558356325770028139,-0.00154128295575220084466517,7.73698339636368448424264,4.28358038305103239196114,2.0342101107978773910645,1108.91419160494001516781,1133.21795392076114694646,1122.67003075558568525594,1114.910397398636177968,-180.692613211156981378736,243.007691295827783051209,1048.42083618747005857585,-87.7319871056903650696768,148.563391165164858875869
46.7375000000000042632564,-1.07303885423422840084129,-1.35806527319745473647572,-0.835364169118411603598418,-0.0439935084520833089016811,0.0206599459797721443643503,-0.0218790660542984190251037,0.00646532256564645146229564,-0.00257615184744096510638389,0.0654968967659525225233352,0.997828401836047707007538,-0.0360375116655669847087751,0.00653530604950915139372825,9.67179618193392798275454,-0.0134358063259807630068776,-0.0221530232992504412525836,-0.00188284995736865139355498,7.73695908689421418813481,4.2835208495921079929758,2.03420686623402513504288,1108.62106232323139920481,1133.83874430690434564895,1125.10096742621658449934,1114.72987853135191471665,-93.6711606198035156012338,261.000772379159741376498,935.978186356463538686512,-49.5195239407368248407693,148.559934864251374619926
46.7400000000000019895197,-0.854999825283572323364467,-1.32742547719664916172633,-0.860214578127563300746772,-0.0470093991569472194336221,0.0179382548990107901221158,-0.0239625776509155563598341,0.00640607849686738398814478,-0.00258863333089678080214946,0.065476948133909834703914,0.997830062714695209535876,-0.0374377109685315387355153,0.00555096406509547612984079,9.66996067876446829814086,-0.0136333923892116969794897,-0.0223967591099431505285988,-0.00223392793385204097011965,7.73693330465020157049594,4.28345909109461864261448,2.0342026745566954559763,1108.4458358018407579948,1134.5229577826576132793,1127.34992168737039719417,1114.66279977893236718955,-74.7039555169291844549662,288.536450900609054315282,895.413408154213698253443,12.5878147343542767799818,148.55647967190276403926
46.7424999999999997157829,-0.48836191774348886029955,-1.27773479460139394170426,-0.84355093705777806079027,-0.0501007982167946397389358,0.01413266150862849644676,-0.0262855878389683800255838,0.00635009458158943863870238,-0.00260613306441309254199434,0.0654535377593547379460048,0.997831912394261943966001,-0.0386998280185043008749801,0.00470209751693228400482027,9.66828652765479468200738,-0.0138324050525737551192718,-0.0226317145200018235429162,-0.00259396914509014498220751,7.73690566359774400950755,4.28339531873998424771344,2.03419733711036743173395,1108.24754254564709299302,1135.2814265614060786902,1129.57803446698358129652,1114.79281760502362885745,-83.4595032400406608985577,243.234787096428817676497,712.66623466714247570053,89.3277985995512864292323,148.552338409265132668224
46.7449999999999974420462,-0.113734145639595954357937,-1.22048496976542830694257,-0.799075865374922589268181,-0.0520456618647511595754374,0.0104501214114078259248553,-0.0278512921030370057262626,0.00629854204208721204366617,-0.00262763224287148374619383,0.065427080838724671618678,0.997833918411689446692492,-0.0398381792829499842278906,0.00398518132143042824733215,9.66681587197776259756665,-0.0140314948571465848703443,-0.0228561590041594583921913,-0.00296206874728877122063264,7.73687670985368836085172,4.28333006428980223034841,2.0341908843741398627003,1108.02853828564093419118,1135.73913171813865119475,1130.91325286070286892937,1115.10943877192971740442,-104.362822933254662416402,117.656414917322592827986,412.09011800889874166387,169.096044679149486000824,148.548894332696903575197
46.7475000000000022737368,0.292908075029304271197361,-1.14715309766291362336688,-0.728333029922851427073738,-0.0527174281314781445484385,0.00681778509368515320265836,-0.0290871781729349597467316,0.00625325615424806441344785,-0.00265169123280210774357135,0.0653979432533408067129699,0.997836049347743281323631,-0.0408765165492203930153181,0.00340725642353650881588578,9.66558921186333819264291,-0.014229590405354710161423,-0.0230689444243586047611494,-0.00333705465533328925892276,7.73684713013798575076407,4.28326405241497809583961,2.0341834681559971542697,1107.72572843098055273003,1135.86970863599299264024,1131.63848505702912916604,1115.63829782841980886587,-147.76401194309698894358,-43.2472831055526256704979,183.140533935554202571439,269.229331475524816141842,148.545461086005701645263
46.75,0.749951620701133081503542,-1.05677650604351480723153,-0.609150594645377574387624,-0.0511162891224249682498026,0.00341058222669318907016578,-0.0306082870446191604441033,0.00621630662366857641987217,-0.00267654331211057217379534,0.0653660322887256173274295,0.997838304229357486718754,-0.0418461124423165214958331,0.00297909210440865102054175,9.66464480245661761159681,-0.0144259806665131221775633,-0.023269586196197924315987,-0.00371752577751406718814531,7.73681695646703992963467,4.28319763985335910660979,2.03417485745961323928555,1107.28971822592507123773,1135.52289530261077743489,1131.8289555303811084741,1116.45558542930803014315,-163.535329216859764756009,-217.829837229753906058249,-29.1259654218530386060593,314.713836066507326449937,148.541358350563086787588
46.7524999999999977262632,1.04968056278034316264325,-0.998578273297008323083901,-0.471920700861992781227627,-0.047809868476637852607869,0.00150571997436888481945727,-0.0321856787588475565242696,0.00618502464321247450579344,-0.00269860607108348251118035,0.0653312592331621172503375,0.997840716624631474118701,-0.0428200275583573847226759,0.00262293326334213372508231,9.6640183771208914009776,-0.0146203591911192760932625,-0.0234582140691270563115367,-0.00410215925259792019846872,7.73678615027562877060063,4.28313101355002956438511,2.03416488958264674025145,1106.90805178489699756028,1134.78055944984521374863,1131.49285522991999641818,1117.21186700875091446505,-144.446059929185821602005,-382.048707367889733177435,-213.371573210752075056007,296.524466308058606500708,148.537957586399187448478
46.7550000000000025579538,1.21010667004243410715958,-0.97813461444225902052807,-0.283708456109705409176058,-0.0428415284972361795623463,0.000243429228063131696804464,-0.0340627440210004989173953,0.00615534046156766389418236,-0.00271382038554283857439975,0.0652945531973177506479544,0.997843263252301326815541,-0.0438823024788174767540916,0.00223707215976052392614193,9.66374253038403274729262,-0.0148129021545676167054273,-0.0236355180270144162035795,-0.00448957427622363128977279,7.73675484449675643361388,4.28306413472053737478973,2.03415332170509088882682,1106.56748792627877264749,1133.61265176577035163064,1130.76209766432680225989,1117.93820776084908175108,-120.96671852276081438049,-518.856207398364972505078,-338.596325474245134046214,270.817800910479206777381,148.534580975624464826979
46.7575000000000002842171,1.23459455749751367825695,-0.994154312814816365495574,-0.0518926358685037128481987,-0.0372312002436480660172435,-0.000906335941030972521391396,-0.0358931318925830855626202,0.00612618107072995191769715,-0.00272483625946152475949535,0.0652578891959523232912943,0.997845813963207373120667,-0.044983047101471204665124,0.0017733171271892694820238,9.66384646360926957697757,-0.0150043497237741865757421,-0.0238027380750872492864989,-0.00487801138788934631612682,7.73672390036591561823798,4.28299678039944531349192,2.03413948639917041560921,1106.30321819228288404702,1132.18627841285206159228,1129.79987360254790473846,1118.565956013304003136,-78.6124529392314883580184,-599.739346690466618383653,-418.534819216091420912562,215.577644131658928472461,148.531228834963229701316
46.7599999999999980104803,1.10762310963885068915147,-1.04324570356496204581731,0.216100216271896183872769,-0.0324527636114310055748255,-0.00245933648755707274027871,-0.036839239581072415197216,0.00609611318966920851664115,-0.00273677408608204207965398,0.065225326116300136325421,0.997848098431093899485234,-0.0460237765289004466251477,0.00117929823512159803744481,9.66435589730863142676753,-0.0151959703971074333583857,-0.0239615988394262825755821,-0.005265740394406861861476,7.73669420195389889727267,4.28292896756082974718538,2.03412369564564210477897,1106.17442566158297267975,1130.61395503232074588595,1128.66942356824824855721,1119.01609598150639612868,-15.3960491563715002882873,-679.030361446228198474273,-510.044373773746997358103,152.215175928417352224642,148.52791219049564119814
46.7625000000000028421709,0.84063837030617971635138,-1.10666354462149563175899,0.533800638061641352649644,-0.029396771870095331213868,-0.00531281065078437371440589,-0.0357528238638595910470208,0.0060628654258084169192955,-0.00275445539449641410567615,0.0652006355736535064826498,0.997849871087265416491618,-0.0469107124582326395767495,0.000393866740565254613848367,9.66529291958679870333526,-0.0153892440064260279525277,-0.0241143828424559628076373,-0.00565131543005607545754332,7.73666595659819300578874,4.28286179787835319388023,2.03410679959827334073452,1106.22623794650098716374,1128.79112660561918346502,1127.2496517336778651952,1119.32703189294647927454,60.2864504588215694980136,-627.800629129930598537612,-513.934683090029352570127,79.0784568890608312585755,148.523981792156121173321
46.7650000000000005684342,0.582083776673971597936941,-1.13123763667122312348567,0.753871091750133559550306,-0.0290162556009991405570059,-0.00859039585628820594187527,-0.0330391027328032563237237,0.00602478224694578089193353,-0.00277689137596215298436908,0.0651823430143613213871845,0.997851239566110992385006,-0.0476586174962586456294034,-0.000617419199477140662191132,9.66667561065705172040907,-0.0155852946874575157970577,-0.0242640472763775184861235,-0.00603373935518920941067922,7.7366377805206250073411,4.28279593188620921750953,2.03408966065650487209382,1106.47585791387723475054,1127.47495188666948706668,1126.09975015279678700608,1119.41148826595190257649,150.401272500267083387371,-460.348522651802682048583,-435.660927722424901276099,6.1663488598752937974723,148.520754589529360600864
46.7674999999999982946974,0.347234446151744091668689,-1.09191213020429289670687,0.888314371955732928753946,-0.0296761583093428440993655,-0.0122999345051468984835186,-0.02959202116088612347089,0.00598078370493978443006577,-0.00280141400475097989211659,0.0651691439238892833429873,0.997852302038171212750228,-0.0483112709618039315451199,-0.00186703436253971011282715,9.66851826886086840318058,-0.015784989899541797958582,-0.0244138774520778131793541,-0.00641232497493394570237113,7.73660821444455670814477,4.2827315478682166371982,2.03407246309785660898228,1106.97824430900163861224,1126.4893839923622635979,1125.07134709506772196619,1119.35786363724582770374,285.676078497944502032624,-347.879562781603738130798,-410.191288413370102716726,-44.5528400668762856184912,148.517586134332844949313
46.770000000000003126388,0.131428670896138855006541,-0.948364961360352642927296,0.932994667153611567655958,-0.0306805390596714619433349,-0.0165129106671790225335794,-0.0256036116314212018607588,0.00593209444631411040443902,-0.00282639386393559663424035,0.0651609388496225266917961,0.997853061794195528300122,-0.0488869379303498302613562,-0.00331514115643782858455779,9.67083149435974931407145,-0.0159890101272187369618738,-0.024567204868729469041666,-0.00678642324957469053603454,7.73657694714060806262523,4.28266823354505277166027,2.03405491758079159936301,1107.90423830636768798286,1125.73555407276057849231,1124.04879371072888716299,1119.18872406561740717734,393.499064530286602803244,-209.202007795313249971514,-334.833545140019509744889,-73.4759761252086462945954,148.513862360060755918312
46.7725000000000008526513,0.0126208440704813490418346,-0.746968541506337735391696,0.878404236650906722339016,-0.0312729889462041721337471,-0.0194981208783745751933481,-0.0227595929941150909581182,0.00588270630264923957003509,-0.00284933526759464407496214,0.0651555650075866799042501,0.99785364305345469748687,-0.0494145366937241287130789,-0.00485875096545761858690682,9.67362207674639762444713,-0.0161977814614664220038698,-0.024727250347708375211031,-0.00715534248445647003133985,7.73654419119145142502703,4.28260561701888065044841,2.03403665635713126746964,1108.94573963165407803899,1125.44337395338516216725,1123.39717936936676778714,1118.99048375661959653371,464.259368052093350343057,-60.274315296974485534065,-220.674487839206165062933,-87.4740101037673127848393,148.510831829669115222714
46.7749999999999985789145,-0.0539003496892238032067723,-0.475708711330195321842496,0.750006985751968779929655,-0.0315763011599121540262658,-0.0216202479937178636271167,-0.0206705711827875858455084,0.00583635938742745573326598,-0.00286836285195911150011638,0.0651475750556836236127012,0.997854384761011625748495,-0.0499089630188349064887632,-0.00639258986289844427508555,9.67689315343067590902137,-0.0164115638713539582771439,-0.0248969018717535434115362,-0.00751838753963245901706935,7.73651080044716810135697,4.28254349882532547866276,2.03401803869011832404112,1110.22553514662604357,1125.4341824962759801565,1122.94542127153385990823,1118.75135401509896837524,596.633293384469993725361,43.4032934423845162541511,-161.338935974717287535896,-113.194355187384942951212,148.507884881778409180697
46.7775000000000034106051,-0.0969272908976644143042023,-0.103968664686041878386646,0.544274221950562964167375,-0.0317571467974071888762388,-0.0228589680709979266304277,-0.01898255713451797721536,0.0057951436985686360925385,-0.00288114672586391824468666,0.0651306250140750303545545,0.997855695834279909917086,-0.0503941374277789150282203,-0.00783551922487604746159207,9.68064399831207467173044,-0.016630607388475354690982,-0.0250784476983513492098776,-0.00787489483757569143362876,7.73647799019577675494475,4.28248134688010573256634,2.03399942403689282244272,1111.92890609857795425341,1125.66039042059719577082,1122.59048468949276866624,1118.42451198068238227279,631.253537342940830967564,111.327354406819154064578,-105.552897039743243112753,-125.231320750053384927014,148.504454075867073470363
46.7800000000000011368684,-0.120839633910789959192478,0.211907406212371252074433,0.35439390383450852795022,-0.0317069810533361848281508,-0.0225939131724820635449547,-0.0181446495447684270907462,0.00575857078669270681936521,-0.00288847108302528248965912,0.0651024279267088251677009,0.997857725920481386516769,-0.050836091099222616151998,-0.00915381426106878087756158,9.68486992621218334420519,-0.0168553854587296034206467,-0.0252732882319289080264024,-0.0082240710271179358337168,7.73644569369541201808715,4.28241845206592497419251,2.0339805673597819435372,1113.38180283334236264636,1125.99081926831036071235,1122.41765678633487368643,1118.12519741134838113794,561.671189150921804866812,152.539872929585300198596,-45.3201952220254682401901,-121.427809411280961171542,148.501689108438228004161
46.7824999999999988631316,-0.151689079942179616544706,0.494097022089711845893589,0.171256360434394266922808,-0.0313904748362651350723773,-0.0211347205470829996309945,-0.0178744318130831039703743,0.00572559209376432166199722,-0.00289546444686054416442489,0.0650633587290725540208669,0.997860441107044970898698,-0.0511171547975977913491619,-0.0103255671310465979573223,9.68956187693328629961798,-0.0170864231733537687285551,-0.0254819941838226420027791,-0.00856473489841767278429874,7.73641344793221374942505,4.28235443317089181647361,2.03396114195914545774713,1114.73726204433000930294,1126.42308978524442864,1122.36388371338284741796,1117.81737293362652962969,509.137357364364675049728,185.0847865193335337608,4.92609519583059363156963,-119.399624899126905575031,148.499028559088401379995
46.7850000000000036948222,-0.196937805173810459580253,0.722920869441406765965041,0.00936207174678972166292912,-0.0310734564857906188362069,-0.0189354958512112717117226,-0.0181185934548005328492692,0.00569691720180008718404929,-0.00290592560974969448678307,0.0650148559867219366648072,0.997863732089740884667606,-0.0511433348488394140529678,-0.0112906914288762247333686,9.69470557770440599654194,-0.0173240142676375080688089,-0.0257044626941930198782416,-0.00889527975175168073018739,7.73638161387099643206966,4.28228976806532557475293,2.03394154869670273910742,1115.92748962016548830434,1126.91624320090750188683,1122.4422872623140392534,1117.5281992868524412188,422.201342773553278675536,204.893084970521840659785,81.2518007814599485527651,-103.223043517293206150498,148.496459349016305395708
46.7875000000000014210855,-0.259647794359547490206097,0.866939247458434092408197,-0.114190419039578661131173,-0.0310499642867835094761642,-0.0160677980137211920408369,-0.0187628290234467601238499,0.00567296373346772193901888,-0.00292273625588600682520535,0.0649584304981969534731334,0.997867489746684266371801,-0.0508398138994746867647123,-0.0119930326604454351446805,9.70028123537665898368232,-0.0175680547461892870575451,-0.0259399699767023823870904,-0.00921368954308394473573518,7.73635039719309958172744,4.28222481339711347203547,2.03392173761753936034324,1116.84826875819885572128,1127.44755521009756193962,1122.77014271729035499447,1117.30125771603979956126,333.231261973545088039828,227.491241372788408625638,229.551414152528707290912,-75.0212541477367409470389,148.494005630570029552473
46.7899999999999991473487,-0.342730491008331472624349,0.93228369183669712594309,-0.211250980269376525955138,-0.0315683345868441253556647,-0.0123316138482632391137894,-0.0196605997314894705152444,0.00565114306964550547340842,-0.00294597118486786746158201,0.0648961543185863354299414,0.997871593645989318765999,-0.050192027537373423706768,-0.012432394590711118298465,9.70626318533107479424871,-0.0178178773770741559479003,-0.0261871088971433289838142,-0.00951767181802658755740421,7.73631910671873068707782,4.28215925255524965109544,2.03390051228967649876722,1117.59364593003169829899,1128.05369940777040937974,1123.59004433307563886046,1117.15309301611409864563,210.965076664325664523858,201.352008595392135248403,385.153281181131546873075,-26.7520503960303841495261,148.491201103633272850857
46.7925000000000039790393,-0.403418570002935406026978,0.903743162010571920994551,-0.250429941862362837046163,-0.0324785414981060491235176,-0.00942881064208159723472047,-0.0203848528865094337503283,0.00563023946891922852375778,-0.0029734831177015697001309,0.0648322815158493409581908,0.997875780325348737953561,-0.0492300576571707421136281,-0.0125821880607569214216568,9.71261962332978256995375,-0.0180722356161977723565393,-0.0264437983997385904488819,-0.00980442782974701512732629,7.73628669490713960499306,4.28209266128095134007481,2.03387681294134159415421,1117.90309414152102363005,1128.45431525307503761724,1124.69590912319699782529,1117.16749746405957921525,59.1444751939586552680339,118.156694180000641836159,525.627333453170990651415,41.2066563435262835923822,148.488984945213047694779
46.7950000000000017053026,-0.435100978686161765640605,0.810810620855995090039414,-0.251817167183210233183388,-0.0337005778345605480628144,-0.00695598760923628756797088,-0.0209867239181431124162014,0.00560825266396107989519404,-0.00300155269315120461562363,0.0647727498413437907665013,0.997879686477408434086556,-0.0480197432307518379257516,-0.0124337408862598697290025,9.7193128633507654967616,-0.0183293023102104150889868,-0.0267072860569001757635732,-0.0100709317840745066902075,7.73625243791168237805778,4.28202409937763928127197,2.0338498175183761240703,1117.88936830600164284988,1128.6444828786707148538,1126.21818100034283816058,1117.35912629783183547261,-77.6573489119779480915895,18.7350193513964171643238,728.595887555119247736002,129.955886192856240768378,148.486899099090123854694
46.7974999999999994315658,-0.418714189784452350817645,0.661999854346417171413464,-0.217947262877112413193004,-0.0352095653009756384688167,-0.00486664648989639306297939,-0.0215117810772947060105054,0.00558390707371501579525663,-0.00302726115269441294411412,0.0647221460805626064294316,0.997883030951090432836281,-0.0466153271744216557426199,-0.0119718194461678403839322,9.72629988541341106156324,-0.0185867119259783900031557,-0.0269743992932143274166013,-0.0103140985512327858220072,7.73621616413185986260714,4.28195254851756779146399,2.0338191699458323391525,1117.51480739696148702933,1128.54799034983193450898,1128.33888856096928066108,1117.81727689502326938964,-190.932359410810562394545,-89.0955473072152841496063,782.252135616827217745595,205.376499892312921247139,148.484551781227878564096
46.8000000000000042632564,-0.347574192763817235718449,0.536981969410790238583786,-0.165089564190972842849803,-0.036690046396958143903877,-0.00417002810619044889800522,-0.0218680542925120992292509,0.00555671547973467759573563,-0.00304849182133025290233896,0.0646821255715290810428542,0.997885716451085036382551,-0.0450596342313115752475916,-0.0111746162633866441549202,9.73353315205321223402279,-0.0188417162358167078473059,-0.0272418567153455241924842,-0.0105311902165572957024153,7.73617788935816097506404,4.28187747802782414652256,2.03378550242130806680052,1116.93470650894710161083,1128.19900514213441056199,1130.12944167842897513765,1118.38600879729392545414,-272.298669894777788158535,-174.579068043114432384755,661.499262420354966707237,258.424759470840058384056,148.482728792896153890979
46.8025000000000019895197,-0.208820970619723544903223,0.440279016418448521097417,-0.0905346635350104678163774,-0.0385055309532374573366909,-0.00437782111337250111338104,-0.022180706809632872583693,0.0055303521207834514805679,-0.00306299451295944215670208,0.0646510653385525546621437,0.997887834676109530818167,-0.0433980784884137882340127,-0.00994769744403271177768389,9.74096158619344976159482,-0.019091413457519967877829,-0.027506699841676526124834,-0.0107200472073978314568876,7.73613789129131390609473,4.28180031119376547366073,2.03375020001059958474343,1116.15331404748690147244,1127.67509500961591584201,1131.6463848730727477232,1119.10940069237813077052,-360.371985571974050799327,-223.566413291858737011353,545.325988474628843505343,334.899448645669394863944,148.481047612390739232069
46.8049999999999997157829,0.0268176787458186682844286,0.368861162946601872647534,0.0205398126748392827189971,-0.0404886589024200035935586,-0.00475085655553412079116216,-0.0224652183963998386406757,0.00550770080726392316505802,-0.00307144413412607482707917,0.0646276548474170736691136,0.997889452555104305986333,-0.0416254419813329862298801,-0.00822387722319290956352056,9.74853228281408590305546,-0.0193332471898171112667519,-0.0277663279159800976958472,-0.0108795223714762013395019,7.73609603989489968967064,4.28172251909563428284855,2.03371443083675540464128,1115.1328465810888701526,1127.08117307567613352148,1132.85607162079963927681,1120.06050604052074959327,-360.52004504336809986853,-169.935526246463211919036,314.456641169421743597923,343.324203777222749067732,148.479197911338758331112
46.8074999999999974420462,0.255937486797436164476238,0.336612239522156686533094,0.127468933140463508424389,-0.0412326082219958423014106,-0.00438851617568819258458079,-0.022572902501795676782903,0.0054879210461489316696948,-0.00307434769969387863483568,0.0646101718564885685314181,0.997890685323813864116005,-0.0397490204604210584093948,-0.00601670397877018814369876,9.75619206725838949978424,-0.0195651108519889829762128,-0.0280185498635870527950331,-0.0110098483568995767628573,7.73605241503937435254556,4.28164441146899488188637,2.03367927826843519767408,1114.3507138222717003373,1126.82541737838437256869,1133.21866807891842654499,1120.82602171126268331136,-266.338057033544998830621,-7.57705398518350037306845,1.26124550424655401670293,275.370208976569415426638,148.477798714229123788755
46.8100000000000022737368,0.468710169214608340926276,0.306075395554062934522221,0.241475811292690301090857,-0.0402470333009655248379666,-0.00328988296312727589859604,-0.0223738652512360074176012,0.00546774763381140810336589,-0.00307267645677894657776918,0.0645979744347464773790435,0.997891590624132907016985,-0.0377739941784590305129399,-0.00339596559800703703957403,9.76388911307724782773221,-0.0197856350662148905428239,-0.0282615028313074161114837,-0.0111124743605856262512743,7.73600756114524745754579,4.28156606167803044371567,2.03364578198222778482318,1113.80115629592046389007,1127.04328780575019663956,1132.8623778483208752732,1121.43735708540430096036,-162.772596178145647627389,186.571859238661147628591,-252.375207497023467340114,201.873149681874963334849,148.476549727986366633559
46.8125,0.623493890898129232702729,0.255587275877820541136742,0.352231483032356462725687,-0.0377230430371003830347654,-0.0018794549814742319854971,-0.021942489886237370733113,0.0054453613156265892256136,-0.00307018374178564179208251,0.0645909717383053305628238,0.997892173443219010486871,-0.0356523093599593887681465,-0.000415133661984083690565939,9.771574290952807828603,-0.0199943466899857626162262,-0.0284936674997584848956222,-0.0111895362576128112180873,7.73596287131708848505696,4.28148778057775381000738,2.03361433418405512796312,1113.53685084138055572112,1127.75827667457815550733,1131.95679204143266360916,1121.8353874596725745505,-26.3963527615727748809604,408.026176271740041556768,-466.52706385695319113438,93.4746002470942300988099,148.475426989541915645532
46.8149999999999977262632,0.664693838579751727912992,0.163253085500670663821055,0.444065738750764160691631,-0.0342379756980194724369504,-0.000380968453909437247163761,-0.0212530149267888546216199,0.00541950328990534104661725,-0.00307105355374093485359976,0.0645834790789484164408307,0.997892795730937032239183,-0.0333282255639542196457015,0.00287422591173265573605278,9.77920225751425142846074,-0.0201912535510360841017885,-0.0287140081649640520333744,-0.0112436699983771894867379,7.7359193468037439345153,4.28140956383827475661974,2.03358497206478805452434,1113.6691745321127200441,1129.08341868710704147816,1130.52974252903823071392,1121.90473008663934706419,146.732337029304716224942,695.709783258879383538442,-697.147713728288977108605,-51.4323113654164174590733,148.47445822741659071653
46.8175000000000025579538,0.558193174046315077063696,-0.00161579543177496620653955,0.507843678869755565941091,-0.030442461303224165047876,0.000851467261326259959586249,-0.0198973869985988247033326,0.00538921208117538672044411,-0.00307664643831629530668081,0.0645693376372641070215508,0.997893857036430409479522,-0.030801532292807496521414,0.00642242842238029132406751,9.78673218055934057701961,-0.0203768823616386693386993,-0.0289216849677413935515435,-0.0112778014426351581855901,7.73587702354467232623847,4.28133147265299296435614,2.03355751972077003486561,1114.27051252652745461091,1131.23682559087433219247,1128.47105347278943554556,1121.57822590284536090621,281.357543569076142375707,844.669343332111452582467,-769.51651208661780856346,-181.733765865008336959363,148.473475592255994115476
46.8200000000000002842171,0.346879324383718490310002,-0.175296972912541787481544,0.50235133835173328975543,-0.0282522878517996491043451,0.00119111745161731949656236,-0.0181572094982740024626811,0.0053516246097618800151019,-0.00308326864101486023544973,0.0645467341557111606853425,0.997895500338281560281928,-0.028173432410167127681877,0.0101423792892349762251314,9.79412832885113182612713,-0.0205522563114853423771322,-0.0291157305593659383735616,-0.0112950379765306748586218,7.73583563828040876586556,4.28125326376343551260106,2.03353184553941934709087,1115.07596224995882039366,1133.30676540376975935942,1126.68215996860317318351,1120.99606125731384054234,362.396137643338420275541,828.984645556719442538451,-680.132288593931775722012,-278.048865386543241129402,148.472807724871756818175
46.8224999999999980104803,0.0400834801987985100968359,-0.364853238451126826724646,0.416567114910976310504509,-0.0276289186748130757842468,0.000893544840434689095418075,-0.0158698846354449543682996,0.00530505375602144824825901,-0.00308812972792091820772864,0.0645167274041696658937184,0.997897673643686866640223,-0.0255256505218091726827634,0.0139623763101930364882719,9.80136004429550666827708,-0.0207187236250730259790043,-0.0292951028229795837343197,-0.0112979760345721241820982,7.73579480624168169811128,4.28117469648151782735113,2.03350712446426085122653,1116.08249321474249882158,1135.38174881865415954962,1125.07039202982286951737,1120.18798157591390918242,461.84141915709022896408,852.979216501871860600659,-619.58711960601385726477,-376.034229055847845302196,148.472297581284408352076
46.8250000000000028421709,-0.388529526524254764652255,-0.575867864775197246807181,0.216569275821036882900827,-0.0288683545274213727849233,-0.000220605958377796982717092,-0.0130247434115666124720967,0.0052509274359562735368101,-0.00309235529193039974937829,0.0644802420929601466381698,0.99790030461880074863501,-0.0228583684792822705578175,0.0178605647633463329726489,9.80840114679000585340418,-0.0208776709396376602967393,-0.029458818100189628624852,-0.0112882586292580040093769,7.73575472255419516187658,4.28109567555067460631335,2.03348206806823839087883,1117.38516934574545302894,1137.57166148628130031284,1123.58422437057151910267,1119.11589011203363952518,478.537148076548703556909,719.283551800067812109774,-446.729048147197943308129,-385.623812757633515957423,148.471868515699469526226
46.8275000000000005684342,-0.762952102066924098267009,-0.708627885198568452373991,-0.0143335991369614914464625,-0.0310599458370217941516334,-0.00188040371520677737464389,-0.0114067267917324077775021,0.00519379123177505976766133,-0.00309665196505956802699999,0.0644386250868575760630819,0.997903278914447078307148,-0.0201746547790352635798339,0.0218712617272462453432702,9.81522909317176583954279,-0.0210302949016135491688839,-0.0296059321704503775052331,-0.0112666732379474755776361,7.73571514504127222267016,4.28101665937938324901779,2.03345641459222559177533,1118.47517895512646646239,1138.97816657765633863164,1122.8367467890857369639,1118.2598625121247550851,429.813922611292412057082,453.467217945493246133992,-186.698379096093674434087,-309.605396303149632331042,148.471663843651384695477
46.8299999999999982946974,-1.12839217489176713016263,-0.76124416761092628114227,-0.267488433277102199969733,-0.0335926790174945269495943,-0.00438505073693100117654398,-0.0116897714564175164708715,0.00513830629562181655928255,-0.00310155876264728248489777,0.0643933521332421821004033,0.997906474114911179462695,-0.0174793499577392437427381,0.0260265688422848667782361,9.82182443254294312851016,-0.0211774416011519146796349,-0.0297354607067062022551784,-0.0112333872771360806369634,7.73567542910530736577357,4.28093794386355686043544,2.03343009839832467022802,1119.53423895879996052827,1139.83899757600670454849,1122.65073247509189968696,1117.56786313051929937501,464.212665465846725965093,249.713232825942696990751,39.9813257452729047258799,-249.082812753576860131943,148.471617785989110416267
46.832500000000003126388,-1.53693336560524618228385,-0.700117755919269502129509,-0.530805489342886183123937,-0.0369804922775686800706652,-0.00811515105135286393678307,-0.0142116528813493979421789,0.00508359310733248921654326,-0.00310707221801344085285179,0.0643446060625004617739009,0.997909881245971575047804,-0.0147937695217515881307424,0.0302465057290950828372544,9.82817070209391019375289,-0.021319418381397545192435,-0.0298462456750358123835909,-0.0111884255425869390265792,7.73563509964337647772936,4.28085924009293350422922,2.03340283021543521968511,1120.79624228245688755123,1140.22673274178669089451,1123.03665341781220377015,1117.01444844835623371182,470.659806324724968362716,44.3139623487923657307874,230.065329120607742652282,-154.54497609472406338682,148.471744997480698202708
46.8350000000000008526513,-1.83720743517434459413096,-0.537280659672448757113727,-0.675872314212855762605159,-0.0406986646108854072112493,-0.0111544488149921336428427,-0.0171945003102845390963171,0.00502580290212025805607343,-0.00311246141488932337795803,0.0642946891292543870610743,0.997913372615892635408841,-0.0121562741542230040581174,0.0343903663679403087671815,9.83425358892985634895467,-0.0214561964434222332553936,-0.0299368084945459481116536,-0.0111316645227403192286442,7.73559347267999619646162,4.28077939311519539700157,2.03337456551200812526758,1121.88753799042478931369,1140.06056738775077974424,1123.80105912069552687171,1116.7951382500452837121,456.142667868704052125395,-149.643502203843723918908,382.68889971780726000361,-47.5807500235055869097778,148.472001821574991708985
46.8374999999999985789145,-2.07232357633266683905049,-0.272436210240866616416611,-0.718120485121565010899758,-0.0456188146180446021937804,-0.0130385510278137536910315,-0.0201585559893817621579526,0.00495970807394090652114871,-0.00311567000599923113121625,0.0642472145284315454549784,0.997916747632276779356175,-0.00963221278261303798240434,0.0382894512111689178102125,9.84006023504383620092995,-0.0215874533052696181145702,-0.0300054477602841804251277,-0.0110629143507206383761909,7.73555035331831852829509,4.2806981375497379360695,2.03334608345562273257201,1123.07695562179833359551,1139.47851523076815283275,1124.9500979163994998089,1116.77654469823892213753,497.11844808127386841079,-287.431493018983303500136,515.965546358447454622365,11.6717120862571714923206,148.472412976616226387705
46.8400000000000034106051,-2.23532451026699829910172,0.0505805455519644855955086,-0.673950555452885402551999,-0.0514262257738102579462947,-0.013544508224780619706773,-0.0228490835647537360308945,0.00488314370091800283718575,-0.00311543469929908677790165,0.0642035213583643238344223,0.997919934497162541831017,-0.00726706400796503851347019,0.0418326749709690554057673,9.8455781432696589661191,-0.0217125846578063649849888,-0.0300506153257447915227996,-0.0109816667727313018593227,7.73550603104364320472541,4.28061523883707018001132,2.03331774911199136823825,1124.37313023083243024303,1138.62340992265512795711,1126.38088685248908404901,1116.85349681047659942124,543.622079176652050591656,-392.512963693597328074247,634.03705249506253949221,35.1184861624280912906215,148.472949926393795294643
46.8425000000000011368684,-2.29649304119432384752031,0.40336084229496499409251,-0.541782219393658337480701,-0.0579316713391237331221006,-0.0122202306075332774865094,-0.0249694336763054865191425,0.0047984378588991107028594,-0.00311098528930472311218591,0.0641656536151177236959597,0.997922791252467966671702,-0.00509046382544862605068481,0.044996882913318519969792,9.85079455616643606674643,-0.0218310484433134853465841,-0.0300710026009337570707114,-0.0108870536564638787507819,7.73546144109794653331846,4.28053059012450898279667,2.03328951812247149533164,1125.79506601768298423849,1137.51595041229916205339,1128.1202831788764342491,1116.95213712905115244212,643.522244430908813228598,-527.599002134527495400107,824.194655346695299158455,30.5332868075134093999168,148.47363527258738713499
46.8449999999999988631316,-2.25067208633420534624747,0.815636599846264243041105,-0.318378780130230021327975,-0.0653976747088744342351063,-0.00901697784342301786320029,-0.0265343236294253992380021,0.004706253282983258005856,-0.00309940570689449558516859,0.0641363573025991728915329,0.997925144789671758616123,-0.00317579583200484558136445,0.0477310112887683185567411,9.85569734515930306884002,-0.0219423967342331389940302,-0.0300656389301474404052161,-0.0107783592690620308451876,7.73541685030566128489227,4.28044385292125983966116,2.03326089430996237439331,1127.59074145298404800997,1135.98541491198488984082,1130.50186012921881228976,1117.00616324451402761042,656.630733144339160389791,-581.269094072397820127662,905.02296571748127007595,3.99600543059728119388296,148.474624157046605432697
46.8475000000000036948222,-2.12523600028748393953038,1.13083950383471343315023,-0.111797459598281245796159,-0.0709064761542501642566094,-0.0058647976152829198182026,-0.026824411374220914067168,0.00460707566787049022094536,-0.00308080673221657963881115,0.064115471913212832011375,0.997926999919101054281612,-0.00153668236489511167430777,0.0499806517007164996524438,9.8602748981367636105233,-0.022046202489180717620787,-0.0300343588044712055118435,-0.0106547930078877261389492,7.73537189894503285358951,4.28035503264512140475517,2.03323091169269609679304,1129.07821968340635976347,1134.60960494193568592891,1132.64539800746615583193,1116.9721171562041490688,563.012994237381690254551,-552.850889225864193576854,858.43299759682588501164,-26.063886222014243543299,148.475582635642155082678
46.8500000000000014210855,-1.93256364183178863669355,1.41140390664852688473729,0.0758546461631067342468171,-0.0757970398418137958351792,-0.00281547353365298571106767,-0.0260547320905600426899085,0.00449930617139046064301144,-0.00305646140295334853981268,0.0641026504839151828329946,0.997928380257860236923761,-0.000165534819956045936573119,0.0516551305400046872895459,9.86451692626738996239055,-0.0221422036980811684503401,-0.0299779549268936393313645,-0.0105158580151645461575605,7.73532670673349898038396,4.28026495909481585755429,2.03319925098738751856331,1130.40580642417239687347,1133.22116046585415460868,1134.79402511720513757609,1116.87584381340388972603,502.016673624395480146632,-590.001238521781488088891,901.052387519167496066075,-42.6323705737946809790628,148.476674760675507513952
46.8524999999999991473487,-1.65449925335038772189478,1.71103189664736232700193,0.243662601498737391159111,-0.0809894646534016354744168,0.000942479533882422185198102,-0.0243804925835136160339189,0.00438308808783177163148626,-0.00302586872325635684866096,0.0640956353898995412343709,0.997929430468246780883135,0.000913749521997197361455889,0.0527087431385368232472644,9.86841462390735024712285,-0.0222301731957775285108969,-0.0298985926876774374405521,-0.0103614952421764629914014,7.73528141405966085386581,4.28017490937627442804114,2.03316650072701454732282,1131.5883030515260543325,1131.65959874932946149784,1137.15065994505789603863,1116.75895530333536953549,329.858545507081032610586,-537.685831235373825620627,795.644429282449436868774,-29.3701369817731396949512,148.478132104050274620022
46.8550000000000039790393,-1.40717780735401198910495,1.92777355795389726544897,0.322502827013689874480207,-0.0845064287399458630156701,0.00460953217388900948064956,-0.022826529795932623545518,0.00425954783812372214657493,-0.00298544733892428448482348,0.0640897373706735551390778,0.997930457108988866465893,0.00161943927770243426000896,0.0531297333886492362253762,9.87196170408876128021802,-0.022309874410904817487733,-0.0297999264354767839924065,-0.0101924375541484098228739,7.73523546018625651754519,4.28008612151515244192979,2.03313412529424475394535,1132.05509915170864587708,1130.53273130967590986984,1138.77224726361941975483,1116.72899312849494890543,43.3673109041825313170193,-396.764554846847033786617,550.837558594448751136952,19.7066360715224746513741,148.479462650005274326759
46.8575000000000017053026,-1.17071986997962107501792,2.09742784282019023578414,0.338133103433390092007471,-0.0871065779313407173578554,0.00926194482308446802309998,-0.0215268379095838076342506,0.0041314054624612432317643,-0.00293389080008143966413203,0.0640804247821325223544164,0.997931743340328303304432,0.00191899881118022183623673,0.0529475688594815419030226,9.87515504049767400829296,-0.0223813528303392662854865,-0.0296869089311284396759394,-0.0100100700447285136801545,7.73518839917003031558806,4.27999981289004338691484,2.03310336369148769719573,1131.8051396060470779048,1129.67577597509421138966,1139.90484773803154894267,1116.85748848369303232175,-294.421728532410668321972,-301.233030435561204285477,374.119995324212254672602,113.819980006259186211537,148.480905535121848970448
46.8599999999999994315658,-0.924489818687523445817078,2.22315326762068909971504,0.298542485586462791324891,-0.0892677740387283757961256,0.0157859352523586279892776,-0.0204560504030463843894161,0.00400476010851970060794303,-0.00287318591781909578666832,0.0640681450008176861521392,0.997933227377692522175323,0.00185260908319530639976058,0.0522684193896767734788256,9.87799524615484969558565,-0.0224452993073562291626022,-0.0295653439984377014448924,-0.00981621148807737195496337,7.73514039328815439233722,4.27991638953184061477941,2.03307449207473744934305,1130.5829905090479314822,1129.02656615749947377481,1140.64284724023877970467,1117.29809302852572727716,-592.737360583229587973619,-170.632209841100149105841,172.035270311383300168018,223.721450022525601752932,148.482756480643587337909
46.8625000000000042632564,-0.760814601413092539416994,2.2467923249675409991255,0.232069995452696659077318,-0.0905079284522239541077582,0.0215736809273600164960083,-0.0199479694634042414858044,0.00388436466734094938690891,-0.00280809361244618903644121,0.0640528717083281157185226,0.997934876262501768806601,0.0015171669525382291965343,0.0511834991004500305944447,9.88048834063508429892408,-0.0225027655661871536785235,-0.0294416459930001150890888,-0.00961324873116841532860732,7.73509182370318892907335,4.27983631254784846476014,2.03304770498058084982063,1128.84145280312941395096,1128.82261492588827422878,1140.76502408958890555368,1117.97609573380623260164,-807.361878798834254666872,-12.9911340841251270461498,-35.5935680032689347740416,349.390671442646123523446,148.484390308807945757508
46.8650000000000019895197,-0.640186963886913651400334,2.17310682866886084596558,0.148723109267807906963554,-0.0915695660692259633117729,0.027444504162280780601435,-0.0197360621782289753778361,0.00377267359556086000205166,-0.00274451267210410127309062,0.0640331852182384753113809,0.997936753765582329478434,0.00103329319684673098800332,0.0497524694576584047833734,9.88264654889304061669009,-0.0225550946441888111593244,-0.0293224117360745238636266,-0.00940403407366266139155719,7.73504309603746786905276,4.27976018000681257547058,2.03302321938377827947875,1126.54618111505169508746,1128.96161048707881491282,1140.46487940022234397475,1119.04504638573985175753,-963.778296679505501742824,106.699384392147024414044,-171.089268468877975237774,496.26107767448615959438,148.48610846646437266827
46.8674999999999997157829,-0.546527421291841508654841,2.01546831244118784809416,0.0624650242054914928147014,-0.0927448171364098489233285,0.0331270008439806251665516,-0.0196900526676072572251908,0.00366976413454273659928151,-0.00268544310709700273856471,0.0640083492366586154220798,0.997938898253426076578876,0.000466212230040220082516456,0.0480063542791263342390806,9.88448866020741512272707,-0.0226039238835430769669621,-0.0292138140422643285964988,-0.00919179975707977089949274,7.73499456270972363114424,4.2796880330441737783076,2.03300111737058220029439,1124.02256131973626906984,1129.35611184784852412122,1139.90957774724529372179,1120.45740112217640671588,-998.829433099352968383755,206.788967330482392981139,-257.723131944801707504666,639.783857600823239408783,148.487888167582099185893
46.8699999999999974420462,-0.468626884576636260071325,1.76227036539793990854719,-0.0173298065080481761279785,-0.0941796817834992944229455,0.0381434793208955749688194,-0.0197769583092606907048783,0.00357412011338382974365291,-0.00262934899370597264384175,0.0639776000938513944582553,0.997941369017195656354602,-0.000205422031809881361352765,0.045963652318087411252634,9.88603971957651772584086,-0.0226510189804601108631843,-0.0291211043867126775919196,-0.00897990898553540847770726,7.73494644417533550040389,4.27961887684828834466089,2.03298091751417997485873,1121.55203394955947260314,1129.99555532373028654547,1139.17626374049950754852,1122.2439656737410587084,-992.263120508816314213618,316.280366216889945008006,-330.927508898152041183494,844.486053936293501465116,148.489731622588237769378
46.8725000000000022737368,-0.372345819275350098376265,1.36691600862974205199407,-0.0960351037609644131443076,-0.0960309661241370987605492,0.0432873323006096252796304,-0.0199927795743795183591729,0.00348108755807107145621715,-0.00257244657842968385899618,0.0639430408861362126193839,0.997944059700233365717281,-0.00104606073438366642402997,0.0435949142205882128608962,9.88733052619958030504677,-0.0226983581980330743899099,-0.0290479856988705015252705,-0.0087716179920416699478114,7.73489888699854244435983,4.27955073036996669344489,2.03296206180274730002111,1119.06124571718964944012,1130.93751367893378301233,1138.25494020275368711737,1124.67983139186003427312,-784.880959292930583615089,357.245819362878194169753,-324.324549539157999333838,911.132948758393013122259,148.492004322559751017252
46.875,-0.279980419586134121612275,0.982580619063527671563918,-0.141653496600388506543311,-0.0973880522167781675912934,0.0467281755244116844827396,-0.0202575093005729171824481,0.00338537091499272781158769,-0.00251357088122566808482961,0.0639098417511080735264883,0.997946663408810996642728,-0.00206423301694447225429485,0.0408632504967761794878456,9.88839603676501255336007,-0.0227481057530342402339674,-0.0289963897293025532619914,-0.00856956138584173167382918,7.73485159363752305949902,4.27948174530670399917653,2.03294353077807121721321,1117.62762915309281197551,1131.78178442054559127428,1137.55464099280288792215,1126.79963041753535435419,-402.741468595607102542999,331.259732796007710931008,-250.805986484557081439561,824.813167387196585877973,148.493939517853334564279
46.8774999999999977262632,-0.172709557358074250466018,0.576311035233387114473658,-0.159869327173674441455731,-0.0982049304910688203307245,0.048888810196874056546168,-0.0206019296391417583436123,0.00328407879190938545993506,-0.0024551202642416058985475,0.0638855814700547003370801,0.997948699693852914194281,-0.0031905166692162180430703,0.0377803754208094477728963,9.88927363129244163530984,-0.0228025006265426335994029,-0.0289665731978128587753574,-0.00837548498129602088380086,7.73480471029147853556651,4.2794104513078687901384,2.03292445400336507788097,1117.04753837421344542236,1132.59381234291231521638,1137.00091027033204227337,1128.8038972287922661053,-46.8550395774160648443285,333.298410850431992002996,-207.42973587169518623341,810.473771146002150089771,148.495907091305241465307
46.8800000000000025579538,-0.0330996342989850894644732,0.113875511442267152162344,-0.141913677666619053585606,-0.0984922801130826142124164,0.0498673649703190446924594,-0.0210526728591032760706803,0.00317573603199442725669721,-0.00239667637060954124769707,0.0638719874655863245616061,0.997950063526606423458531,-0.0044059933232464230934422,0.0343920980071430459901194,9.89000206509734880455653,-0.0228632198450104649756209,-0.0289577305912949237165499,-0.00819065133218751725840967,7.73475814471239342395847,4.27933665429199106000624,2.03290527025730138888093,1117.39335395520561178273,1133.44827647479860388557,1136.51749231344388135767,1130.85199927326743818412,287.421565948569252668676,285.345849811655625671847,-154.667057555719111405779,667.52898474658150007599,148.498294073411983617916
46.8825000000000002842171,0.0857040501104864849146736,-0.211324884002840468477658,-0.087733492061715323551141,-0.0982532531995402580449195,0.049376970328755626082895,-0.0214083082808234625993293,0.00306248707130041264434794,-0.00233934074719619215440569,0.063865190974177130089906,0.997950991225488803770816,-0.00565455972655844879559695,0.0308133877493616120668563,9.89061947631096316513322,-0.0229314374861884009981772,-0.0289683765321167678574721,-0.00801562613980376890976398,7.73471218836341734004236,4.27926105106456855509123,2.03288715086403382059643,1118.48464620395702695532,1134.02054159197132321424,1136.22757498255305108614,1132.14154215252688118198,566.371241387665918409766,194.557033356972681303887,-106.671824759638795399042,415.810477629080025963049,148.500296778781461171093
46.8849999999999980104803,0.200910623628239221050151,-0.430713651251856177726296,0.0136592835044258599508371,-0.0975732400192162452334799,0.0476240021504113208994369,-0.0218188111040562432441092,0.00294693581073619294274923,-0.00228314862903687687545329,0.0638622687020303364535678,0.997951660176622068476604,-0.00689842291720890385398057,0.0271666425239007747194364,9.8911622815490876092781,-0.023008097378864039023183,-0.0289963293047148587544548,-0.00785057069194211934459737,7.73466705682350852413265,4.27918441953815253953053,2.03287091702239930413043,1120.22521016214136579947,1134.42106164158258252428,1135.9841331896461724682,1132.93105166141094741761,854.14134530239562081988,133.283361917460780432521,-110.075684492119833635115,236.765788017616443994484,148.502304435601104160014
46.8875000000000028421709,0.333316412366143510759287,-0.535832649666062810211997,0.193132109905164384144882,-0.0964211943690379547078351,0.0443206319231431583594016,-0.0224111269764942430682275,0.00283038976967124340095028,-0.0022268441224397761586673,0.063859752095366761892592,0.997952290465647928741078,-0.0081260462342621977982482,0.0235449327507507299994671,9.89166365304278727421661,-0.0230937184626839459022918,-0.0290389868052963011357814,-0.00769521242480929353046992,7.7346225450928853817345,4.27910691935498288529516,2.03285659938106055832918,1122.75535293047119012044,1134.68695840155896803481,1135.67719656009217032988,1133.32537109261556906858,950.842097818181287038897,59.9092067616914434324826,-118.906758736723631386667,67.1447316165651812980286,148.504709338031887000398
46.8900000000000005684342,0.442187125227915700520498,-0.483293531666215858688673,0.38575507279442944330583,-0.095440498271275528430202,0.0410603817148947544679594,-0.0228100223464960012720315,0.00271325788738156119597744,-0.00217135752264524702070947,0.0638558854155042432410028,0.997952990253653249297372,-0.00928418391436129815386114,0.0200135511855774467226965,9.89215162710932816025888,-0.023188460539994980302847,-0.0290933919485168168694855,-0.00754846524593288763227417,7.73457867105759433457024,4.27902809131273897946812,2.03284335388753856221911,1124.97942065123470456456,1134.72060767539119296998,1135.38959939596225012792,1133.26677531949394506228,857.524256890344531711889,-27.20195665122191996943,-117.744253298785906736157,-79.1980849515122855564186,148.506702916169189165885
46.8924999999999982946974,0.556858864725334523626543,-0.305361107096798145565941,0.602002650110370685077044,-0.0946682323545396803288199,0.0384739670504952308016655,-0.0225834855586645906477816,0.00259501572429611960385332,-0.00211568525842843876624833,0.0638509489488898185349797,0.997953744317111257622344,-0.0103607006626010595545795,0.0166130404112061480503826,9.89264758013966094551961,-0.0232919726811294629242877,-0.0291563888348440811149054,-0.00740845438624857226955767,7.73453493188796059598644,4.27894795039259268065734,2.0328297928670937544382,1127.04297421491901332047,1134.55094861830298214045,1135.08847529359877626121,1132.92938066785836781492,766.791143636572655850614,-101.672579616518135026126,-115.029620120626802304287,-162.116060201113953098684,148.508677739558720531932
46.895000000000003126388,0.67992506984125633540117,-0.0617289796103598284449099,0.809292493115359223843086,-0.0940448779335099765974704,0.0374107324824227219228767,-0.0212557990312135618171663,0.00247863376983408368464668,-0.00206121270028293340423331,0.0638447139982912109656965,0.997954555229572215502287,-0.0112952049265449133708117,0.013440067137181828382797,9.89316433565422492790731,-0.0234032482045278406035393,-0.0292249754747653661679507,-0.00727206872641457478106952,7.73449090616112044926922,4.27886731375006323929711,2.03281458502410927735582,1128.8133763694195295102,1134.21224477730834223621,1134.81445129535882188065,1132.45619501848796062404,616.095666059485211007996,-173.131713038267321280728,-92.3971565407992159180139,-202.809053098131613523947,148.510631461438748601722
46.8975000000000008526513,0.807893779900862307741249,0.198218321214265635887841,0.961711472761731744895997,-0.0931615284021169165473708,0.0385467215660747763994465,-0.0182641310913221437128851,0.00236701170769153214010205,-0.00200859463707027483675427,0.063836589473378863024422,0.997955451048307295991435,-0.0120464694929276385643169,0.0105803304301881756499526,9.89370565774229326905242,-0.0235205676135701209628071,-0.0292963524395746903461468,-0.00713550787200092906381599,7.73444632454160885259853,4.27878683504883738919489,2.03279730192230756458116,1130.12345254521801507508,1133.68529005311120272381,1134.6264895108945438551,1131.91533540236719090899,463.917488650999018773291,-264.111319641064369534433,-52.7295963626354264874863,-237.540355738372028326921,148.512553395760818375493
46.8999999999999985789145,0.943395111569355515612756,0.453351874088592898814909,1.03089048390536519583804,-0.0911731676603839275019325,0.0417258636738721960801612,-0.0135834810389642950123612,0.0022592034742716800808926,-0.00195565819015949262857368,0.0638271361137626308535076,0.997956401866863740401925,-0.0126397316271388213126947,0.00803644093626317002065917,9.89426606226002114397033,-0.0236415838082213204673909,-0.0293678030686806701421432,-0.00699493839984776256263332,7.73440074324524751148147,4.27870655670978283779959,2.03277780403375540885236,1131.13296381267241486057,1132.89168817910422148998,1134.55080331354588452086,1131.26849323979718064948,283.589618989472455723444,-302.671433147433845078922,0.342981628591412179840603,-232.443557412006384765846,148.514815236646597895742
46.9025000000000034106051,1.01455141935982595668975,0.583381987564711712579424,0.973871868132330953393705,-0.0884496383928408819175004,0.0447730270454565412729941,-0.00991731265930892620652504,0.00215045299434506696767411,-0.00189949944946677848865713,0.0638177408667027351585332,0.997957336152260676698234,-0.0131261988691864766448658,0.00572604429198477621332231,9.89483073578526095559482,-0.0237634151789036483781725,-0.0294366520108078934259144,-0.0068467874438851838297948,7.73435356061054513077124,4.27862623605316461095072,2.03275650060836365895511,1131.54140064016610267572,1132.17193288737325929105,1134.62820441903750179335,1130.753117615306564403,89.6340161475560108783611,-273.688594204892126526829,60.5163915428110712468879,-203.924668534032463185213,148.516657722866710855669
46.9050000000000011368684,1.01034065726741806301447,0.616718172983767631833985,0.797512032320444763655587,-0.0845152541074683100186249,0.0472500125296961004384144,-0.00699173348196024686124206,0.00203516280431133506426122,-0.00183805778665460228110673,0.0638087692781031390332203,0.997958248664122193893888,-0.0135488428292179184653232,0.00353881320056882719971014,9.89537590660179233736926,-0.0238827243682507746325161,-0.0295003415820424032267599,-0.00668785861268855232053543,7.73430378153335418289771,4.27854506881243690230576,2.03273376416180484582696,1131.5811338934104242071,1131.52324520807906083064,1134.85338527126009466883,1130.24886989712649665307,-46.5600390720706514002813,-232.568302145757627386047,133.775303943215277513445,-228.047857026447729822394,148.518450256016706134687
46.9074999999999988631316,0.901348406825106973627726,0.562258693189853664406996,0.469727494786798482895307,-0.0792218311012029274831292,0.0492556272939809886013407,-0.00409558218347705685347115,0.00191137415906472143620198,-0.00177241982496885029825517,0.063802428779440145678592,0.99795900208461163494178,-0.0138912770205999926836915,0.00142278370329032566310445,9.89586977937565670515596,-0.0239962008098479513684698,-0.0295563622041504006632273,-0.00651526510244722616843616,7.73425134848364859152525,4.27846231857000791620749,2.03270992502268166290946,1131.30860044480596116045,1131.00909137664552872593,1135.29708093875296981423,1129.61287833017536286206,-139.585857478115457297463,-119.279404760511994254557,193.054961961289706096068,-244.060792996663366238863,148.520537099985006079805
46.9100000000000036948222,0.737404504053721154832601,0.459843026174024949170871,0.127828263720852569607089,-0.0757977129062302884543456,0.050207157736441188067289,-0.00254806848033454526325503,0.00178068262532443872571408,-0.00170250998933785865213641,0.063799173159384658937654,0.997959566084094085169909,-0.0141627860511212722710583,-0.000610929353702330951714217,9.89627447651817426788057,-0.0241006506918988346044319,-0.029602519416502603988306,-0.00632687550062909723896931,7.73419676776459397160579,4.27837842945702195862623,2.03268581149737714852677,1130.88320460601948980184,1130.92684818427619575232,1135.81866008106703702651,1129.02856593214255553903,-199.601648382111051205356,59.6399722342689102561053,240.424593567617876033182,-245.713685320117093624503,148.522218306172447910285
46.9125000000000014210855,0.543487343322048621629961,0.323675742697995760810414,-0.238015571430640060501815,-0.0748561116280319627236395,0.0506397018285560801542644,-0.00249310945098799550956326,0.00164932233576451660848894,-0.00163183856120309336672214,0.0637953849742019934998538,0.997960153723711274054153,-0.0143024726665012119619647,-0.0024714717316694154169987,9.89654815822419564597112,-0.0241932628815053063497942,-0.0296371803374021088040013,-0.00612120779280883337697405,7.73414068508272745106069,4.27829359076174231546474,2.03266204519158621977226,1130.31059220289489530842,1131.30729123781702583074,1136.49920390659167424019,1128.38430990357414884784,-279.386618981861261090671,277.428408646644527379976,329.185298910241897374362,-286.87776783375454670022,148.523834962229443590331
46.9149999999999991473487,0.338473635347928070160606,0.142612343290381221594387,-0.639335725864444981425549,-0.0757111142708535855838647,0.0508062927210454970405884,-0.00443186776908977009270529,0.00152229240508053613109563,-0.00156361377180884377098569,0.0637884176304262112688903,0.997960919717948424789711,-0.0142621773035811749696933,-0.00409776951064522165779636,9.89664793192099345731094,-0.0242721062778848174767976,-0.0296590689725863346226653,-0.00589803727448359044194248,7.73408398863701762593337,4.27820768985797084127398,2.03263938865554161239402,1129.4862715111114539468,1132.31399022750815674954,1137.46458657561674954195,1127.59417709297508736199,-324.258960218246670592634,446.303495840537777894497,366.456912531288139689423,-279.033443348810635598056,148.525696025884514028803
46.9175000000000039790393,0.219601146942501018743954,-0.0138827455144020211336153,-0.897103614397231186039505,-0.0764630362095493620877562,0.050762446446316077108829,-0.00760456703717259357294678,0.00140431216171250667495984,-0.00149925385852360667712779,0.0637765944852908273077219,0.997961961996082780324002,-0.0140332735915369953560994,-0.00543613218052664895485471,9.896532333674210590857,-0.0243362568450737858094524,-0.0296673966345448771042559,-0.00565837988231588772530811,7.73402757477110469608306,4.27812094919234997547619,2.03261829383303460616617,1128.68929740180283260997,1133.53880871702085642028,1138.33148846924905228661,1126.98914268682938200072,-342.996175309060220115498,535.871616852681313503126,337.567940638391633001447,-214.451998768644784831849,148.527178638442023839161
46.9200000000000017053026,0.162140275835137626092575,-0.170712356020388866806314,-1.03753840353435378141,-0.0765678533330513833021769,0.050556655580207159050854,-0.0116841919825260449200544,0.00129908207847423970773826,-0.00143681471731324202426028,0.0637604670313130506009713,0.997963243587463244566038,-0.0136770733277991919651928,-0.00645109220042706238418262,9.89616387276251607829636,-0.0243858749982977379699989,-0.0296619164332364779190776,-0.00540450343995108831857133,7.73397194210609306708193,4.27803383881477738981403,2.03259892542365383505398,1127.77129063456527546805,1134.99334831177293381188,1139.15242627880957115849,1126.52191709913131489884,-387.484718228859037481016,587.41879724133229956351,301.9489098821867969491,-156.330937358558315963819,148.528588138178037070247
46.9224999999999994315658,0.148179839206336844137368,-0.325107527224100911755755,-1.07171935274572671659143,-0.0764049649422881699267762,0.0501624368683047106021178,-0.0156514474268623499098041,0.00120727465499553430691715,-0.00137637929889806932999552,0.063740946743515519701262,0.997964706121212130618403,-0.0132193699333462838518827,-0.0071701220979340229977339,9.89551132621093998409378,-0.0244220673284137115843784,-0.0296430786882705722684594,-0.00513966012488017293113884,7.73391736360216786039246,4.27794730729105499023035,2.03258137080201972679561,1126.75187381066029956855,1136.47590270322484684584,1139.84123301865861321858,1126.20748800003730138997,-427.149766419060824773624,560.586236284265964968654,223.920988695521401723454,-88.2193523977551876669168,148.529935879702350121079
46.9250000000000042632564,0.171767155889269135249364,-0.471751896820261307219369,-0.990974693138612083842531,-0.0760224080405563495954624,0.0494113206763185930370241,-0.0188427633456317508708899,0.00112899714672675039774108,-0.00131780721847049044591349,0.0637155129848402113079686,0.997966512115120218950892,-0.012690412884349685368468,-0.00763040445916652806945812,9.89455158440531157282294,-0.0244464682001650397691339,-0.0296122431261236669641779,-0.00486785941486433514774346,7.7338643804135980275305,4.27786265128458165207803,2.03256595019074559616001,1125.63554180246887881367,1137.79627949319569779618,1140.27203122228775100666,1126.08082033714231329213,-496.446120182482218297082,502.038452976619396395108,114.520592900440149719543,-20.9781380558417360759904,148.531208443884906955645
46.9275000000000019895197,0.222691931000233239723585,-0.628682656028930253455655,-0.79851915887324631526667,-0.0751402675618377674515713,0.047922566899595141209911,-0.0215800932558523998749944,0.00106469266181089309251939,-0.00126084290954929273582963,0.0636826997766720970250987,0.997968757656111704612556,-0.0121202834294014943211648,-0.0078594919444392036256275,9.89327111479643406255491,-0.024461260406947609585826,-0.0295713181448984570309779,-0.00459359939040983669689133,7.73381350989961013908669,4.27778044158567549715144,2.03255331921029691599756,1124.26964320974661859509,1138.98609496810922792065,1140.41383598316110692394,1126.10259730975803904585,-485.749852550121204330935,350.92103361030325459069,-11.4603408771121948461769,26.5890066462603407160259,148.532648527313597242028
46.9299999999999997157829,0.270772509064546251789096,-0.734201037202665385272837,-0.591780626905303308582518,-0.073945551064134681928941,0.046147493867710533133053,-0.0229542440506015389678485,0.00101438051568697386491114,-0.00120577534733504946988514,0.0636427449169632009073894,0.997971430112013280222527,-0.0115258885665672616144262,-0.00788976099047981882517178,9.89166695861047706728186,-0.0244688888864260031819065,-0.0295224620840637622110059,-0.00432160754923101818325559,7.73376465275665925247495,4.27769979446579284854124,2.03254397796504049367172,1123.20679253972048172727,1139.55088466124561819015,1140.21472951790224215074,1126.2137653703734940791,-383.33440856584576295063,128.567999701525479849806,-132.902025447568036042867,50.4843078363596617919029,148.533776571606608740694
46.9324999999999974420462,0.316386397680055386771869,-0.803009117690169027525826,-0.374964865178386397293053,-0.0725747221406987524927601,0.0440372034048930327543303,-0.0234420841204515152667032,0.000972513607153691517388794,-0.00115147794345210456069817,0.0635991327437883113837813,0.997974316341110556649596,-0.0109555137818379416669856,-0.00785636954771153431242858,9.88974740476838931613202,-0.0244717883090410509572266,-0.0294677349330693394424685,-0.00405689899358852718025403,7.73371663364655770322997,4.27761952060412387055521,2.03253733094425204086519,1122.35297116691913288378,1139.62893496661627068534,1139.74932585592387113138,1126.35501884893960777845,-303.119502595909125375329,-71.5281762352876882005148,-237.946376279856991686756,55.3320695439823566630366,148.53483081834406220878
46.9350000000000022737368,0.372146200977956587152562,-0.83532119831778894880614,-0.13707951761330630646718,-0.0710697907046253518625889,0.041653293562387325166263,-0.0231703335512636540705067,0.000930579012747920404115265,-0.00109891183941031268453403,0.0635552677874532262469742,0.997977208577236152287071,-0.0104162272376928412287445,-0.00794945726708656472125902,9.88753157826766404525642,-0.0244719846297895664288813,-0.0294091796575426701887412,-0.00380412094447461117743825,7.73366827195904793512682,4.27753954744756370587311,2.0325319002919530753104,1121.69119502674016075616,1139.19324378006899678439,1139.0249976365023485414,1126.49042571809354740253,-174.164118832506602529975,-234.478664134547301500788,-269.145190489961009916442,35.37139760444924974081,148.536012074892425971484
46.9375,0.430102965915229951132659,-0.816681572044214321159927,0.0282678628869019732405832,-0.0703103389102400083698896,0.0397283373830618832811545,-0.0224812159316156723321001,0.000884576759121415883216355,-0.00104837358906378018928718,0.063512944370502574797932,0.997979997699807275246542,-0.00991894961731847046859656,-0.00826252530169929721992617,9.88504834460580816823949,-0.0244709224121429542997408,-0.0293489225714805741784819,-0.0035670156669924662357074,7.73361925738129762919471,4.27745964321431770827076,2.03252683658693467094736,1121.48215057275615436083,1138.45654164594293433765,1138.403599903473377708,1126.53187583696194451477,-16.6215486659135613933813,-348.972024158682870620396,-228.044004210440135693716,-6.85350941099100374742648,148.536927893461438543454
46.9399999999999977262632,0.514682573158603773322284,-0.746075808963262754325285,0.156398816908125515290351,-0.0704105604589701505879873,0.0376663763565757980789073,-0.0217213938550166393848251,0.000836718068972255066099997,-0.000997605590993992825954439,0.0634729165244483223284888,0.997982636824316093893117,-0.00951390205188412142744969,-0.00875646291854669314713711,9.88233500912808615623817,-0.024469540686457524197861,-0.0292891239729583113815536,-0.0033483560819157162126436,7.73356984833767580056474,4.27738038000624154477691,2.03252250192713734833205,1121.60808728341066853318,1137.44838365927716949955,1137.884777615451184829,1126.45615817103862354998,115.075128499061307252305,-472.686666900275781699747,-190.695271839006380787396,-67.015639024168464743525,148.537774366774840473227
46.9425000000000025579538,0.648973270723809503301993,-0.597489093540851001762348,0.277813063019798744957001,-0.0705714414009149526574305,0.0354395855428163847333778,-0.02100035076027617630956,0.000791732166511455517921014,-0.000946852934109241759982889,0.0634370928199984723816485,0.997985000328110993805808,-0.00919586936156096233785373,-0.00933901902962060506685482,9.87943573934115804036082,-0.0244685007888739182446702,-0.0292317836344476236765111,-0.00314994148933397813752699,7.73352045898542517221586,4.27730204638479971634979,2.03251922791441819171609,1122.05752621525175527495,1136.09310831144034636964,1137.45012354427785794542,1126.19679764184093073709,198.544100831203024881688,-493.466678087381694695068,-129.662541937638764011353,-123.865859832340291291075,148.538712404583804982394
46.9450000000000002842171,0.770230434136857766702633,-0.420766695042458727105128,0.364048943970246841050908,-0.0697069711658256790931532,0.0337920360326608229528667,-0.0205704835308423185369353,0.000751322185056903409094975,-0.000896574150481800873774274,0.0634074236405052088505485,0.997986962656729370557684,-0.00895692241704089744946948,-0.00997168809532149313934468,9.87639994168342028046936,-0.0244681190276968725527684,-0.0291786700535964747815765,-0.00297299208101298520490197,7.73347099115420277826161,4.27722425754260626717951,2.03251718790705959705178,1122.60080778756719155353,1134.98105026883899881796,1137.23646490576265932759,1125.83682887187660526251,236.223088129769365650645,-407.534738685133163471619,-67.9823137258772334234891,-167.336591171094681840259,148.539431321345546166413
46.9474999999999980104803,0.860122500855626359594908,-0.194942983406313607996907,0.446936913841480487619151,-0.0674793297700422844975776,0.0323192013566523939083197,-0.0201900054533923969946052,0.000714227453205743770953129,-0.000846541754803974448237436,0.0633861521370593095081603,0.997988383144623347753566,-0.00880460710160600040774526,-0.0106679139641832690377221,9.87328012656470654917484,-0.024468378165541686958262,-0.0291312242769022622379538,-0.00281809792537254539396274,7.73342096046587990088028,4.27714713582022199034327,2.03251562674874097780275,1123.23864165589952790469,1134.05543461801653393195,1137.11021197564878093544,1125.36011468598621831916,262.958925371733187148493,-317.254839341577792311,-50.2296312214837072929186,-198.742707276540585326075,148.540087700620347277436
46.9500000000000028421709,0.889125176464334976422776,0.0601515352543212714064857,0.530535523187165902747608,-0.0645218477511315391392799,0.0313609729880367713028555,-0.0196934723917524291680881,0.000673991188918713767137814,-0.000794323708005021463136874,0.0633754585685903787384277,0.997989129993634427329141,-0.00879515518000747488491786,-0.0115359217190379309547765,9.8701297911035350551856,-0.0244689416446633549451217,-0.0290904918587914992911259,-0.00268537499370515974489448,7.7333699101702642053624,4.27707021974284629095564,2.03251352503789517456312,1123.91560241442653023114,1133.3947760721302984166,1136.98531674965511228947,1124.84311533549339401361,274.583493376435910704458,-182.575079713703701145278,-65.1906324676595687606095,-195.438536861629529539641,148.540694340413921281652
46.9525000000000005684342,0.811032888254263784055809,0.325294994306208007373016,0.609701804731555885297212,-0.0612126408614950684450307,0.0314178892227332945408236,-0.0188467303758420162695941,0.000624977244995449359582507,-0.000738809873528420164162656,0.0633723123822344247546567,0.997989399633800178257559,-0.00895700948975958893827354,-0.0126654089827147667279839,9.86700081803392592405544,-0.024468987467466299379204,-0.0290573560056499868853308,-0.00257399772069193772880413,7.73331770790806150017715,4.27699290705483026187039,2.03251057610343055515045,1124.61155912278240975866,1133.14255921944754845754,1136.78425881331031632726,1124.38292200167757073359,303.71566542244516995197,-9.3027845638601345257257,-115.771018729233915678378,-156.360040552414261583181,148.54124357754079710503
46.9549999999999982946974,0.571711142257590787529864,0.611325085346608565473048,0.681411921008372112318341,-0.0571253218926127889765176,0.0329316251311769295218035,-0.0172216379205072031566282,0.000565760818211324435778042,-0.000681689441519163540419979,0.0633723501647978082473855,0.997989466451127182899938,-0.00925773529424520243147345,-0.0140638181182237732846918,9.86394121823588498898516,-0.0244675950082106664906778,-0.0290323636363396322956909,-0.00248207327069390132692761,7.73326510803646360869834,4.27691541676190389864587,2.03250689771008463679891,1125.43418074153737507004,1133.34826214931104004791,1136.4064616560094691522,1124.06131513273203381686,291.569601390061507117935,153.728535852554642815448,-156.577854742601573434513,-56.0027411692940404464025,148.541839443387402752705
46.957500000000003126388,0.256324188717652556857018,0.788920992886807947996886,0.703485557434389008335529,-0.0542337313525158848381835,0.0354094585946265055786952,-0.015352945984285472358355,0.000497274509005696230788673,-0.000620727085487280077873151,0.0633718691051011612236366,0.997989563648819855146144,-0.00973888894027918720908144,-0.0156857637273540920230808,9.86099357314956215248003,-0.0244639393384055853220005,-0.0290156435583091149021939,-0.00240722530306523114715378,7.73321273247018758922877,4.27683840403238502148042,2.03250242408365533464121,1126.0694071297334630799,1133.91120189871071488596,1136.0013695395969079982,1124.10290829583095728594,228.176005743008914805614,287.600449245417848942452,-159.328360031859460832493,99.5003184485940721515362,148.54228545736384603515
46.9600000000000008526513,-0.142889656265558911973912,0.871058051101881058997378,0.664949963554301137769187,-0.0528930140391716263614796,0.0387907222303101040239426,-0.0130584207489230670617975,0.000421788990814927534662299,-0.000554189039348734302330157,0.0633675206224529191656458,0.997989901236161047748396,-0.0104301407680669408484242,-0.017459877869558930452154,9.85819344689547527593732,-0.0244573148048213423466635,-0.0290068979621570452454016,-0.00234661559720271764573063,7.73316078549558927335283,4.27676206096916899923599,2.03249715512053175103802,1126.57506077025300328387,1134.78626439553886484646,1135.60981985584976428072,1124.55881672497525869403,168.25908118909705990518,427.295631907988820330502,-129.57167043858095212272,295.182127830953675129422,148.542681382609373486048
46.9624999999999985789145,-0.644065269083074709577375,0.84499769849219230621884,0.533081877544713256256159,-0.0537328603515805011681117,0.0430221363437677667418413,-0.0100480025735445455126182,0.000338707048263021828857916,-0.000480490101055427022529176,0.0633576806508434620113235,0.997990581463350623359077,-0.0113613924636675328594393,-0.0193722786856144746359121,9.85556835599377301093682,-0.0244471690774143782243222,-0.0290052547125590858001498,-0.00229737084726754602070908,7.73310861255103176858938,4.27668576144168355313013,2.03249114658963403456937,1126.91070253567818326701,1136.04768005824871579534,1135.35351118740459241963,1125.57881893498438330425,59.9292999460124420352258,475.142247555625317545491,-28.7827028194295131413583,433.391051537188275233348,148.543101102318757966714
46.9650000000000034106051,-1.0152085289318877325826,0.729095553708009380677879,0.352738361644794773397393,-0.0565915160914320092278018,0.0459037971707786582320487,-0.00798123522097816430476147,0.000247071922571528523968759,-0.000401599206696482292217043,0.0633422853988656192614215,0.997991606032558986605352,-0.0124925070275149069365384,-0.0214224018814291802814687,9.85313679825071808693338,-0.0244330985491631631767451,-0.0290092478832796873966515,-0.00225642517929035106571956,7.73305580012582272075861,4.27660886834164255532187,2.03248416027675160577814,1126.87470726998321879364,1137.16197563331820674648,1135.46590634175254308502,1126.72577198266230880108,-94.0699261136133628724565,436.096383196131398563011,134.250589186444329925507,478.597161941052775091521,148.543406389686225566038
46.9675000000000011368684,-1.26655861337563813151519,0.547425675881637263664459,0.117560797643849510030201,-0.0613050484304021453541012,0.0474877053216542083236007,-0.00707828153639420386278314,0.000146199395501777826538586,-0.000317240636779074665352329,0.0633214737925335002799443,0.997992965883863214493488,-0.0138263707148823210280053,-0.0236040968730083580706669,9.85090798572815629086108,-0.0244148129538080752021223,-0.0290169288783601771186671,-0.00222088918201510891053951,7.73300219959700285699,4.27653047063193003651804,2.03247705711092230274062,1126.44035290510987579182,1138.22816197423048834025,1136.02476413333715754561,1127.97180474469087130274,-280.881434799385601763788,441.87651094634190940269,341.980275473990332102403,511.422622692235961494589,148.543667325968101522449
46.9699999999999988631316,-1.37711409184316702081219,0.301496385516112019864465,-0.192655930380664003331859,-0.0678685164554604092312928,0.0478303618039604763745309,-0.00712076744180740236339622,3.85348342175165451003148e-05,-0.000227319053093764190725742,0.0632939953466275379012629,0.997994740087231213543362,-0.0153572509642173442301338,-0.0258530208082984151729544,9.84888175131551868446422,-0.0243921849801229662091373,-0.0290261027277874360252863,-0.00218785598536168140668123,7.7329479300482271142414,4.27645005214547335725683,2.03247072669472528261281,1125.47030009598756805644,1139.37135818804790687864,1137.17580771912093950959,1129.28288509612116286007,-413.110753686730845402053,391.727942120023385541572,471.746624087913573930564,409.824294284062034421368,148.543931045337387786276
46.9725000000000036948222,-1.3016211543331273059465,0.103708813382380818368667,-0.44583352183260593903924,-0.0731827107401715332146708,0.0470755630109420952766897,-0.00770042049317133658892232,-6.93708865860395094407251e-05,-0.000136475729525602901531095,0.0632618608168705465200077,0.9979967977582465676889,-0.0169795545405067027644463,-0.028033479642291875971738,9.84704892517394725359736,-0.024365675471734845464189,-0.0290343479836874876487407,-0.00215412024179692821942989,7.73289423996484881485003,4.2763677363306804579679,2.0324646953616389843944,1124.37479913667516484566,1140.18680168483160741744,1138.38349725377793220105,1130.02092621611222966749,-461.358381517803081806051,296.087599497726330355363,474.292441261225746984564,190.052203648604603358763,148.544110847232900596282
46.9750000000000014210855,-1.0788729033160240344813,-0.0671697818170243071689285,-0.657801705445778872594076,-0.0774776483700162221790464,0.0458581387054592254370888,-0.00906397904901759185469778,-0.000170540113563964713591647,-4.78608137357333497208071e-05,0.0632275638803566908396903,0.997998978860462737650039,-0.0186145025672783820391842,-0.0300028518360696272448962,9.84539228002239674708562,-0.0243361893663801391596291,-0.0290394242990035626739154,-0.00211664115597376065180946,7.73284169073623584012012,4.27628410768589617418911,2.03245801989895902295302,1123.16350818839737257804,1140.85179618553729596897,1139.54726992542828156729,1130.23314611436467203021,-508.461717230109968568286,254.235762553029644550406,421.157313312024768947595,-33.6904760414960833259101,148.544250417093394389667
46.9774999999999991473487,-0.709745387970501684371527,-0.244661254997126403898378,-0.822134552452577382908316,-0.0803576387452308305014981,0.044950032706335220356042,-0.0122150918417327468412648,-0.000261405151288372436264168,3.7442240731888726495806e-05,0.0631913240394015168766018,0.998001268395745100292515,-0.0202258049362833286499708,-0.0316858012500073685235868,9.843887532952443564227,-0.0243048375199013434733164,-0.0290396430030184574122565,-0.00207285246386119384118252,7.73279008148553348434007,4.27619993488224370281614,2.03244987913644736821084,1121.83249055052692710888,1141.45798049759559944505,1140.48928382033614070679,1129.85247383590490244387,-433.085681264952995661588,184.015894185810338967713,220.952706239973593937975,-227.429482291219812850613,148.54437259914635660607
46.9800000000000039790393,-0.379290688003230347380423,-0.38368351002552075756924,-0.859358859695036447767791,-0.0805501565527913104824975,0.0450722677937446872253879,-0.0157441849501394927346443,-0.000343897857244126342341622,0.000121052275702348801278072,0.0631547318157353598788717,0.998003563947107874554376,-0.0218343853210333158076928,-0.0331138420547445605501835,9.8425045504452430833453,-0.0242730247416142325134203,-0.0290338441985543843637529,-0.00202098912826925540542344,7.73273911115894474477273,4.27611570899532633660556,2.03244037546348188527645,1120.9980797820714997215,1141.77187565646681832732,1140.65203345662871470267,1129.09599870290799117356,-248.708558526696009494117,74.3695383031610361967978,-91.8604069154283280340678,-352.52619574062163110284,148.544437390331921733377
46.9825000000000017053026,-0.091464787470182079553993,-0.526377600094823816512246,-0.783433587513205242913727,-0.0791745110540084118255777,0.0453220380884910289953638,-0.0190406612088913698710435,-0.000421015116732198783813107,0.000201866936412620467380594,0.0631206610149883384774938,0.998005683093839301989192,-0.0234061784039733336570954,-0.0343440409411190986088691,9.8412088322271529250429,-0.0242423630177998790380389,-0.0290214817851177329932622,-0.00195980279197310999425574,7.73268852058487432543643,4.27603220239021819537584,2.03242968880603314119071,1120.58894775789281084144,1141.82982818911159483832,1140.02998178575876409013,1128.08984285720089246752,-87.0283960466504424857703,-28.8192890159996935039999,-370.901967848222625434573,-406.774208806570413798909,148.544464423544468445471
46.9849999999999994315658,0.130030255346454709508563,-0.66832681952286276949593,-0.62443030867580606724232,-0.0772316526340284664753355,0.0448356365199064563209497,-0.0215482531998131728034895,-0.000494663241538993237247923,0.000276548587671583212879711,0.0630925858514614357197559,0.998007406980069955437784,-0.0248591244002281316904934,-0.0354151169479600125278296,9.83996336475551558464758,-0.0242145459299867790714522,-0.0290026318319536492718047,-0.00188867071560288582107723,7.73263862381994293571097,4.27594959883591396732072,2.03241829917881000611146,1120.56293780183864328137,1141.6277792113869509194,1138.79752361738928811974,1127.06212765887698878942,69.204724555093960702834,-152.581076781611216119927,-598.750889145424707749044,-376.125767157771804249933,148.544460508202490700569
46.9875000000000042632564,0.262987656113109147248963,-0.787919096276877173323783,-0.394397069125305810288751,-0.075164168066173125959395,0.042958729823475483300399,-0.0229080301738843125636258,-0.000565984649581584222007014,0.000344076156319739830287407,0.0630731697369274479925139,0.998008568834100828759404,-0.0261533047177594235588316,-0.0363473117769548687006065,9.83873056175418092550444,-0.0241911528211238673058414,-0.0289779593820593539543751,-0.00180798281518423681508978,7.73258969269960516612628,4.27586800178284143214569,2.03240723705431314272118,1120.93497138066845764115,1141.06692280520314852765,1137.03622734003010918968,1126.2092140214110713714,218.619457782121600075698,-334.025957696587397549592,-819.835311281702956875961,-300.48331879223133000778,148.544419540037210936134
46.9900000000000019895197,0.342698293683296406619831,-0.87146478192113963068266,-0.0823884729928082149008617,-0.0733081278651282752800711,0.0393117475989622072729546,-0.0232519565969371150293554,-0.000637363803163895907728798,0.000403456049981316619296862,0.0630632080223520880002397,0.998009120566242580174787,-0.027248986143994277653313,-0.0371838628472102930566656,9.83747414571960554496854,-0.0241734597145184734734435,-0.0289486340275005686606402,-0.00171920846314377231273118,7.73254188031494837929358,4.27578778073729548481197,2.03239794053936462248089,1121.65603509074981047888,1139.95764942290315957507,1134.69834706097867638164,1125.55971106491506361635,276.305746425601967075636,-475.191945012443454743334,-834.667052653671476036834,-166.121861087973343273916,148.544327668834910127771
46.9924999999999997157829,0.375886576536020866612375,-0.874583454447064312375915,0.174825140139563323105065,-0.0726092058611865348582981,0.035925190892459900326994,-0.022616479414605848013986,-0.000712223020838677898028402,0.000454627974675744881295075,0.0630606262043380827453376,0.998009195784857583433336,-0.0281248942295649131950519,-0.0379852798273989655797322,9.83616090212210103516099,-0.0241622127889678309231591,-0.0289162272285169545671391,-0.0016247942552686303867987,7.73249465872187791148917,4.27570877403743221378818,2.03239143252851084398003,1122.31650011279521095275,1138.6909630801430921565,1132.86289207676554724458,1125.37860471597196010407,241.459249054779746757049,-562.80734185630785759713,-650.002068445155600784346,-1.4667662169826751750179,148.544215454192197967132
46.9949999999999974420462,0.419635284589474411021115,-0.808768469628563635431817,0.397191354175234545564876,-0.0727276523233435084891951,0.0331690818586660718381154,-0.0213768950345354889763794,-0.000793704717327405810493868,0.000495524792831582619988262,0.0630619969947419367617414,0.998009016131996995468967,-0.0287197747199825388630945,-0.0388067761001748556815016,9.83476221488097834821929,-0.0241575884721647524133736,-0.0288824762795104605928032,-0.00152766187459619086179419,7.73244729457354917911971,4.2756307955639814011306,2.03238695213939379868862,1122.86333133602261113992,1137.1436127136241793778,1131.4483367187558542355,1125.5523772338301569107,194.295718846015660119519,-717.356868934208705468336,-479.199356885265331129631,143.668910178229623397783,148.544065967921227411352
46.9975000000000022737368,0.523589161180463391609408,-0.671660230808221569986927,0.598148338278444824389624,-0.073267954288439379739728,0.0309558038926218206943197,-0.0194467193843077187920265,-0.000880008215111633741202513,0.000525706969050793409929667,0.0630613987146344812106946,0.998008963381670666237255,-0.028999025018290609800875,-0.0396021620426129719594321,9.83325525303509628827214,-0.0241590614640488608733104,-0.0288491925190496531494766,-0.0014307635264079777981383,7.73239948784891328870117,4.27555403104422726556777,2.03238448405178306899188,1123.28797870702578620694,1135.1041787354702137236,1130.4668952923379947606,1126.09694926686347571376,119.918763698417521368356,-752.947855074195558700012,-226.384605608948419330773,243.634565082141278935524,148.543842956508740371646
47,0.66310104804225533658979,-0.530469537393473355990636,0.698666224637900401539525,-0.0733409070670437562844413,0.0299325527193058278652149,-0.0175228200489631232017462,-0.000965009302213503642083048,0.00055164872754677018572983,0.0630533796549028469069498,0.998009384800695231731993,-0.0290602792161206296972509,-0.0402297280605545121145994,9.8316236513256676232686,-0.0241655867581875710703443,-0.0288179441159836895181012,-0.00133706808876864441208709,7.73235075049159359394935,4.27547846676453424663578,2.03238427183003711462561,1123.46292515451500548807,1133.37887343825127572927,1130.31641369071053304651,1126.77055005924148645136,52.678146788960184210282,-664.694337699497509674984,72.6680912936650855726839,302.140578247010239465453,148.543620210224958100298
47.0024999999999977262632,0.844077243303496871362768,-0.383890240415378503069377,0.721959897446614151661493,-0.0720414152544916613907233,0.0294962838747672567718539,-0.0154003344926612276838407,-0.00104588988778989014707954,0.000576218552510544238139112,0.06303969169415987727767,0.998010167509570389476892,-0.0289374236851851623919529,-0.0406155545125604089395921,9.82985778606712834459813,-0.0241760949162729450734322,-0.0287895320412540726973116,-0.00124927155225008023296807,7.73230138097095132110326,4.27540333532538774363729,2.03238554255383974123106,1123.55136944097034756851,1131.78070704697574910824,1130.83023574880598971504,1127.60765215809715300566,49.1920996364318199312038,-643.279219118756486750499,350.173336836999624210875,390.62766258828582977003,148.543358324664950487204
47.0050000000000025579538,1.07307418838125867566191,-0.216728118160308180772944,0.660063706603320365928766,-0.068515803500023952921083,0.0293345522343691003652744,-0.0130620484253369840976777,-0.00111967101662323884406214,0.000600773084289697701342037,0.0630223462733583844608276,0.998011184143942187141363,-0.0286384002978021696972366,-0.0406835717886575715107611,9.82795469194931214929056,-0.024189179029398003017981,-0.0287642205024881449093588,-0.0011694429493767832719392,7.73225145642933142653419,4.27532780482775098818138,2.03238723614293625985283,1123.70888565269729042484,1130.16247734265584767854,1132.06728037489642701985,1128.72368837218391490751,82.6051940885950273241178,-527.498781162515342657571,526.750421735918052945635,413.004187788663045921567,148.542997616652939996129
47.0075000000000002842171,1.24856663234558329378387,-0.0870098446046534412801066,0.538140132339235299774316,-0.0644599921610270881755511,0.029324186141460300419892,-0.0114192822860468643636489,-0.00118572968155640544665741,0.00062858232149910157199324,0.0630037653649562767732561,0.998012279305906635507029,-0.0282163400366517228001761,-0.040401569334762799101668,9.82591753386306621109725,-0.0242031879883308591316915,-0.02874171237605553305694,-0.00109922277413474172962082,7.73220072330379792902022,4.27525181779380858415607,2.03238809333033021431447,1123.96439541141353402054,1129.14321314116182293219,1133.46398785748692716879,1129.6726730970415246702,131.259471323556908828323,-329.941668975907248295698,596.796250683743664922076,360.245727999618111425661,148.542657299138312509967
47.0099999999999980104803,1.39465728626456009209278,0.0379370337594091833199883,0.352679470964740726657283,-0.0604079062504016828238917,0.0293190014622410378974937,-0.00977606548031009423005422,-0.00124575999414688258319639,0.000662855327331478608697546,0.0629855504482866729309976,0.998013347488521551653662,-0.027731377718796156039982,-0.0397837994086661858594844,9.82375495274295396086472,-0.0242162691584338687911249,-0.0287212643381300619660479,-0.00103978358246352561508608,7.7321491954126848611395,4.27517530021589653443925,2.03238812025433723817969,1124.36518300931447811308,1128.51276899777781181911,1135.05126162831243163964,1130.52491701218036723731,172.827739142169576780361,-188.789513489513240074302,641.517593824473010499787,304.912600249989282019669,148.542274393497336859582
47.0125000000000028421709,1.52039162469929434173821,0.16559732456762848995524,0.126267238378145130184294,-0.0569603322318948113167636,0.0292938275637404793583229,-0.0082293231292880960475733,-0.00129757274903061106501034,0.000702323413857476315340367,0.0629685696848127779423621,0.998014336380934174997037,-0.027156792695493325168199,-0.0387758020044955062366476,9.82148038775554610424479,-0.0242265068031753752486601,-0.0287017650895466831795222,-0.000991397690247545083225278,7.73209690122690584956899,4.27509829801903862289691,2.03238756451818147752419,1124.82853410712482400413,1128.19926557371377384698,1136.67157582661093329079,1131.19723609829225097201,173.143712494995810402543,-59.957169309669801293694,632.557169275327510149509,203.00429521511051689231,148.5418552897702682003
47.0150000000000005684342,1.6330613211951985341841,0.302937800835423765022369,-0.123855325740485439078853,-0.0539306243661363329811032,0.0292991403780281725599544,-0.00770122614172939583265798,-0.00133847073853703819011629,0.000744754148139903262952621,0.0629534232972443763554082,0.998015212775679172452215,-0.0264523437610997246005606,-0.0373172027748742765607126,9.81911106926569310360264,-0.0242320573762219160229847,-0.0286817802111880570947733,-0.000953934090674141837995492,7.73204447336414979474739,4.27502055710247308439875,2.0323864160622111540988,1125.23090157178990011744,1128.21298315122930944199,1138.21404747469068752252,1131.5399384882564390864,121.786710814168856131801,59.5324926311236879428179,637.901292066215205522894,54.3529276323664376491251,148.54139199954693140171
47.0174999999999982946974,1.75993701162708937602019,0.478762078993013762140407,-0.404345467023605187328883,-0.0496911086224473275141378,0.0295208027251281854286269,-0.0090564561473076149455963,-0.00136551236587756298808405,0.000789952422663489617869759,0.0629401806178673389746692,0.998015976930712644943355,-0.0256233850980325736368393,-0.0353439866548378792132645,9.81666707703034902010586,-0.0242311992621137735348658,-0.0286596592937620534002896,-0.000927119048795124853397376,7.73199250388408199086143,4.27494217100250839536102,2.03238513774609419471062,1125.43746766119511448778,1128.49692803686912156991,1139.86108228693910859874,1131.46900073645383599796,4.30233257825200787749509,131.830295624354988603955,556.336399893586531106848,-111.37067206067273161807,148.540785049616260948824
47.020000000000003126388,1.85498144124592978521093,0.625055273984477799409376,-0.587107345720000228794788,-0.045336676059183948772624,0.0300916502571210858762996,-0.0116000845114962863879882,-0.00137770118040956581449696,0.000839736653618170219431915,0.062928307244239992113144,0.998016663374207579906283,-0.0247228080707236792801229,-0.0328320877634092622709971,9.81417045454869274578868,-0.0242223242343085377881184,-0.0286336445648757813298158,-0.000910740472081610942522989,7.73194084211859866684335,4.27486356865374350633147,2.03238372291720370554913,1125.25241323468117116136,1128.87213462935142160859,1140.99572947416004353727,1130.98308512795279057173,-162.580884644429318086623,163.958057698944486446635,388.420788392369559005601,-276.170196389643592738139,148.540237376103021915696
47.0225000000000008526513,1.93073980945263512509769,0.747542731649147862427185,-0.691403230910025867750335,-0.0404048450444218845700739,0.0313682735202883422598319,-0.0145014643175190079821268,-0.00137927174852907536740931,0.000895631191862013070412174,0.0629179837802580216310488,0.998017253681722449343283,-0.0238093716871558905290307,-0.0298650503497850869361052,9.81164446149854718726147,-0.0242039803542003981173814,-0.0286018850987411234199076,-0.000904784198814171346236801,7.73188899031546572615525,4.27478468956374513254559,2.03238192529719263745847,1124.62456323797255208774,1129.31671832536426336446,1141.80318622890195001673,1130.08814975450491147058,-367.4616736051279417552,203.605994229341007439871,259.914337317522893044952,-467.318991407062014786788,148.539647635021310634329
47.0249999999999985789145,1.99461237450080686173237,0.828180539388422509716747,-0.724773844809021072777,-0.0346110644962052266260244,0.0340272549900435400394016,-0.0173555340659851398132929,-0.00137537611818397691350324,0.000958432816999919704251121,0.0629049179931384233599445,0.998018010626165685827971,-0.0229334151846592795842561,-0.0265501695244349175673015,9.8091129578345412909357,-0.0241745817324528593228461,-0.0285627547888533672715283,-0.000909207803452158520862714,7.73183634962384047639716,4.27470520183455171547848,2.03237930141228240188411,1123.41510486665720236488,1129.8901646004972008086,1142.2953011607464759436,1128.64649017091960558901,-493.107888037977886597218,215.197416533082048317738,88.2114292913232702630921,-570.20195045973127889738,148.538893784996758995476
47.0275000000000034106051,2.02584775103694836317914,0.811404455363826104807856,-0.689582928988558219174365,-0.0302447017865487693955018,0.0372249404089768018422113,-0.0190026746878076031876947,-0.00137192825008867948927138,0.00102998395154939672603567,0.0628836324920432621077282,0.998019270710178929562062,-0.0221705984376230902377358,-0.023013356024346329209429,9.80659979091790567906628,-0.024132678660647437218767,-0.0285147639083572108920084,-0.000924095190167603663944362,7.73178303336044958626871,4.27462500841653181282709,2.03237655035937292424819,1122.15902379778140129929,1130.39270540803022413456,1142.24424337535879203642,1127.23714000220479647396,-508.647602986014931047976,204.860887197432731454683,-124.038152948860656010766,-584.379200993972744981875,148.538229474218923087392
47.0300000000000011368684,2.03266188884861476182664,0.686397349644499943366327,-0.610255360528384027674065,-0.0262066116155526655784325,0.0409596810115626999704297,-0.0200315486931542247051041,-0.00137205242248739805489832,0.00111095966925473486897058,0.0628521210841790634038517,0.998021156781208063080157,-0.0215730520346594650815675,-0.0193323883782624689198215,9.80412814394352416513811,-0.024077353983321576197385,-0.0284564330817955318808643,-0.000949399908628290522746851,7.73172930557939963591707,4.27454449369351952014995,2.03237460954865367668276,1120.87186685172582656378,1130.91446903648488842009,1141.67511039600185540621,1125.72459416594824688218,-518.929583155585419262934,229.980971310105786642453,-365.408173757773909073876,-669.142620629481029936869,148.537531132482854445698
47.0324999999999988631316,1.99809697109472583775869,0.420337253438605840116793,-0.482800570766942771516739,-0.0211405434594997138075811,0.0446706839131763566719258,-0.0209067292127582994576418,-0.00137408336396495963510622,0.00119766106137925783421683,0.0628143834470986095475098,0.99802342193237492118385,-0.0211028650819137034155837,-0.0155016935076582353103536,9.80171978713373981406676,-0.024008473226328309185762,-0.0283862615708421091309521,-0.000984638802699416837427293,7.73167600051900727464727,4.27446383341781999121167,2.03237328724778132382767,1119.56437588200583377329,1131.54261026457970729098,1140.4172025065715843084,1123.89142689906043415249,-409.01091489224194219787,225.416804939480414304853,-545.009540338645251722482,-664.417729605953581994982,148.536658136999108137388
47.0350000000000036948222,1.91329159566153239602215,0.13469737151545654874063,-0.355625787784199454133471,-0.0162857074365533247006788,0.0461941257758070669692252,-0.021590649917474297875275,-0.001378319610783172114582,0.00128607571256136562001804,0.0627756249456533216291021,0.99802574053079362581542,-0.0207188548147141451960529,-0.0115590790987914332488273,9.79939461921198429195101,-0.0239264235485727207175533,-0.0283030148103096575173954,-0.00102937523005123122803173,7.73162357809477018832922,4.27438306611607377050177,2.03237237003842707849799,1118.82681227726357064967,1132.0415530611828671681,1138.95006269430723477853,1122.40250551791677935398,-204.655675654507717808883,186.647178793414241226856,-653.875686091925899745547,-577.310123543452618832816,148.535904587228799300647
47.0375000000000014210855,1.7426818956032281704438,-0.156662194420412320683411,-0.206085621516692796273418,-0.0108140603213873580379367,0.0456470830547714423452987,-0.0224143755933695690285568,-0.00138358821780231290923813,0.00137575117728643090547758,0.0627374796192239347902841,0.998028009613160071999971,-0.0204471742157732068456699,-0.00751309347041272113099097,9.7971700586795531506823,-0.0238317763743610376570015,-0.0282060148525391518603556,-0.00108310361500244130804338,7.73157174600916885509605,4.27430280815958862916659,2.03237088868932014307234,1118.54109750373277165636,1132.47584615854725598183,1137.14782407611028247629,1121.0048762813416942663,-43.8555630447752804457195,157.502686325512968323892,-760.876030394784606869507,-536.921889467509458881977,148.53512752907124649937
47.0399999999999991473487,1.48775690736226806620834,-0.40439951223918074729724,-0.0361087237204453792571712,-0.00522227689249222387646299,0.0434812551299690389083885,-0.0233358498264426041102215,-0.00138955210102128493172835,0.00146861747587902625837575,0.0627007053048247442461616,0.998030178480832863563421,-0.020359785787136042145562,-0.003389129089560686397542,9.79506060305042147717813,-0.0237253692780662363281952,-0.0280950163865296941023697,-0.0011453266836312740988707,7.73151984759051646989292,4.27422339898161229854168,2.03236886433008345775875,1118.60753446203989369678,1132.82906649280971578264,1135.14568254233677180309,1119.71789607058167348441,86.6134514439648057759769,118.170884860759116463669,-831.987245078182240831666,-480.195933688428226560063,148.534333494298692812663
47.0425000000000039790393,1.13680053672381031759642,-0.556358069744268712852886,0.154893537668876923873995,-0.000122117873268505938884332,0.0400432313032602488211964,-0.0240578344850752544326067,-0.00139490156077952376888207,0.00156471880156408560402781,0.0626641865059126418335822,0.998032319544576274061853,-0.0204877661483821582599774,0.00080132301774316766485029,9.79307725231586623237945,-0.0236082401781407200114238,-0.0279701971799215867720001,-0.0012153042696939537516132,7.73146770378834347070551,4.27414532678956859967911,2.03236705539337503267916,1118.97416476095281723246,1133.06670058285135382903,1132.98788785071724305453,1118.60389661289832474722,183.46583320644350578732,80.3115014394323480928506,-965.307516137415404955391,-442.566161643436373651639,148.533521889874549515298
47.0450000000000017053026,0.648151417217467828990607,-0.610072706270040954201761,0.388903812370878565474186,0.0036362852486591119155479,0.0359956404657960776782843,-0.0239682793818120180862064,-0.00140073177482240578302364,0.0016611535369222380723736,0.0626280755487261114877739,0.998034427324589246133257,-0.0208035329267604249259271,0.00499379655473966566070487,9.79122729344546982588327,-0.0234818386014030919262119,-0.0278318769899368739784151,-0.00129220966582212519122019,7.73141567656459738344665,4.27406865717358819267702,2.03236560644634112193785,1119.52486362807258046814,1133.23062400000708294101,1130.3191449616472255002,1117.50506526236335957947,184.781031598808823446234,47.5735380224683197525337,-976.535944266949172742898,-361.435136929695943308616,148.532531222286195315974
47.0474999999999994315658,0.23773681142761224349691,-0.56443846129511499043474,0.563418614826188157707065,0.00372661438381305431047363,0.0336215584873126097087415,-0.0227901972583507660130575,-0.00140809983659362044673691,0.00175531817831368203153275,0.062593223369746042727968,0.998036452986368671780326,-0.0212804136730911815089673,0.00912313252611524766466644,9.78951385944103336100852,-0.0233480130049119327662055,-0.0276803965586646279206651,-0.00137506940877801689220028,7.73136383195384713218345,4.27399314045586109500618,2.03236431856238564108708,1119.89806991894602106186,1133.30456827296347910305,1128.1052081293869377987,1116.79672092825148865813,100.678035835329296787677,30.5256692334140353750627,-862.079806465649312485766,-243.262886265131925256355,148.531694192327080372706
47.0500000000000042632564,-0.112734524445205264164827,-0.469464193413776653684977,0.683139499365329805335989,0.0016075723374827683310323,0.0326506678443528111643879,-0.0206679654412144572783738,-0.00141515585125767087877613,0.0018407164183633429373893,0.0625605507682366612787206,0.998038353074992223845641,-0.021806594501300746030692,0.0131748602039759368786953,9.78793540722661958852768,-0.0232089898769652774879191,-0.0275160229398351691143532,-0.00146235643031524258257658,7.73131248006084348389777,4.2739182321909980899477,2.03236270497932958178922,1120.02825380724948445277,1133.38325234617423120653,1126.00874592931677398155,1116.28875083103707765986,-8.84074277191305313294833,51.9051004949877139438286,-865.584848395713493118819,-183.530112293916999988141,148.530848063804342018557
47.0525000000000019895197,-0.424196169230592112775469,-0.357444371721338638447918,0.731738733172953237371416,-0.00126190403737209250710494,0.0328636756114920602911411,-0.0174026049712685468295881,-0.00142072562701894312964246,0.00191406903286183436088685,0.0625310112189090133716363,0.998040075848164232041881,-0.022327997839233098414935,0.0171242901140935682713362,9.78648579464216261669662,-0.0230673284503748431129022,-0.0273388703689333260882233,-0.00155248563703516456908915,7.73126213553285701607365,4.27384399543705306712127,2.03236100312513912058421,1119.85386620508643318317,1133.56409377543855043768,1123.77728388740615628194,1115.87907036678143413155,-107.482642701104381899313,88.5158889491217593104011,-747.130672085129049264651,-119.65098022853422321532,148.529825271776473982754
47.0549999999999997157829,-0.591536591990547200303752,-0.298719008294067833730878,0.681381582764101434435133,-0.00341181205747745006084948,0.0336945198554783609257157,-0.0143368422501581969236151,-0.00142425230551221728737821,0.00197223545959405175201362,0.0625060363180346828526623,0.998041539429250557091677,-0.0227877822686635492233087,0.0209342686637228117541021,9.78515427517490898878805,-0.0229258711105926500650742,-0.0271488474414999549078065,-0.00164367195601733059873162,7.73121339460772016849432,4.27377085254051447549273,2.03235891338794782967625,1119.49084059374445132562,1133.82583179091943748062,1122.27309256889452626638,1115.69049592989495067741,-159.680830633633092929813,130.057878831603431990516,-500.264060188010489582666,-42.613882078278599863097,148.528968879024546367873
47.0574999999999974420462,-0.684072135754866472723279,-0.29194551501707144414155,0.542831291762572165637835,-0.00545670427359928704447167,0.0342600024543323056214206,-0.0115407115637522188905661,-0.00142892183146091106965558,0.00201149005739167290388036,0.0624853457689766092486572,0.99804276502398758807999,-0.0231164442801693285900466,0.0244937888101425804698863,9.78392603669309579572655,-0.0227874559614995031431306,-0.0269457161559472635481427,-0.00173408143671974950342229,7.73116717240221618112628,4.27369803300668316126121,2.03235635403914516317059,1119.0554620519189938932,1134.21438316959597614186,1121.27596358646837870765,1115.66600095639023493277,-164.465286793536051845877,195.556223020585093763657,-295.681606044703300995025,30.305831983589953892988,148.528110676234263110018
47.0600000000000022737368,-0.748349296570293587294032,-0.332289452774174209892522,0.310025990488645430964709,-0.00732051673146319123453019,0.03378785521032682398479,-0.00975384320440348361047622,-0.00143779425101915256379748,0.00203072639912864252170754,0.0624695624743556651714549,0.998043712392056914239902,-0.023289815518683806144784,0.0276979033175818109557831,9.78278222740686942415778,-0.022654776948237961842203,-0.026729001520817748799308,-0.00182177321677268514409087,7.73112374432818505454179,4.27362474006944115245687,2.03235282487585289246113,1118.66851415977635042509,1134.80361290602286317153,1120.79468453867025345971,1115.84202508981297796709,-91.8810962846676488879893,231.090503228615489206277,-46.5456016603400897224674,97.6792560545118817572074,148.527081373008940090585
47.0625,-0.794331054236355083020271,-0.386646163806454168376803,0.099116846341162079259135,-0.00834501484115735166213756,0.0326676420081941781825563,-0.0100872869214894238243385,-0.00145493440765295757241549,0.00203591008622077285911134,0.0624578898260669118647215,0.998044413452388146090755,-0.0234184882168850111439085,0.0304318200964703092226138,9.78170066901870249864714,-0.0225299020375601018184586,-0.0264982264656414452652644,-0.00190502997305702853961251,7.73108232507315040749063,4.27355081890338706074317,2.0323474353535395664494,1118.59605657049542060122,1135.36983568573964475945,1121.0432355781665592076,1116.15439723666304416838,40.1857921115062595163181,237.17705045495421245505,233.769927342413012638644,150.577679655453323448455,148.526225886132465348055
47.0649999999999977262632,-0.861719761708641840414202,-0.4386553961833707937501,-0.0866309477963319307658452,-0.00943846466305240001937182,0.0312787575298043782345836,-0.0117166945625611380182862,-0.00148290465218549219299227,0.00203742634123458112374583,0.0624481815467972448119305,0.998044977129061261500453,-0.023694014112154937468091,0.0326174203247162203256337,9.78065647623534495380682,-0.0224139930343695732706255,-0.0262531162585411086130005,-0.00198228687630366395139303,7.73104156920691210075347,4.27347652607358696741358,2.03233948845277190287106,1118.86944312033369897108,1135.98949815829655562993,1121.96353417538125540887,1116.59491348808955990535,164.083712955250746290403,255.654252687469295324263,468.155590514685798098071,186.366483059641865338563,148.525374796726680415304
47.0675000000000025579538,-0.958174481549783685352395,-0.474968024483888473508131,-0.234534957365197888057295,-0.0108936346172921610930828,0.029800334112382895895843,-0.0133982166580706024694436,-0.00152117510277857258954581,0.00204307867744696943640426,0.0624371208431115931603017,0.998045595144869457371328,-0.0242515098728644101777618,0.034236700754440435590098,9.77962307263485364217104,-0.0223071996339871889136752,-0.0259937918357404269820154,-0.00205205516331033758700708,7.73100030001035509741314,4.27340144140656885696217,2.03232907635993287343013,1119.41647513527209412132,1136.64810694917764521961,1123.38401353074118560471,1117.08622965196173026925,262.843288005480758329213,273.402282229877698682685,662.497522498303965221567,194.505270775553611883879,148.524528794144970333946
47.0700000000000002842171,-1.09132924668115394162271,-0.481833417111421302703178,-0.338130293217199284772079,-0.0127656131234564797216624,0.0282197254941976699571526,-0.014349333393078513021468,-0.00156797166027480209919698,0.00205756095264047990031631,0.0624211850229906550779901,0.998046480638421606990107,-0.0251627914006801629842602,0.035296127038680721876851,9.77857390243744895030886,-0.0222087501690590126413039,-0.0257209175376462879925032,-0.00211335336817154847630085,7.73095807693730563414647,4.2733251228155317846813,2.03231722100043343814946,1120.18365956036177522037,1137.35650956944664358161,1125.27602178787446973729,1117.56743984196782548679,343.522709233542173024034,321.597543987783524244151,895.283216312641570766573,196.542529450104240140718,148.523690565186115009055
47.0724999999999980104803,-1.28327999967413575177488,-0.450672127236136921268894,-0.426837413717629399201314,-0.0153165971881719757685669,0.0262648235434470092575232,-0.0146389780815992086998589,-0.00162031994155217439097794,0.0020819781851103341327458,0.0623982814851467143535402,0.998047766661719348846304,-0.0264280241690860243086725,0.035826355561507483571404,9.77748418718019074447056,-0.0221172070879328067083414,-0.0254358527363255544628817,-0.00216596325819635050075052,7.73091414687145306317007,4.27324870536861123326844,2.03230512439053656592591,1121.13408868143824292929,1138.25609466911510025966,1127.86042961230032233289,1118.0689422992113577493,317.024343614113320199976,331.97217809525977827434,961.560566421266344150354,169.082047652004717974705,148.522695669305790033832
47.0750000000000028421709,-1.45359648856763157276362,-0.394702445189806294667534,-0.479457822863740279473177,-0.0176474774079702495521715,0.0248199332629729096932891,-0.0148063209831060926119362,-0.00167367466073314917832104,0.00211472529832763865911827,0.0623701197111080560264718,0.998049356357904149383842,-0.0279930283783166207467463,0.0358917145044007207532744,9.77633275179787197828318,-0.0220308332816846301482894,-0.0251407140501884000804989,-0.00221056918012397206341202,7.73086825478550920820453,4.27317329356910224902322,2.03229337487245587112739,1121.76878127843315269274,1139.01637045992379171366,1130.08382461998326107278,1118.41285008022828151297,185.298216380075047027276,290.86133783460934409959,859.270482870912587713974,129.3285886283931631624,148.521877103582141899096
47.0775000000000005684342,-1.60170878379257985990591,-0.31883796709394662816095,-0.506683066232690215713319,-0.0206678490040804810345954,0.0239090104388162347226476,-0.0159524926856741793013139,-0.00172341821792915041861027,0.0021548615243297693754021,0.0623398377540102799354571,0.998051063063077337211837,-0.0298180601115967496006487,0.0355663443737179035819551,9.7751040218142399851331,-0.0219477503110884000769865,-0.0248384842951218133555447,-0.00224895604258717757978348,7.73082030084441917949789,4.27309991838204172864835,2.03228306615678322444296,1122.06057976333909209643,1139.71040135828889106051,1132.15678202665708340646,1118.71558524235365439381,27.9027621775893770461607,262.954530846866816773399,835.243565666073891406995,140.622979853733909294533,148.521070979395375388776
47.0799999999999982946974,-1.69958856980268957492797,-0.222963055146468441813923,-0.496513040443993969308423,-0.0257669936248777764475903,0.0235243745864442306559017,-0.0184246411319923600324877,-0.00176500823730846626534452,0.00220192769562239367905909,0.0623089783491753215760589,0.998052799514444144435288,-0.0318753009871555331722348,0.0349321291253626015071987,9.77378965515775277594912,-0.0218660963348178694065638,-0.0245329829706711598225066,-0.00228385011189668942627184,7.73077031975277506603561,4.27302988613504641790541,2.03227513047575270022094,1121.9082950893209726928,1140.33114311415693009621,1134.26004244830983225256,1119.11596497949631157098,-138.672763969427251140587,169.409305267031157882229,686.051395506696394477331,166.254393119658260502547,148.520119664409037341102
47.082500000000003126388,-1.67277806657587624350469,-0.150459171982154554791933,-0.448435318785058323332038,-0.0311631679338741675311386,0.0236325150447741043346905,-0.020502348560662134874244,-0.00179725928259390319192967,0.00225471986711356028876274,0.06227704281470115843522,0.998054602356217235303859,-0.034129026277339886974449,0.0340137423199644711724332,9.772390244211226928428,-0.0217843046382092987711676,-0.0242285343732919523918046,-0.00231873547504724171475221,7.73071864602730585147583,4.27296403329372243007356,2.0322698416096987017454,1121.36721594349160113779,1140.55744788462448013888,1135.58703900419232013519,1119.5468572079523710272,-282.869067715765481807466,4.90983033650740097186826,429.133062944682592387835,202.783135848299878034595,148.519341389760143101739
