t,ang acc x,ang acc y,ang acc z,ang vel x,ang vel y,ang vel z,quat x,quat y,quat z,quat w,acc x,acc y,acc z,vel x,vel y,vel z,pos x,pos y,pos z,mot 1,mot 2,mot 3,mot 4,dmot 1,dmot 2,dmot 3,dmot 4,vbat
33.5949999999999988631316,0.314115421979387021700347,2.77090796102599412620293,0.755581225165875114413438,0.113768719156395220482025,-0.0526091980891783828067076,-0.0953561409394649284188006,0.0225332907286993310014278,-0.0144712348419674865368512,0.0147377692383033071649168,0.99953256642293697442625,0.0370541576386816257082657,-0.0317575628977285751020077,9.85575350383543735688363,0.0654870347367099009394664,0.140579036073446961285782,0.00058022145792572220324157,4.57970916755663637331963,-0.967539825563311195466554,1.75518313857983443426747,1150.9822502296153743373,1123.36057993579674985085,1149.21569530190322439012,1139.15807937561066864873,16.1817202360824907714232,230.225013943182148068445,-483.644277891724357232306,175.31824011234800764214,157.145736069868917184067
33.5975000000000036948222,0.269026215477830010769367,2.85919785977588114533887,0.788605379031170006243201,0.115689554675618630485978,-0.0440445094997468158948273,-0.0926629562583914934137397,0.0226898610773135882279217,-0.0144586377457963030646049,0.0146538573316161921389345,0.999530389542552799575503,0.0331720606006410539956519,-0.0304771986689454654761988,9.85294209098756113007767,0.0648435872177586386522208,0.139797584712937961182178,0.000660222832052947614100979,4.57986535860671928332977,-0.967184684661222093815525,1.75520259398832956243552,1151.181646968185532387,1124.26094337144945711771,1147.80433520873839370324,1139.7125283047353150323,138.35569404888900635342,488.864700577482835797127,-656.652949176560127853008,256.996935728152891442733,157.145897857708291667223
33.6000000000000014210855,0.124721456903188171461139,2.79812698951300653504859,0.756645551757100465195549,0.117554054828861526127426,-0.0357558236015220881620635,-0.0899310264713040902195829,0.0228610360000500549559899,-0.014455009967706012111166,0.0145626964867045759211006,0.999527818145983570907731,0.0296445233144211305054139,-0.0288225732705296444624565,9.8503029206822176888636,0.0641823851696951275247471,0.13901264864183163205702,0.000736309243949119680838766,4.58001910663767297648974,-0.966832624356239511698163,1.75522211103410552546222,1151.67402869986017321935,1125.80490343868541458505,1145.93243055601874402782,1140.44306405425209050009,262.102494008069811570749,783.788748835680735282949,-883.012693797702922893222,332.733316153628720712732,157.146066516353585029719
33.6024999999999991473487,-0.15538439545253884821463,2.58079169317488776869141,0.650482296129857195943202,0.118832167497793336763401,-0.0275167163153939471620379,-0.0872172581646546846156909,0.0230438164474010206972387,-0.0144617784451622315156083,0.0144632081377191173271468,0.999524916895848436482197,0.0265461266583994041912131,-0.0268676590193385467220111,9.84784432076952320755936,0.0635062070282549767652469,0.138226749852178670829872,0.000810147816047200944322704,4.58016912542582588230289,-0.966482622689491921441629,1.75524151085027035890107,1152.49215943822468943836,1128.17988711562429671176,1143.38927173975389450788,1141.37619488550194546406,311.5587618818378814467,912.264007203099822618242,-939.838550836995068493707,335.187887621042534647131,157.146282128248856224673
33.6050000000000039790393,-0.454775575607697379876271,2.31431301727645966082036,0.521157498719453049496053,0.118723045811664248971873,-0.0222842573839921592737667,-0.0857142812192604880427993,0.0232282152771158822979203,-0.0144771664032062683663549,0.0143561271208712103869543,0.999521929734397907019172,0.023880441423108574733325,-0.024825104983386997448136,9.84557492707034143109013,0.0628186057266284098021814,0.137442066246221905601033,0.000885264367582292051317427,4.58031499847339063080653,-0.966135238571164345344755,1.75526107930657437883326,1153.23182250927015957132,1130.36622347470324712049,1141.23323780183136477717,1142.11900349235816065629,270.541062056506973476644,858.243723129059844723088,-813.950287198478804384649,280.823409919041353077773,157.146476852435739601788
33.6075000000000017053026,-0.781211964844211514957806,1.99873602015432227929637,0.373578678000107966550303,0.117136620647498038150225,-0.0181698345831272020656222,-0.0850590473260644103215,0.0234101980563089263898124,-0.0144987522830119942157667,0.0142423680897956067559207,0.999518970888206959024558,0.0216340499980199711671514,-0.022791821080878627014954,9.84350122677532723969307,0.0621230625120750001855185,0.136660622248941709955261,0.000963090535049635453057615,4.58045687971776338542895,-0.965791378072118122943834,1.75528078259853770326515,1153.84486474850791637436,1132.47110573127179122821,1139.31952030375941831153,1142.78031193509787044604,198.752500907083913261886,847.728394015482763279579,-721.280467195193750740145,276.260741417150939014391,157.146692214831261935615
33.6099999999999994315658,-1.15107033574840755818514,1.59210228273463871850879,0.200041022714100180657226,0.113498151252332091232233,-0.0135587709768149062422582,-0.0851270986899009679538253,0.0235889284390662541668338,-0.0145252557788833579210941,0.0141223302973588725472975,0.999516074864726045134944,0.0198109148885465095879521,-0.0208031582704970852137905,9.84162928552871818510539,0.0614224511630344152668393,0.135884213755251892497,0.00104356617397503414340632,4.58059588812337015184539,-0.965451707286936966490032,1.75530122327411985949652,1154.22558501380467532726,1134.60486544477680581622,1137.62683546585867588874,1143.50030719944265911181,56.6818050606859102913404,687.409007191115392743086,-481.069781303250294968166,263.145304440525364952919,157.146980593574511431143
33.6124999999999971578291,-1.40808238068895619221621,1.24081686314905947909892,0.0682813502077006528878655,0.109293129984053591363669,-0.00989623375843459544831671,-0.0856351554928306973879515,0.0237583544898027354541625,-0.0145609851631908100710877,0.0139976027564632562322222,0.999513300140365323898095,0.0185174458777922316954356,-0.0189982649740866038623466,9.83996787142366713396768,0.0607193021171334307295453,0.135113885912270303979454,0.00112699194718542203969003,4.58073361462381090092322,-0.965116643015721531462248,1.75532207830051611985311,1154.12827377381108817644,1135.90815076722424237232,1136.91417139724535445566,1144.09603845729930071684,-140.339713971089679489523,408.38264669352639657518,-113.856163294200044333593,255.705321864939975284869,157.147250386703973390468
33.6150000000000019895197,-1.58874033400180514341571,0.887899325135012018606062,-0.0517096898199255333716806,0.104483510594714557040419,-0.00701907845572955456370234,-0.0862397295116691109395646,0.0239140677219174674350555,-0.0146047449861983653918163,0.0138696242948082686108346,0.999510747506742514012501,0.0177468295475452890463952,-0.0174808994565865682968564,9.83852828621770392203416,0.0600152353268224095228511,0.13434981468443096819243,0.00121353643372119034127277,4.58087127108413838527667,-0.964785292563154484035692,1.75534335906980198949157,1153.52388644394886796363,1136.64677867824548229692,1137.0575546493873844156,1144.77883380876801311388,-325.44795028499441968961,207.156897455009556097139,198.823201250696143915775,299.133803595288327414892,157.147555861052438785919
33.6174999999999997157829,-1.70379425416218421851511,0.545782912609523829239322,-0.172458444409747085890316,0.0997692453510966165142193,-0.00514704937833519639983626,-0.0865954182628727586745754,0.0240599942457541023099754,-0.0146587416873981361137291,0.0137374361078642630989988,0.999508302228305112180351,0.0175571579041375290530791,-0.0161892671132612686601959,9.83732238660801172613901,0.059310530463885562102444,0.133591272377831193907127,0.00130044573757465576485659,4.58100861931530012327585,-0.964455565941774395355424,1.75536517366063282707955,1152.50103402238528360613,1136.94393525449982007558,1137.90828740349934378173,1145.59170747527650746633,-494.307852016885874490981,34.9166572433067941005902,483.333542305429830321373,361.357920155488841373881,157.147894274524759339329
33.6199999999999974420462,-1.75205431533934175014622,0.235147297545698019671789,-0.312096046606493482400424,0.0956761898479693562169501,-0.00451221980282697984754314,-0.0864608968849602393946796,0.0241980497737936325886032,-0.0147221479376486372170341,0.0135983462966782348013695,0.999505968272222822257334,0.0179423443591895208359954,-0.0150963396644401004476066,9.8363663014060733758015,0.0586045123937436254757394,0.132836418209618944974437,0.00138567452057591824349236,4.58114558267141802616607,-0.964125540807427960920961,1.75538765410534947086774,1151.05234718386668646417,1136.82136196446185749664,1139.47422236091233571642,1146.58562340954381397751,-698.61732061904785950901,-110.281772673250060279315,788.824137336365538430982,470.558195276485378144571,157.148275881269341880397
33.6225000000000022737368,-1.75488853184372284310655,-0.0790877489425045460125219,-0.517493338233291022554283,0.0916334474759965683654528,-0.00482062361663901893515938,-0.0860272908955916626450033,0.0243235474521533642788818,-0.014786443111465681979344,0.0134540019781014853761381,0.999503959849622369837618,0.0187386817425965017391842,-0.0142963895358031722881975,9.83568217220263107947176,0.0578973505019137746341329,0.132081766646014620025795,0.00146964660973814692512818,4.58128220991890788837964,-0.963794081759754561744558,1.75541165354185224600769,1149.00794741928825715149,1136.39252639113328768872,1141.85240809018318941526,1147.94449845166013801645,-765.835983603364411465009,-172.615299328120187283275,894.276134560911486914847,510.65100942038293396763,157.148787491546812589149
33.625,-1.72134595050701100227286,-0.280831271026724227368732,-0.717181557728791552186465,0.0887195783633049767091805,-0.00584303843893435852913099,-0.0860608708093888868928545,0.0244341165599489991422377,-0.0148449624214167415214849,0.013306656049837606303754,0.999502401015814334606091,0.0198161755522122777495309,-0.0138320480888551033959999,9.83529468740304579910116,0.0571893048676851978306956,0.131323077290719791854201,0.00155186246597254027396184,4.58141786939820150337255,-0.963461101400926334115127,1.7554377230132545140151,1147.22316726584790558263,1135.95828546782081502897,1143.94560303371918053017,1149.13887845664703490911,-689.47006473835199358291,-156.963568281805208926016,788.053887718740952550434,466.829456915517596371501,157.149260768035361479633
33.6274999999999977262632,-1.64508693988228937854501,-0.415410461415089415915247,-0.919784452066469637721013,0.0856383199530584282577195,-0.00757203005241503888239629,-0.0875186943791007171400409,0.0245324948987111074449885,-0.0148938865985300105537759,0.0131601458929140185949436,0.999501230201507606665245,0.0210986038802793950119874,-0.0136391258388771363652126,9.83522949454540551528225,0.0564811431140805689232742,0.130555787094973285711319,0.00163030658047154473205831,4.58155188356900389123894,-0.963127286911352853415735,1.75546642757653592603617,1145.56059709559963266656,1135.60770854972497545532,1145.79267752877331076888,1150.27864573623560318083,-668.425124493909606826492,-110.612620895961100586646,691.380213022522298160766,461.467303395684609768068,157.149784750579982528507
33.6300000000000025579538,-1.47528897468328268338666,-0.509429803301846950702725,-1.11515519985562527871537,0.0808322644348368202216193,-0.0098445816107278569934147,-0.0910750998996017330222585,0.0246209533750393234907694,-0.0149373274293324361655655,0.0130183216034618770562403,0.999500279023932680644293,0.0226622252852373522180596,-0.0136582165752370532363358,9.83551336271934317778687,0.0557738770321600657586814,0.129775654135072276984531,0.00170271091114685031719933,4.58168440923675390763492,-0.962793650760917274489259,1.75549677244906998652141,1143.88104164337664769846,1135.40522236334072658792,1147.40250409883356041973,1151.44621497362663831154,-552.608654705717640354123,-32.4665046583793213130775,463.234970346674742813775,378.886435911396688425157,157.150473654172458282119
33.6325000000000002842171,-1.24284318610318345044163,-0.550684025569342705530573,-1.20108662263232335298824,0.0760079533303384125009217,-0.0114007140178317839529498,-0.0948948269466070443156624,0.024703967358245815244544,-0.0149806920608152628615617,0.0128810889214748380132702,0.999499359239112816766237,0.0246064519007905095626665,-0.0137821424442167439483597,9.83617244026831905046038,0.0550677097384397185031446,0.128979601455590647818283,0.00176690092450495703224611,4.58181567276576640068697,-0.962461247841265854496839,1.7555278261033622211329,1142.79755382206963076896,1135.44537602643299578631,1148.10885238050786938402,1152.17307791579355580325,-374.03954365456598907258,50.7037079733442652695885,147.162294701044771727538,228.499635892174865148263,157.151098422228784556864
33.6349999999999980104803,-0.900654278708198807734675,-0.585095968250416764711019,-1.17655379460828801718719,0.0714732332855465141152607,-0.0121158490309619289171383,-0.0990421273617530101285311,0.0247873219760133441103012,-0.015028200769375608600309,0.0127442455179380582930282,0.99949832392868953601095,0.0270044988853132793271694,-0.0138743093502714798237463,9.83723104538536752272648,0.0543620516745934936886364,0.128165942511416414140157,0.00182146839340296962106436,4.58194576743115256078909,-0.962129897820780177752908,1.7555584644950581463263,1142.01084392510551879241,1135.65874090320721734315,1148.13831557233811508922,1152.58871315308647353959,-302.449138129377274708531,108.733349600869445339413,-117.055310849658923189054,108.937773266405855565608,157.151776024788262020593
33.6375000000000028421709,-0.382528201990220528827535,-0.651262072519343204746178,-1.00901178625370935293404,0.0680802603015794594032428,-0.012198759636696119429411,-0.104129240504159364943959,0.0248741033453511277417913,-0.0150805857004286184008812,0.0126040303707276018368999,0.999497141001563838003108,0.0298558064731722881679499,-0.0138478024169510494090218,9.83871126771412640721337,0.0536567754092422549705432,0.127334003257296157762823,0.00186704003162329809639708,4.58207529562654070076633,-0.961800031591707238476374,1.75558798943501437328507,1141.28530813142197075649,1135.98904277443762111943,1147.52357582625927534536,1152.71776678212586375594,-251.709251861719536691453,110.122727897522111106809,-299.184680148511404240708,-8.51327038767086463622036,157.152650157554546694882
33.6400000000000005684342,0.101534177357278598829993,-0.736465532403524414384322,-0.767396907074161194195483,0.067603732010749484349077,-0.0125413149618567882487286,-0.107877925702435470411977,0.024961650475116264197295,-0.0151295020118337626702232,0.0124583998251104905580222,0.999496031793706052326343,0.0329745326464355725804012,-0.0137259074678244830103324,9.84063271925588445299127,0.0529525954650479219187886,0.126484102030641309966086,0.00190745396217801167076944,4.58220358740164623867486,-0.961472280096901665835674,1.75561609745273039528968,1140.75229766579627721512,1136.20935454269510955783,1146.64239217159479267139,1152.54614680114809743827,-219.926485280775466435443,50.5645154545168793447374,-377.935829945934472107183,-112.487087903321011594926,157.153429206279497520882
33.6424999999999982946974,0.583980242283828276939062,-0.841266378089578159560347,-0.462300035052083446718285,0.0693030719710561460278342,-0.0141938818114862030927981,-0.109937121465381509866077,0.0250481320671445441272684,-0.0151692641983509624026283,0.0123101158183597913370333,0.999495095269786193448169,0.0362210121555893299616358,-0.0135172527017774213309309,9.84300801976833028561487,0.0522520065823791901582496,0.125617279960047345532814,0.00194659070720511716279244,4.58232947182077410275269,-0.961147619618852644407525,1.75564256772392712768749,1140.18567570501909358427,1136.24186535170997558453,1145.6338966765313216456,1152.15533134260977021768,-240.917400078082636127874,-31.2781231301709397030208,-386.466889331070547086711,-179.466419101208032316208,157.154260278160734287667
33.645000000000003126388,1.02734020086674804339566,-0.94325343325749433365246,-0.15082141952972658027754,0.0723463072254958428075611,-0.0168839073823074357905138,-0.110024840439735593911053,0.0251366207574936113833264,-0.0151959121567913201661382,0.0121653346084164767915148,0.999494239338806211847555,0.0394842348322911596003593,-0.0131378286435943902876744,9.84584022087163113212682,0.0515588260148501231761031,0.124735429282902640646391,0.0019872430571965171361426,4.58245243495064347172274,-0.960827113685860489944446,1.75566775319547763167805,1139.54771066540524770971,1136.0529639270441748522,1144.7100577249384514289,1151.64881470564159826608,-272.820054438076624592213,-132.969664126562946648846,-313.810286439205356145976,-216.185502230954085689518,157.155133948000866439543
33.6475000000000008526513,1.39304733109809930624579,-1.0211719520543491857012,0.113063086715803812198899,0.0764804769266287653994851,-0.0201460033318236649002575,-0.108172535034239292173197,0.0252321088414064163829575,-0.0152120742122689982939177,0.0120258491086547274900864,0.999493276364845306680706,0.0427782507310753845608531,-0.012474140832173158388585,9.84912191940743930729241,0.0508761311953817643716214,0.123841861572964034854394,0.00203123593658466761874282,4.58257178051939018104122,-0.960511390769050898974513,1.75569181140116503669901,1138.82157543282801270834,1135.57701703107682078553,1144.06484524433449223579,1151.07440383145444684487,-328.957480949592479646526,-266.086061431557084233646,-196.669684604509399150629,-256.7484239623415760434,157.1560581225569990238
33.6499999999999985789145,1.72588555919255104420529,-1.075092013923629519212,0.329646019949733526388513,0.0818372150856856855893895,-0.0238526761369674301926924,-0.105274404219718786812621,0.0253413997483935976573477,-0.0152208022549987845306596,0.0118915882457069615324441,0.999491989326497187740017,0.0461205021120921765387379,-0.0113846259379313530235578,9.85283499738609158669078,0.0502065768498563269606194,0.122940721733925006908805,0.00207995743044599949028717,4.58268728165959782216987,-0.960199930366919418567306,1.7557158096500831145903,1137.90292326065878114605,1134.7225336198875993432,1143.72670930191679872223,1150.36507258583105794969,-329.925970275293764188973,-345.579910262909493212646,-52.3163595747706224869944,-261.045472265598789363139,157.157224137858463564044
33.6525000000000034106051,1.91673332288544084889281,-1.08904237965145367361686,0.420265693669584272651463,0.0862583028137958590653156,-0.0263998800802157616851584,-0.103229135609841871090708,0.0254599794773844381734484,-0.0152270872953023227863723,0.0117624692345959513950504,0.999490412150324525342171,0.0495587354888805953212483,-0.00995929756567456858640242,9.8569538500644906520165,0.0495526024073888737841997,0.122036382434682663666869,0.00213738179343117302294575,4.58280014600291174531321,-0.959892574529811914985089,1.75573989372282190934982,1137.17194558145070004684,1133.8491174797613894043,1143.80326344646050529263,1149.7691764701257852721,-261.839669059738923806435,-360.66897375503424427734,86.7140988058519894821075,-243.089360942497705764254,157.158242133829531894662
33.6550000000000011368684,2.02675838218889659003707,-1.07788097996976284242976,0.435315638466668930472991,0.0906172742370155714919377,-0.0284646537706747942975127,-0.10198751495427821334161,0.0255831667581529025035092,-0.0152366452163405184661027,0.0116358575898445285728977,0.999488602406126469546166,0.0531511675000958805359375,-0.00830069881053144276172873,9.86144212957324484136734,0.048915507284343823224404,0.121133464308313287816077,0.00220737763437147023470875,4.58291139048890627805122,-0.959589330461992906506907,1.75576339938320313827091,1136.59372491535941662733,1132.91918875111150555313,1144.16027979594628050108,1149.14962578111794755387,-188.258403040561688612797,-396.839658803671056830353,187.128906573240897159849,-287.432456241992838386068,157.159306728683873188857
33.6574999999999988631316,2.07296026663636556719439,-1.03787072544622338554632,0.401010784149578247692602,0.0959637875439754289841332,-0.0307467620213463035949708,-0.101329309402919051641412,0.0257108768592032126132363,-0.0152539706567183883795247,0.0115096707445555765381151,0.999486515365316519066141,0.0569296650773816609314437,-0.00642861922779350281054178,9.8662517972364813800823,0.0482960681100693053902084,0.120236272154982698490144,0.00229269348145904857186328,4.58302145886955791809214,-0.959290321740310036879862,1.75578544325221841404527,1136.23065356624874766567,1131.86491918574483861448,1144.73890797932585883245,1148.33201418891712819459,-55.46419380372645235866,-360.304155846231253690348,208.057387180299855344856,-319.326839566447574725316,157.160636570075809004265
33.6600000000000036948222,2.03970130084552581095636,-0.976000288704713891974052,0.352544318832395064955421,0.100711287678198632700166,-0.032806869305001103154229,-0.101171355852585520551656,0.0258475328855403176098182,-0.0152840329305128988512941,0.0113832954943009507370322,0.999483968903398412031436,0.0609341897715188762774119,-0.00428102131599963908747952,9.87132344983693776896416,0.0476947680539445625913508,0.119348416392399916952094,0.00239470016772914658445548,4.58313103890051465327815,-0.958995284939329284412679,1.75580575674168071209635,1136.31640394634064250567,1131.11766797187942756864,1145.20056673184831197432,1147.55299158328489284031,138.787708834499369459081,-255.814747783784781631766,146.980762878017515049578,-337.336911733846363858902,157.161787396986852627379
33.6625000000000014210855,1.92644825996481783292325,-0.868753576217676681814339,0.30154401037339956248573,0.105777687498721684189462,-0.0353227817904702215412449,-0.100935012869546147928901,0.0259940922325229244183031,-0.0153254952365209813625047,0.0112555736278846154480027,0.99948097361245646919059,0.0650787989119727544595762,-0.00186876866871374391898541,9.87659077266624052526822,0.0471113348807628701253591,0.118472699946950726923589,0.0025157256836835818758491,4.58324006816807649755674,-0.958703495615366718674011,1.75582571852160174152857,1136.92459211042159950011,1130.58584544682526029646,1145.47381179371632242692,1146.6453296302470334922,408.051320633610941968072,-168.876686926859179038729,47.1240846363317587019992,-429.07340989129721720019,157.162981468123774675405
33.6649999999999991473487,1.69351576833075578853993,-0.669173179939655971004697,0.24480590177451447275736,0.111805170339847298466296,-0.0387237121418912214054764,-0.100388968915603532527925,0.0261439542283052432647406,-0.0153699935668498936097714,0.0111261605650068897549465,0.999477831985336795384001,0.0691373494846775626943014,0.000645445312263015491538454,9.88198355813890039200942,0.0465451727741755180711714,0.117610748309677215495128,0.0026598594131007338367545,4.58334786664120574783965,-0.958414255613199594918683,1.75584691174698948046284,1138.35666054950684156211,1130.27328453724589962803,1145.43618715502975646814,1145.40762453383035790466,648.189529709621069741843,-51.1860112044098158889938,-85.427334588122860736803,-474.995037391120433767355,157.16446339548042487877
33.6675000000000039790393,1.42253226357085948983183,-0.439661755490286854097803,0.201454640280659819095987,0.11623099842623629829319,-0.041346739604222755570806,-0.0998507520070792686794903,0.0262934478104225564931706,-0.0154113138028996836392803,0.0109996218641631587908947,0.999474680961503159082326,0.0729276628132367737977759,0.00315474334720780569263354,9.88742456880320830236997,0.0459964354680673995212636,0.11676257723631247587015,0.00282958924014618850087399,4.58345396827823048369055,-0.9581268265477101975236,1.75586995369650344933632,1140.16553975897136297135,1130.32991539080308029952,1145.04667512077548963134,1144.27035444329021629528,845.532564277504548044817,95.2925219946304338236587,-226.34922001782132383596,-472.086082781183392853563,157.165738641300777089782
33.6700000000000017053026,1.08796488468436169938514,-0.158564460469760692973296,0.160814276904481245900058,0.119471288703602143699278,-0.0428088588882998555273929,-0.099375024893139513038065,0.0264391231569292249614644,-0.0154510134283188538956155,0.0108804993285567929567348,0.999471532269750828625376,0.0764246086136197710914075,0.005555006873584761306617,9.89283085422983177181777,0.045464920825555088512715,0.115927044969209455671511,0.00302615338893372784814795,4.58355915990221074451938,-0.957841054722956664058131,1.75589465061516825095111,1142.58432337089652719442,1130.74974714721929558436,1144.30444105494007089874,1143.04719411992323330196,1053.02727635271639883285,228.089758533567959375432,-339.641798790389316309302,-502.969265356253345089499,157.167055205562689934595
33.6724999999999994315658,0.719000370892664331101685,0.14165574824641657958324,0.121662205467312323214912,0.121560099126161336169361,-0.042739124161857787453922,-0.0990296302812295053952241,0.0265818119947402453639995,-0.0154937832961737648879152,0.0107680437516414345688887,0.999468295427510589057363,0.079671844755779583358013,0.00782806928516183164745712,9.89811471076431637072801,0.0449488230733953234019573,0.115102440256508939397939,0.00324925044344111539282305,4.58366440235962446791973,-0.957556805208507277882291,1.7559200501065932442657,1145.43067614073015647591,1131.47036418346988284611,1143.34846612682508748549,1141.75550811651123694901,1208.47854202525786604383,351.105887834593090701674,-401.853049613147845775529,-538.918838235566795447085,157.168405739717371716324
33.6749999999999971578291,0.331913014827947883134129,0.431606717443347220886096,0.0838090116193658113408205,0.122209541113678821222521,-0.0409233935257881376035272,-0.0987582256387413703890843,0.026724063200319808641936,-0.015542490316331005612005,0.0106604080306904498709475,0.999464877439939836101246,0.0826835252370410472844142,0.0099949555481989582617075,9.90318717698243844438366,0.0444458050452816721964666,0.114286177291719234783152,0.00349819608295600086717014,4.58376950440060770830542,-0.957273738311703148440301,1.7559447439334208151962,1148.6267160810173209029,1132.50527658639066430624,1142.29517580687615918578,1140.35259992874784984451,1428.95521468749052473868,499.705739970721822373889,-435.192253020072882918612,-655.16664679738050836022,157.169796831823077809531
33.6775000000000019895197,-0.130593861998327509521545,0.737822453270721489992923,0.0396756392279943442824575,0.121620792199532673505402,-0.0377875628042290620522969,-0.0983688462269989988273622,0.0268655774608773656453309,-0.0155961530898961597130237,0.0105519538570601843080476,0.999461363310208961152625,0.0854045880526077688665865,0.0120273990242766026792509,9.90796197891549113023757,0.0439525400295266918671011,0.11347512102348054907619,0.00377306209584292928313487,4.58387364138155017911913,-0.956991063084435933383531,1.75596825347600438149698,1152.57545221417126413144,1133.96889288332477008225,1141.17250486172360979253,1138.47967488252265866322,1418.09569438301173249783,541.01641297965727517294,-350.915907074888878014463,-724.487498211822185112396,157.171512211800177283294
33.6799999999999997157829,-0.506842076944333697063882,0.95286786086361863201688,0.00533160843350516822775065,0.120331811589798123862671,-0.0350779124365739602975367,-0.0980154357759382283132865,0.0270062307848216200112379,-0.0156497478853712505830753,0.0104386140762254032987588,0.9994578825474518257721,0.0877072249334866632652918,0.0139096147214793908197805,9.91235667051521396331282,0.0434660144794303121562606,0.112665323447281154334298,0.00407373440101389382855812,4.58397613786990376638641,-0.956708256932586653675799,1.75599094295591395820111,1155.71719455293600731238,1135.21035865129033481935,1140.54059627150081723812,1136.7301624376868858235,1169.34143446398525156837,452.276159042232620777213,-155.335637829744285909328,-735.145106704008071574208,157.17297924328144631545
33.6824999999999974420462,-0.875615320492306503652458,1.13617778199853924903096,-0.0208889424986652451343705,0.118452200393261569688619,-0.0324087698986552860680455,-0.0978441772482372129626782,0.0271452349413637966657475,-0.0156955803729021750592132,0.0103180924600651240802263,0.999454608230286534187314,0.0894184189322520667220218,0.0156220583192444029130286,9.9162947501495164459584,0.0429835491886047527110293,0.111852298300215369231125,0.00439971792992103864772258,4.58407650377726572088477,-0.95642468445468886706351,1.75601373387486070498653,1158.42215938648587325588,1136.23027367853387659125,1140.39582667257559478458,1134.80394934900596126681,1038.37101014766267326195,341.383166643307049525902,63.6861377616370916143751,-865.187624019984809820016,157.174483945298732123774
33.6850000000000022737368,-1.31988845514222563615192,1.34027917610890834332338,-0.0313898163034043928276695,0.115736700487192645248058,-0.0292460908717424306058064,-0.0980897171377445309392584,0.0272871697580763655777147,-0.0157248032455968092535592,0.0101887616084739771049605,0.999451580154071317352305,0.0903519964741025111143458,0.0172607517741298621682944,9.91970520613773487639264,0.0425024282939029385275376,0.111031579590867998663661,0.00474847709402082159002578,4.58417480839142488235893,-0.95613953139773300016202,1.7560377581427721871421,1160.90904960367697640322,1136.91727448450774318189,1140.85902696030916558811,1132.4042243175847488601,764.535478977104503428563,133.112642276660267270927,265.367293370719153244863,-865.756244058332413260359,157.17633124210618689176
33.6875,-1.6980672282999194067088,1.51121285810656336145996,-0.0138311570614690071412411,0.113153352820859212646276,-0.0265875889869757360550739,-0.0986212516672116956684135,0.027428390753447946803778,-0.0157324025255519174548713,0.0100540764457386546520956,0.999448945197133564732894,0.0904043867601463241312487,0.0187664814867936347031474,9.92252809758972276199529,0.0420208596883067247995669,0.110198700155461987160166,0.00511803043411976875398661,4.5842719216061125209194,-0.955853758351381865843166,1.75606370124252197939541,1162.24483678137335118663,1136.89583688991751841968,1141.72266313942986926122,1130.47516812871208458091,378.46401914528399856863,-141.646299347022846859545,409.040372530315892163344,-712.265880364804843338788,157.177903724697586085313
33.6899999999999977262632,-2.08118187367683082911185,1.6909752546843777043506,0.0364533056610756300841558,0.109716420631230479609819,-0.0237829460784509949533572,-0.0991490646057973379345896,0.0275662820594265965679082,-0.015716601606079575598196,0.0099206299562213887816009,0.999446738676711521343066,0.0895454651210929736260269,0.0201071102733531847928106,9.92471305308035489645135,0.0415374243611283319732586,0.109349947718650586381273,0.00550501528895728370338603,4.58436894705368125357836,-0.95556882964796119317441,1.75609293212550277019091,1162.80136969940167546156,1136.20904298777327312564,1142.90422882295888484805,1128.84289491576396358141,84.8940107900054954370717,-431.02364783608896914302,536.637997776732049715065,-594.519866824126097526459,157.179508255899548885282
33.6925000000000025579538,-2.52098157118500321161036,1.9075930922091242081251,0.13011111762368574029658,0.103900169962301933135329,-0.0197236769109350069950626,-0.0994465257044375161576966,0.0276940674119790231078042,-0.0156790935854246651914856,0.00979096232216815354210127,0.999445095998433119532933,0.0878234907089179422934322,0.0211722616712338995714759,9.92622246309120548346527,0.0410496076046374600010402,0.108483223717103227645708,0.00590608687148216644074994,4.58446640978305719471564,-0.955286948916614253590751,1.75612642181509270855599,1162.66930683532359580568,1134.74071865073597109586,1144.40585312831490227836,1127.50256879458993353182,-156.994884755260216024908,-608.016030135384426102974,524.838879481016874706256,-355.177220263976948899654,157.181467697894106549938
33.6950000000000002842171,-2.83983076943463563779346,2.06829998169816553499345,0.225593242145092215400481,0.0976493776467941138053064,-0.0151869468780659860190907,-0.0992701049290137804703704,0.0278095987490108685624701,-0.0156305407916429092707311,0.00966205600114822434065776,0.999443934226035390899767,0.0854760636471856988238827,0.0219447329516860023534974,9.92702821868014240180855,0.0405537980448834114999279,0.107598300521900183679413,0.00631597559416067523552218,4.58456419781535640112224,-0.955009559938487240238203,1.75616340621665489862835,1162.01639527562497278268,1133.16896283709479575919,1145.52842322036531186313,1127.06700881444317019486,-339.697430127070845173876,-644.989831394736938818824,388.66882702863102849733,-11.6596495888294704457167,157.183126405496494726322
33.6974999999999980104803,-3.06600873602869672396309,2.17475204373844688277018,0.321211109035194064542651,0.090183737876892322571365,-0.00933780600101721466876903,-0.0985657609135596607385921,0.027911929398241327321406,-0.0155755030124292512955231,0.00953331600633831530156037,0.999443210017745053974636,0.0826279634093837339614552,0.0224341179539590818148298,9.9271167512129032672874,0.0400470229393361104586191,0.106695969372401916475113,0.0067299023648294256302882,4.58466168106631233314374,-0.954737135616209542376964,1.75620210813351307344021,1160.97081968468978629971,1131.51576949376521952217,1146.34919726345628987474,1127.44427054664583920385,-458.306818445537089701247,-633.800483960061228572158,267.043637479218716634932,283.641471950059383289044,157.184808620041138738088
33.7000000000000028421709,-3.18441047611538197159575,2.21405026915890923433494,0.402107855020112647803643,0.0817344740644444511801225,-0.00289584264633855953050001,-0.0974393328993958390826791,0.0279960018025222218129855,-0.0155131131264306179606827,0.00940526697330126143503648,0.999443070114740428344646,0.0793026823148825082965274,0.0225689100751555460355746,9.92649087027062293486779,0.0395268378488157282046878,0.105777732335646024175446,0.00714490566431910494038515,4.58475849569231996838425,-0.954469583815527600201278,1.7562409901922839683408,1159.72486118339611493866,1129.99996041729286844202,1146.86364140776208841999,1128.48521617419419271755,-520.478037091158739713137,-532.584741265691604894528,133.602067511378521658116,552.139618284936091185955,157.186507599164571047368
33.7025000000000005684342,-3.14626024817913974018779,2.16050102303950364301954,0.449709668779357751855486,0.0724322192612077003781579,0.00348778344158091630627938,-0.0959723782774871553291618,0.028059085212123600905354,-0.0154447627498908099386021,0.00927614830186186678506743,0.999443585100655007558146,0.0755756593984277941222771,0.0223206412262847708749547,9.92516554350904023351632,0.0389908280092735523569836,0.104845762206350431866575,0.00755787661480741401048844,4.58485422562750155606182,-0.954206078339879582017602,1.75627929477707489525073,1158.36842949923266132828,1128.85284578743539896095,1147.01720760101352425409,1130.20496863807193221874,-596.323210315628216449113,-381.330668843958221714274,-1.29327292479619537779456,860.884434605269120766025,157.188223177696443144669
33.7049999999999982946974,-2.91288541769036424256001,1.99673001700715402328967,0.455482978852345288256487,0.0615345283843188525785273,0.0103176887959539453215596,-0.0941255927385725998934873,0.0280953625151290249661873,-0.015374111583268273290015,0.00914296985630257304233925,0.999444889676675551903884,0.071571731510516919949616,0.0215948939134454620525361,9.92316937125739961800264,0.0384369246477933926287029,0.1039024129860142697801,0.00796658216949084480029697,4.58494910149254142339714,-0.953945370733704889332216,1.75631693299568736321703,1156.74324513182068585593,1128.09330707307481134194,1146.85717504313811332395,1132.78963834721662351512,-582.850431920653250017494,-157.489236234606693187743,-101.24432297788466428301,988.196926316453868821554,157.190295979827936889706
33.707500000000003126388,-2.58256270038394175614371,1.79641825867307747266466,0.414441579552954519893859,0.0536955343210065785819474,0.014934821025556521342792,-0.0927307690250729760306214,0.0281066162552855193512702,-0.0153047305493594406472502,0.00900417497249455037189314,0.999446893664863278416988,0.0674181086859665795740781,0.0204429632035293684655386,9.92054034336645962355306,0.0378639253987140753099361,0.102950029124989100859366,0.00836740267660250613968032,4.5850429796118268299665,-0.953686819670264362969192,1.75635449155539968835171,1155.45417733962790407531,1128.06539960626196261728,1146.51098598612384193984,1135.14595326965672938968,-494.279338877342468094866,125.023659178422960280841,-164.00444238593786394631,931.783058930592119395442,157.192031061884904374892
33.7100000000000008526513,-2.16148403437453850983729,1.5591630372784446301182,0.32886063544823734838829,0.0476891606998562228580951,0.0183549557522597363290462,-0.0916510381890201925036976,0.0280986061313790343174635,-0.0152390944714101278512075,0.00886294941649807925532212,0.999449370431955363969223,0.063221165975094528732825,0.0189895011546588610151787,9.91732637242948200650972,0.0372721900844219383719391,0.101990641531402179142951,0.00875604220324997274682577,4.58513582628761806603279,-0.953430672353539065966288,1.75639301784409185280822,1154.2718484374327090336,1128.71842536896724595863,1146.03715283120800449979,1137.44855364187196755665,-493.926911790498650134396,441.123133335023453582835,-217.989380607803468592465,956.113403282466720156663,157.193769036419325857423
33.7124999999999985789145,-1.62675351360608799744512,1.26058519693742976386375,0.184029690405507651007611,0.0426317636083725637341502,0.0214196506956962420820112,-0.0907044337151324403523134,0.0280777878011157708271206,-0.0151837138039636280334443,0.00872229354345556949501539,0.99945201590008003744714,0.059166691599427639891573,0.0173651245771191675704159,9.91358452028328152039194,0.0366627838451080781401181,0.10102631436925413321859,0.00912780320650530448134408,4.58522783251913956803492,-0.95317705853061995835418,1.75643283812809203325855,1152.98454278067765699234,1130.27101527293507388094,1145.42103908308581594611,1139.92652028606471503736,-452.3545892100588048379,682.614149778342834906653,-221.93629221176266241855,844.641026430167471517052,157.1958515354621113147
33.7150000000000034106051,-1.21234413035918220380438,1.01154123251969862984367,0.0376251834602461601719803,0.0401922519412304113384238,0.0235177244195801382620203,-0.090202725059706320709374,0.0280489784790913659895395,-0.0151409898669835549234186,0.00858371347495207742683831,0.999454650650998921435075,0.0553563340741875381523229,0.0156608775324680593588056,9.90938176439605733492044,0.036037103848564934482912,0.100059218039466213401312,0.00947870578810586401907745,4.58531869510904765974146,-0.95292630485743912149843,1.75647408656002967930476,1152.01007549138125796162,1132.13149611786070636299,1144.92747137014862346405,1141.67175877402496553259,-374.984126441485443592683,829.721324110854084210587,-184.077549642730872392349,631.365789202295559334743,157.197579613428104039485
33.7175000000000011368684,-0.885819059404308606353595,0.763568447056983679033237,-0.121036972030969205982309,0.0393202734486180205397687,0.0254687719082025837424865,-0.0901207203366015535683786,0.0280137602823265878526637,-0.0151073680762373215025196,0.00844746440273039418678014,0.99945728897798313816736,0.051769249810685979973357,0.0138967813203004497690785,9.90479395726062961102798,0.0353969402530221674552102,0.0990915413973702252636855,0.00980599812099785042573963,4.58540748107499407382193,-0.952678648374235326201642,1.75651742393688281573816,1151.10962214846927054168,1134.41962189349146683526,1144.50065133487169077853,1143.08334923207780775556,-353.919535528351786979329,953.619503315534188914171,-156.833705853529721707673,519.868720013910092347942,157.199294682561287572753
33.7199999999999988631316,-0.657912750942772572848583,0.512200489591199126238052,-0.276481921013719100788109,0.0393971433975218651712957,0.0272606562703287258475626,-0.0904761792334515813074347,0.0279784489037413729162207,-0.0150785872416897837045013,0.00831507412712360546858115,0.999459812097711841616388,0.0483658277127707453280081,0.0121795123731009424794536,9.89990020557014460678147,0.0347450539536876407131771,0.0981253991794516500224432,0.010106340257077236349792,4.58549346389867462647771,-0.952433973715266390946965,1.75656344717761725426897,1150.24047781374110854813,1136.89959363443404072314,1144.14330284088168809831,1144.27110237409215187654,-348.391479772048114682548,993.5659794406466289729,-126.967181620901627070452,438.133875707129448073829,157.200995268069732446747
33.7225000000000036948222,-0.553351538362179984353872,0.252317290970988095111238,-0.409660463688787612746012,0.0397452630193761008436937,0.0286363677459046811479837,-0.0914431747615387924277286,0.0279446451706531345804407,-0.0150476966453187699368499,0.00819050796925666936554311,0.999462252035060783050824,0.0450455563506616529778626,0.0105162174518266815503864,9.89478427706859875456757,0.0340852259627023174148874,0.0971624981403099857724115,0.0103780962169285305429778,4.58557574232352838095039,-0.952193174557727339823998,1.75661218156129650402875,1149.36766474960813866346,1139.38745179069724144938,1143.86581542676685785409,1145.27401861061457566393,-393.040061694390658431075,1039.44257606173346175638,-109.046397319333351560999,412.075323993411245737661,157.202674318370299033631
33.7250000000000014210855,-0.540495413229689303236114,-0.0675552436164794933848299,-0.520640840641525715071225,0.0391472677061822788013856,0.0294917904260818299067015,-0.0933174507383458251563724,0.0279191030135200780881721,-0.0150107581319686433918292,0.00807728528450990697351575,0.999464452795430280396261,0.0417615854051036905492111,0.00900947637373047949260751,9.88952808691088236514588,0.0334215448973989581737953,0.0962044155760074654049063,0.0106193416967329135741638,4.58565375299427557820309,-0.951956171593767219718529,1.75666377625431846531967,1148.27527750526814998011,1142.09680651474536716705,1143.59807085428474238142,1146.33147899406026226643,-408.998529229765154013876,911.033814433822954015341,-94.1217281101163507628371,360.457286494748075256211,157.204659526284814319297
33.7274999999999991473487,-0.58379941795148249106262,-0.332477423517144210496355,-0.559662084982523899689966,0.0374291763451721423705543,0.0293732484848379001018959,-0.0952967203943025503720676,0.0279042976883665944098922,-0.0149710207715740891559753,0.00797415862711675985097237,0.999466306668644666189039,0.0386022892215109464375544,0.00767022420141247329716805,9.88421214654327506821119,0.0327573864001633810461023,0.0952524987721095478532263,0.0108298299922263939476519,4.58572795620520778925311,-0.951722393276470901568587,1.75671639701119230991821,1147.32267210346117281006,1143.94262086286221347109,1143.39520678621670413122,1147.07630504308667696023,-382.704067975814496094245,620.753778025665155837487,-87.4035136223945556821491,250.42350235576952854899,157.20628604126565619481
33.7300000000000039790393,-0.632486367665744730892641,-0.578874075056911796544057,-0.537458878585248100989702,0.0349627239880464721344389,0.0282778278076865445533894,-0.0972073305818976496350814,0.0279074916883733994965588,-0.0149384138251792471935309,0.00787536194922248099226092,0.999467507911896202443813,0.0357826474023769103283144,0.00659859245283164752571281,9.87891031906505290294263,0.0320951214994189340523612,0.0943078809353004449134161,0.0110095335029025305495498,4.58579940381796546944315,-0.951490923000577359935903,1.7567671632624508593068,1146.36175716538809865597,1145.20057540487528058293,1143.16105328617254599521,1147.58359650583975053451,-407.996281062442449183436,398.580980219254172425281,-121.911704726545778498803,138.596914255114853631312,157.207880372393105972151
33.7325000000000017053026,-0.653059779884513691428083,-0.829956935051235911160461,-0.446876742307968921608108,0.0319763907628782192982264,0.0258455361891251553241311,-0.0989419035572377536524868,0.0279320158992888596671822,-0.0149197232930022120889202,0.00777621102485085390065844,0.999467900265553765848381,0.0334480362643206352579739,0.00581547027724302334483752,9.87369167607003461739623,0.0314366901050455310739906,0.0933708764826679249448915,0.0111608596733657836758136,4.58586852697727298533437,-0.951260791383163217815877,1.75681447988957351036277,1145.28269069814791691897,1145.93552576395950381993,1142.78564826258366338152,1147.76928961436260578921,-369.672124800281096668186,138.331801287393631127998,-158.232898800595847887962,-16.0431097108503699644189,157.209753014402508597414
33.7349999999999994315658,-0.620405293350991704492969,-0.987374877151423802068564,-0.329113473141733392512975,0.0297453417827178538679345,0.0231056954974840737804254,-0.0998377172153990105618604,0.027971852426929039170389,-0.0149116829160477575022536,0.00767665673169996495839307,0.999467697043190272943036,0.0315375740690809897026625,0.00515909887127655175653729,9.86862094580227555695728,0.030783883402386972433229,0.092440717496612978543169,0.011289588717791169958371,4.58593537784706040127958,-0.951031350754223070431692,1.75685819399597065171292,1144.51339654138837431674,1145.89223441131161962403,1142.36988879217028625135,1147.50338095728557163966,-269.096777058820521233429,-146.158125392454309121604,-185.614789696260800155869,-187.938567015124078807276,157.211277421594871839261
33.7374999999999971578291,-0.528291628684452563291529,-1.08129947920174274145211,-0.182311439010318043774106,0.0278252132451157381531903,0.020095904063196667888036,-0.100227182085928873123137,0.0280238032658020122522835,-0.0149084000577517240132552,0.00757918693651247338261001,0.999467053055467680167112,0.0299349431867788444427969,0.0045257658605608874768933,9.86375226237977464904816,0.0301379530121940360232191,0.0915161494915299189578661,0.0114014962813866436996957,4.58600018835235712089116,-0.950802479426978042198471,1.75689933945274767701505,1143.93720681285503815161,1145.204735136997896916,1141.85757431410320350551,1146.82959677928784003598,-206.871591228567581310926,-437.768918760779115473269,-234.716420276907200559435,-354.374100582845755980088,157.212761237190306928824
33.7400000000000019895197,-0.353523262060569165576851,-1.12100708531717740967792,0.0129008641018671550704244,0.0259620462453882469566757,0.0165825035864794849416182,-0.100229798062269156999626,0.0280842088674834247652434,-0.0149056817502861201768516,0.00748891886590666213535661,0.999466093335056982027709,0.0285547870955971221096359,0.00380586476063296541560987,9.85912922829558979742615,0.0294996415580928671162919,0.0905955863707797320882875,0.0115021986671225758674941,4.58606394529151284444879,-0.950575145267893995004727,1.75693821271839789588398,1143.47903858524500719795,1143.70338981750660423131,1141.19630669078514983994,1145.73151045437043649144,-135.704850640807904937901,-652.220611508603838046838,-236.296093321531856190632,-413.109232696722415312252,157.214490727950817472447
33.7424999999999997157829,-0.165071845767947505967399,-1.09929977684492707901143,0.183801099261149292196649,0.0250277628820829121936153,0.0140283279169184441070861,-0.0999121245140585090283025,0.0281537226526261917525229,-0.0149030541548385540850941,0.00741098143069635322682798,0.999464767175448631775225,0.0273852018782288729459307,0.00297868366564976727595138,9.8547832200112495115718,0.0288687426124061147225675,0.0896775537681157447478242,0.0115957754686588452447404,4.58612793798062590155951,-0.950350524826531151134645,1.75697532142944767841186,1143.25868255965065145574,1141.94363207945320937142,1140.67609384749493983691,1144.76405061580317124026,-67.8974086165161594408346,-793.185564587332123664964,-186.057589841935680397,-355.351680023118547069316,157.215885971697133527414
33.7449999999999974420462,0.0485044281001128230190744,-1.0294593293365745800827,0.356722472334144002914513,0.0249420618989084109939913,0.0119647095782983159395485,-0.0993157116322549993192581,0.0282308919807842846616541,-0.0149007455760773351027826,0.00734282754289187610668987,0.999463130211502015498581,0.0264302160111804622377729,0.00198587831483285071065836,9.85073641600769356330147,0.0282428350201217245873941,0.0887609863059635462168018,0.0116858263558301672668804,4.58619272659823185023242,-0.950129790335896062813958,1.7570119759336146891826,1143.13955154216273513157,1139.73746199457355032791,1140.26601874157631755224,1143.9547520542564598145,-40.1445410450173056915446,-938.509084590416136961721,-139.124983368830498875468,-276.181700278852645169536,157.217228914411776941051
33.7475000000000022737368,0.266672390946768811392786,-0.922841443062815791620324,0.526847311597194667420752,0.025356149687643391582581,0.00977669959879470286401304,-0.0984900632513607682261281,0.0283141165388274308745142,-0.0148967819815333957916836,0.00727671455286411916763001,0.999461315627638624548013,0.0256534279326163759671342,0.000772246718775154716851716,9.84700242647587842270696,0.0276179962517579431768855,0.0878449508509179244342135,0.0117750813902495927998348,4.58625858601379210455207,-0.94991251213643457251834,1.75704903103582266155058,1143.05795985442546225386,1137.25108665649872818904,1139.98046893065043150273,1143.38314211440820145071,-28.6601281082620324980326,-1029.84819978139125851158,-85.0621459069790546436707,-162.602342590215386053387,157.218524728330265816112
33.75,0.471310802942784490277006,-0.771254681953274623396055,0.686151998524795470046911,0.0261124994704716069382489,0.00707971528211905672817172,-0.0972215329650300968955534,0.0283986681249931566251021,-0.0148891016753704436698102,0.00720691537691157523698449,0.9994595338741375512015,0.0250183198564199009428233,-0.000770590208914317953414752,9.84358837532318808882792,0.0269905379618312138423342,0.0869279622422573505780008,0.0118657584441455889179284,4.58632576391332857923544,-0.949697759672837205080498,1.75708702631871238608596,1142.99625090162135165883,1134.58822099566395991133,1139.84070801204120471084,1143.14174034130496693251,-19.1567938283871228577482,-1158.64260171898308726668,-38.2678360193842905800921,-38.601922344322339597511,157.219758729372784955558
33.7524999999999977262632,0.675600186095873245228915,-0.542694164289138969436976,0.851256592514755050515873,0.0275788343426504149735745,0.00408185011481634017760367,-0.0950535207046358937565955,0.0284774757535405202701906,-0.0148712887597996848421111,0.00713137750066378424407265,0.999458098883886369989682,0.0244041490692944833262867,-0.00278662036393864664951536,9.84049644063506256941309,0.0263575540620721443518804,0.0860078258684681545842565,0.0119596993973874049510542,4.58639337082151854474432,-0.949485342666799181365889,1.75712660043315938018793,1142.96217588528361375211,1131.45787364790908213763,1139.78912975055368406174,1143.19013250268676529231,1.96808445875730564367245,-1093.92986883975459022622,-9.48474409219185332631241,57.2137557029853454082513,157.22116108253464972222
33.7550000000000025579538,0.790591082758581920053587,-0.328692728257027499960685,0.95566542250486319343139,0.0295136022683638449271015,0.00264461644293386213822039,-0.092874733218805641254967,0.0285499703703000450027982,-0.014840143657802819243674,0.00704753517212203858116615,0.99945709303623986308196,0.0237569763973770158027587,-0.00528232427751901267853896,9.83772187952116361486787,0.025716727089616663037841,0.085082061094460509353965,0.0120566067938908654672003,4.58645984856730493106625,-0.949274956602179198483782,1.7571680597044401217488,1143.0060913239151432208,1129.11857165146238912712,1139.79328429158022117917,1143.42780911982003999583,43.0329909925383589097692,-833.956067841227991266351,4.15013661335948746966551,110.419858480225130392682,157.222258997471527663947
33.7575000000000002842171,0.823691489883991656562046,-0.119555183335002312983164,1.01199450380713562580581,0.0322042261677300545308356,0.0025150103785963923326563,-0.09054535856318819686539,0.0286152466119140025391232,-0.0148010083765829254798252,0.00695748525372235845920521,0.999456444863783821652703,0.0231912786293647331381518,-0.00826032961480888117122845,9.83525618122466305237594,0.0250675640486428055742074,0.0841474990045029402896404,0.0121552513522470290174837,4.58652418156419638961552,-0.949066734000670320092752,1.75721135080843038345222,1143.17734084024641560973,1127.28809330870080884779,1139.80988043362049211282,1143.74223179508817338501,111.233458344632921921402,-653.041080741107180074323,13.6387203737864535213475,127.746472874767050598166,157.223277495883905885421
33.7599999999999980104803,0.750378441302078647012763,0.0917513802628784486126179,1.00821771593592557358932,0.0358489413722456601307798,0.00309114191304412765787246,-0.087528655155889562022864,0.0286781004045505959199058,-0.01475984256501295180386,0.00686246770678554558753337,0.999455916170727265424034,0.0228349899167701007873799,-0.0116003105818768270651731,9.83308707468506959514798,0.0244102068135445514351911,0.0832008106119180440574112,0.0122531653266199445223572,4.58658583893566706990441,-0.948859783083415231352831,1.75725616003563045453006,1143.56225861563780199504,1125.85336624775982272695,1139.86147789344909142528,1144.06654148419329430908,168.860208217579412348641,-390.224513422054315014975,34.2478779707387133157681,93.3010856697342347843005,157.224401819841034466663
33.7625000000000028421709,0.595073108063600253458958,0.216194973535305284828567,0.934496765705459364603769,0.0386764812568028623629424,0.00384873120725497683616845,-0.0847558699119864006332747,0.028740721518798837547104,-0.0147205201633108344327905,0.00676192613493809598773643,0.999455389080280087732433,0.0227742100301613313584337,-0.015222327575823840772884,9.83120218659110811643131,0.0237451125143419844443216,0.0822384805287747072677362,0.0123484347709088785466358,4.58664459538556101847462,-0.948652991198167816477849,1.75730181242926342122246,1144.02164188133474453934,1125.33697074158953910228,1139.98111982347427328932,1144.20873722343708323024,201.552004896881612694415,-74.7602050674303910682283,78.4326285971072820757399,15.8069093067671104790861,157.225253412473932712601
33.7650000000000005684342,0.361542402933456852309746,0.272558558140701956418184,0.778753802758816227047589,0.0405059943665920033084582,0.00509536107525662695927338,-0.0818607092890710485999506,0.0287989344843014270780568,-0.0146843829116880906365816,0.0066552976830325316984216,0.99945496768513675256429,0.023042249873553629496703,-0.0191606558722655084814335,9.82959055476939269624381,0.0230731895932470322529984,0.0812568829213175247705436,0.0124404528155175105735841,4.58670126792885124444865,-0.948446260222584158761094,1.75734783726194709885249,1144.57001864012272562832,1125.47956522242247956456,1140.25364103643482849293,1144.14557603072717029136,242.504507625328642461682,183.738716492583762374124,165.327244848154180090205,-83.4117442441160221733298,157.226012661883459031742
33.7674999999999982946974,0.0334218400080741676050344,0.256039191985034886300809,0.500713476767199350270232,0.0409702487642223459052282,0.00702016896680488465543046,-0.0786201076482575950121756,0.028848009632525220546917,-0.0146522641966422423331906,0.00654218355626395853263944,0.999454780777012663506298,0.0236589347395663417150669,-0.0234504911781898139899738,9.82824080854190640366141,0.0223957500183438185104023,0.0802527667918103704280952,0.0125288936753552293534852,4.58675669345571890289648,-0.948240137615719014263505,1.75739432683589469341712,1145.23416441946028498933,1126.25566432405162231589,1140.80775604771429243556,1143.79167850221688240708,230.012111987589946693333,353.743778071931046724785,238.745030627947670609501,-174.475913923108095104908,157.226813590992009039837
33.770000000000003126388,-0.244655743454992663510339,0.179600899041000294786841,0.210007807997572543134979,0.0402054060356602446790752,0.00841974189122947531960239,-0.0765865462441425309814136,0.0288835124035854845514493,-0.0146197898459732890386054,0.00642508628066577793663816,0.999455005510287763925703,0.0245362795765407919190704,-0.0281113951828091956919309,9.82714120726602047284359,0.0217147836496346564871818,0.0792234914288863778519811,0.0126138090196928030761736,4.58681097761821643388203,-0.948035987841516103458162,1.75744141198297310069165,1145.72007920006126369117,1127.24828411278303974541,1141.4473661895751774864,1143.27319646111118345289,167.028565777360228139514,428.015451135760713441414,277.419405671565925786126,-242.000942782909874040342,157.227387357799301526029
33.7725000000000008526513,-0.491012424770938982199198,0.0624008904275352022095191,-0.102449846616378265062863,0.0387891022052172240730528,0.00915763192358105306001281,-0.0761054593986874583499969,0.0289095657848702572434441,-0.0145838167727978494647711,0.00630879456005025221476679,0.999455535667983618886012,0.0256050581206816139923088,-0.0329874835723297510359231,9.82627671526322998829528,0.0210330604933995531091728,0.0781674687235031639964689,0.0126941011784637448195356,4.58686389003941474840076,-0.947835197106882354489699,1.7574893971010108195685,1146.06930724834751345043,1128.39574157973152068735,1142.19485307607283175457,1142.58167378830171401205,112.191649035287071001221,456.964039669998726367339,298.840835520012490178487,-290.722519986721408713493,157.227862397354556378559
33.7749999999999985789145,-0.690412020490076439038774,-0.0619024702643804838886332,-0.393273296006468264796041,0.0368794142829273197126128,0.00929853286412590969434167,-0.0772689254795144303544774,0.0289301477092260318768613,-0.0145434913245114216112652,0.00619683237203473308990498,0.999456243300579694199826,0.0268344567725693032567147,-0.0379213196283237630179741,9.82563096549493408815579,0.0203536628082882468937509,0.0770841036288335834658625,0.0127690318217241090270608,4.58691488582850226407572,-0.947638699020644903470156,1.75753782927164081684168,1146.28103744523718887649,1129.53310431113095546607,1142.94157036717388109537,1141.81958386117889858724,53.0103694675018957127577,428.094517261169301036716,275.782646415059275568638,-301.946364582572755352885,157.228254885051256906081
33.7775000000000034106051,-0.816249957167493045417928,-0.15818170874995315933198,-0.611854986579588588924139,0.0342686449834178133433404,0.00836332413093362862788194,-0.0800867986538188469936017,0.0289529810531396931960746,-0.0145027008991756387740191,0.0060876517144027421715724,0.999456854025319363366009,0.0282813711221618739599659,-0.0426804458508407702499454,9.8251844660941838327517,0.0196794721240814915463879,0.0759738829318242214760915,0.01283766175490401624526,4.58696273249619590473003,-0.947446162270547453942982,1.75758644028947896842396,1146.33435909568515853607,1130.53621416603846228099,1143.57376630814883355924,1141.07194196538807773322,-2.84255757946848541806162,394.924913002048810994893,230.063673026025384160675,-303.789597124913711923,157.228547118460198817047
33.7800000000000011368684,-0.873393976583280329251124,-0.200425122692498874910072,-0.753645476347839071706858,0.0309609161055375732563011,0.00601221991776105038618461,-0.084067776117889847498077,0.0289834798883391760171424,-0.0144659195840781407138564,0.0059775444099300660202867,0.999457166429371102189805,0.0300069101229604971725617,-0.0470772899308899428483244,9.82491575356114843486921,0.0190134030122365675630203,0.0748378914625689450890178,0.0129000504770351836353326,4.58700687690042219202269,-0.947256825140285307895738,1.7576346120134545003566,1146.26682465733983917744,1131.5077288761422096286,1144.09188873230459648767,1140.30063587555355297809,-35.0753154924269239245405,318.205532035170278959413,143.395840207398038046449,-251.937156097121203401912,157.228780860839265187678
33.7824999999999988631316,-0.847104078475937494197012,-0.160272100849132320687929,-0.767450257243989519828631,0.0284499043819515518016772,0.00382271455683810996994954,-0.0869714379666360754006504,0.0290223241238274989872714,-0.0144356920894049816500582,0.00586012987591593564884462,0.999457161492537271563208,0.032027053738772973123794,-0.0510186209991359829185598,9.82480133509659481205745,0.0183580167448511855088356,0.0736776398649538200036346,0.0129576814807060968631758,4.5870477328796495086749,-0.947070105629793768109437,1.75768186111805335691827,1146.15898251822318343329,1132.12724182621286672656,1144.29074550918517161335,1139.81225618490361739532,-38.7801730321627360353887,219.532039200909366627457,36.0320433512513176310676,-160.334030355406696344289,157.22887734498144141071
33.7850000000000036948222,-0.759069089170092525797884,-0.0524440838076664361810941,-0.691389146741643867422056,0.0263103026461238218014493,0.00238408837012463094978676,-0.0890427411123040080109803,0.0290681420969035389512136,-0.014416437701339736981998,0.00573113722343545229503947,0.999456841162761122632219,0.0343866678945667081368498,-0.0544542629143688339254936,9.82481399179792802556221,0.0177160617977249051913091,0.0724949251660086113613346,0.0130127798450488663117852,4.58708560360912898090646,-0.94688620006877544099666,1.75772765804413921841842,1146.0729237921789263055,1132.60538907214731807471,1144.27204894906094523321,1139.4989657237761093711,-17.6854168246700744759892,195.378759789800909629776,-39.4965693124302390515368,-103.92755791757876693282,157.228870659311951385462
33.7875000000000014210855,-0.606555108861630332128811,0.112070198883211777363123,-0.532614680945779572773802,0.0243526969186113086129897,0.00209168564702284353468142,-0.0906468610744203540097175,0.0291207539878631897767303,-0.0144110870267855021437109,0.00559379577639118781562377,0.999456149850743380547158,0.0370926892029282001539414,-0.0573139109190075601851788,9.8249220392943144020137,0.0170908539397907656420816,0.0712917620987361250195491,0.0130677720475760837659518,4.58712079726312538241473,-0.946705968258101271395333,1.75777159909280800142994,1146.0705554340997878171,1133.10413562516237107047,1144.09326266262291937892,1139.29261839531545774662,24.3865457901614597346907,180.678645216522170358076,-72.6739636198750957873926,-56.6255398838681003326201,157.228741895244127135811
33.7899999999999991473487,-0.459839494979007168407037,0.236373487521405106770445,-0.371961629232199442185447,0.023188010469022288240204,0.00316952863557422477580605,-0.0914171255065718973975564,0.0291807527817418907445379,-0.0144200576171595335611686,0.00545235052596411504804985,0.999455041021901746667311,0.0400974471838144441715457,-0.0595182989714066745801091,9.82508959016336724801022,0.0164850455580211607831131,0.0700705794333651293959164,0.0131251525015454346967392,4.58715405521653263321014,-0.94652969273601439414989,1.75781352144566249684488,1146.19485652112962270621,1133.50878229822910725488,1143.9086791309619002277,1139.21583802435702637013,82.5729162324510497228403,163.687867988717641765106,-57.6647498568650576089567,-24.0326688254176410453056,157.228532805061036015104
33.7925000000000039790393,-0.314815664160557673323382,0.300497318359092435713364,-0.211144719817841552966797,0.0222794834728845363158722,0.00546311061184390125283761,-0.0917337956240241170213778,0.0292420816791479458440772,-0.0144401625854339282079009,0.00531141811386574499986857,0.999453711535882804994912,0.0432783432562657693898345,-0.0611267006765826015346477,9.82527858293198796957313,0.0159003659494693361242668,0.0688339204974873775100264,0.0131882552575452310916759,4.58718578702587720385964,-0.946357466701598482039515,1.75785322039717262221359,1146.48342001526225431007,1133.92257496510637793108,1143.8049389133384465822,1139.17245505118830806168,166.268603896520716034502,175.326026774247452522104,-3.91090995276299535632347,-25.0107406168680697078344,157.228216558861845442152
33.7950000000000017053026,-0.167015065768411574698149,0.278133095795167428754269,-0.0445072097697659513348967,0.0216340167114360618083602,0.00885600586420359076056386,-0.0916314398376892186304232,0.0292985006328962266364258,-0.0144651006002127508615063,0.00517593236292686765392945,0.999452407981277768378447,0.0464502580142347881730913,-0.0622112347095206685843038,9.82544817867602837679897,0.0153375445002429614677064,0.0675844673632525344553201,0.0132599639986707325267634,4.58721612688859092799021,-0.946188491563853983912225,1.75789184056367253639053,1147.02619954061265161727,1134.38541243210079301207,1143.88912458119807524781,1139.09078432127262203721,226.068611304050193666626,149.082406202523173988084,75.941836213338262950856,-41.5896635793993354468512,157.227711527773749367043
33.7974999999999994315658,-0.0832178257374930757661602,0.181737759360296874389107,0.0583682014838926566113742,0.0216006771517570257679086,0.0111497800198349632933015,-0.0912199201987170943395355,0.0293443851184776727247794,-0.0144893629179950363117246,0.00504604949590668934444881,0.999451374936514036484425,0.0494464629846825542980326,-0.0628433997534141586260859,9.82555523669074482029373,0.0147957316108048731601032,0.0663251195650219754762489,0.0133422478681999058525154,4.5872455482035956464415,-0.946021996414197929858858,1.75793032967052598181112,1147.61376307178147726518,1134.66798699611831580114,1144.18464809440479257319,1138.9645067332915004954,246.611361314122973453777,68.6457591974145913127359,164.978155224539449363874,-65.7578843561766603897922,157.22718527831784740556
33.7999999999999971578291,-0.0586463078566163836802261,0.0429494773523665385184245,0.113835248411763845233224,0.0220334061480364634677542,0.0117414116698610349054377,-0.0904895778941228468017499,0.0293731230719856198363438,-0.0145093393851023419460766,0.00491955715055610118963125,0.99945087220399897454115,0.0521414265442322749644077,-0.063125987040764303115381,9.82555571587942644384839,0.0142729440616752630693886,0.0650588767333251383195858,0.0134362601552267865029355,4.58727515540339503274936,-0.945858357636934932166639,1.7579700829097197889439,1148.25925634718214496388,1134.72864122808755382721,1144.71401535732002230361,1138.7619948994920378027,249.318300022341418298311,-27.3148303678996278165414,238.957379964782006709356,-92.533181972928971958936,157.226549427306053985376
33.8025000000000019895197,-0.0917445338188868503292994,-0.0883947634412503152612217,0.128166671768655898722145,0.0226548829034341932253671,0.0108076453162126388113373,-0.0895117688703550157258704,0.0293845737137195632537878,-0.0145212503879144222418418,0.00479768777746459543914748,0.999450954639396926815209,0.0544106958282273289739805,-0.0630459154013711942088349,9.8254048434512100129723,0.0137669099954710119626533,0.0637889432391114119536013,0.0135415073527648515544497,4.58730604843444211837777,-0.945697752174065930930169,1.75801154712305152116869,1148.86035457189382213983,1134.53141284427874779794,1145.37943499422931381559,1138.50184082342661895382,205.114655009615148628654,-147.777865455524874960247,271.101104104216119594639,-112.262015381372165734319,157.225823077243461511898
33.8049999999999997157829,-0.194227306784509667902938,-0.163391495662385116682813,0.0998912127505919011927205,0.0232111102552028693291053,0.00882982596358416679804826,-0.0884581091023017851426857,0.029382751053862551926521,-0.0145219037837855408784593,0.00468094218158742261803873,0.999451550981378056270898,0.0561488254119135998809753,-0.0625208393396975703470986,9.82505881700330796491016,0.0132748317242017462719295,0.0625188361104889317454436,0.013656403257279157298365,4.58733800672840708045896,-0.945541104728927717104625,1.75805438980664141546129,1149.28482962223074537178,1133.98975190080955144367,1146.06952087784179639129,1138.20068482258488984371,121.523064145614185349586,-307.785957412041000225145,262.682283903279937931075,-129.065499388233604349807,157.224988732630833965231
33.8074999999999974420462,-0.380642744098651120143728,-0.153125601835216174073651,0.0401471177552272101562991,0.0232942189101557686758959,0.0064725570111902790484959,-0.0875557892671134929685195,0.0293774607588974494276624,-0.0145137202037544325167184,0.00456771299865862782929593,0.999452346072313924096875,0.0573702514172729355346192,-0.0613676832555871965002581,9.82447495047911978360844,0.0127937291383401832711719,0.0612524202603578066250734,0.0137782137082248425791198,4.58736979608138639719073,-0.945389037743967097782161,1.75809794749631054244787,1149.46796989262134047749,1132.99248305721994256601,1146.6928464137445189408,1137.85651332648603784037,6.5168418137057724237593,-404.919198991203529658378,161.173613834998235461171,-111.919406779849893496248,157.223864985580206621307
33.8100000000000022737368,-0.564971655256652161014586,-0.0581976962847635115316791,-0.00439216807622045974507374,0.0223714308214799130480888,0.00506744989004740201132826,-0.0875021917205324600841365,0.0293737271619016054868823,-0.0144970600767510039708075,0.00445584056852539600601659,0.999453197907410495481884,0.0580580366961820915072678,-0.0595094306423552821261325,9.82361597220761417759149,0.0123206719789607770793038,0.059993433626376754808085,0.0139047597734194405133534,4.58739981343720693018895,-0.945241296896688010242826,1.75814144136060312995085,1149.31741383129929090501,1131.96515590585249810829,1146.8753889470171998255,1137.64108778868535409856,-113.815005000093137255135,-424.076910775430803823838,-23.78551026198385542898,-60.5591916456577905591985,157.222828724983486381461
33.8125,-0.743170358209428449924872,0.106984688673511185719178,-0.00667309426122815463333637,0.0202997925663710859778277,0.00452344331148915330259586,-0.0883241516699325712735913,0.0293745585736514859542812,-0.014469897479966352046854,0.00434083839852414214710574,0.999454069763706431928085,0.0581592927615659366358258,-0.0569205897669191884791218,9.82245060600111408177781,0.0118525870361268180486203,0.0587454241199558829800154,0.0140340863833980991626227,4.58742657848079193882995,-0.945097129848047945444023,1.7581848178867576226736,1148.89889486762058368186,1130.87209850334170369024,1146.57391886243453882344,1137.55371736825759398926,-218.93152439667477437979,-468.350349569362492729852,-249.864186868262436291843,-5.18660134167038133767846,157.221692350634810964038
33.8149999999999977262632,-0.911258554160460643167596,0.345416198074947777829635,0.0735943799786738517276774,0.0170254565703443182245191,0.00501833294703577306727915,-0.08985984666270530052401,0.029381014468281452245435,-0.0144369726318572394463402,0.00421931777738321616560979,0.999454877609089464840508,0.0577642938914319642451645,-0.0536254858851447913092869,9.82095312067300341141163,0.011386766684305998573179,0.057511540806443751938648,0.0141642003979299772181699,4.58744996436444107956731,-0.944955808689664777944017,1.75822788656622530645279,1148.22275620931691264559,1129.62340415800781556754,1145.62606801267702394398,1137.61515478197702577745,-253.736757205258328440323,-434.869051603759885438194,-431.246335236944503321865,46.1488401546139712650074,157.220217808218706068146
33.8175000000000025579538,-0.993755400996448989836551,0.542528367617732043548529,0.219357424296512976136242,0.0138432376349803178822162,0.00653373398568852115780858,-0.0910962811862013888131173,0.0293897929976594321499483,-0.0144009515253772004544919,0.00409261462627316923573728,0.999455674073777222687909,0.0569316659460781665513807,-0.0497434803419257443035661,9.81910607689811065768026,0.0109206864641310311125899,0.0562943823290917230717234,0.0142934946669108567385287,4.58747190599172682823337,-0.944816941280115729639988,1.75827066177108348732361,1147.63021108159364302992,1128.69775324532179183734,1144.41768718624871326028,1137.78446156903078190226,-221.494239836488674200154,-341.891922515658450265619,-537.630497985808347038983,81.0544929182055113869865,157.218900505045894533396
33.8200000000000002842171,-1.00727926620843288851859,0.699367622851307935150089,0.434092307746654804123665,0.0105435021799457299268576,0.00925961781031629099780744,-0.0916950881338702422640452,0.0293988695792532298001198,-0.01436709111865190104107,0.00396703202030206005662683,0.999456415913475226808771,0.055780722271028787551117,-0.0453772765729237026466336,9.81689918681132134281597,0.0104519378871268976693987,0.0550962243961541642267576,0.0144199122762873124803384,4.58749458096803852669154,-0.944680931074921237389219,1.75831350702200972513367,1147.11528501013390268781,1127.91394454542864878022,1142.93791552274660716648,1138.02042724656826067076,-199.362935771432034925965,-316.315442509281922411901,-665.946132920558738987893,102.603776788648801243653,157.217496293699156240109
33.8224999999999980104803,-0.952325446397017771893445,0.814368945088900564321932,0.725416888841406093391129,0.00711013356294277858171693,0.0131666919399987102784477,-0.0908404259629970317613257,0.0294058702773617557102437,-0.0143405159624734497569865,0.00384693687882255164200984,0.999457081337824515543389,0.0544401416786106512324395,-0.0406441615448930038123621,9.81433057717292101074236,0.00997745262450429326595014,0.0539191762877133939912966,0.0145411757883620370440658,4.58751886739436276485549,-0.944548876340371545978769,1.75835685957280229985145,1146.63339640273738950782,1127.116176032776820648,1141.0879565216489481827,1138.29748045297355929506,-158.22906857780344580533,-274.218608239239756585448,-655.672004361014046480705,89.5302913352676483782489,157.215716945917449720582
33.8250000000000028421709,-0.863432213319447305899246,0.848725139692760421894491,0.948003247279934790903155,0.00469987558235797787259402,0.0160980814078416460677357,-0.0882346009852694734831857,0.0294148948786027882029703,-0.0143237128664853267945301,0.00373485237221433518522984,0.999457503367780164538203,0.0529986062347138492389931,-0.0355402874227903620152347,9.81140573217789047077986,0.0094937766346070723982864,0.0527653209359266600619875,0.0146541314229766059251681,4.58754480627811034310071,-0.944420540179862877394612,1.75840104282422116099838,1146.32413966724448073364,1126.5428515042317485495,1139.65955550093985948479,1138.46807870324482792057,-117.29922299371902738585,-215.584897076295163742543,-512.101867286002743639983,47.9767067678703966748799,157.214160365113826856032
33.8275000000000005684342,-0.755263085018326618680362,0.838845039589312002625832,1.091980710336601934074,0.00276843871293786999987496,0.0182319176339172418777057,-0.0838091102499979867523905,0.0294290055677139186784963,-0.0143166552426861465319163,0.00363268373588292734291394,0.999457585434505357824264,0.0515051098352938552249469,-0.0300864287390425477752842,9.80813904803957647970947,0.00899764269732491669961938,0.0516363493835701389822468,0.0147556619744921273945648,4.5875715492466113687442,-0.944295834963857272370547,1.75844586621199749920663,1146.04690028776849430869,1126.03825154739479330601,1138.52744718521762479213,1138.53736398681303398916,-114.964875205046126893649,-191.589752280325768651892,-384.21650739890918657693,11.2406900887083249784837,157.212533239423862596595
33.8299999999999982946974,-0.651869845960577287691251,0.814248334005481688713246,1.14313708753906495552144,0.00137725030816047804005375,0.0197788718293615203847047,-0.0789314754334183438233552,0.0294457167809271530556359,-0.0143158936751918586943733,0.00354298215247494724042254,0.999457441063323015484343,0.0499489567335882067578012,-0.0244143690256081180578462,9.8045548629358751924201,0.00848644121597982685478723,0.0505332733551693627505053,0.0148432398048155608089038,4.58759806664452352009675,-0.944175482518224140626728,1.75849224432893680436507,1145.74931529121977291652,1125.58490274283099097374,1137.73847296394706063438,1138.5242821536883184308,-127.520559841630770847587,-166.613425145448019293326,-220.304820786828798873103,-16.8190367687571225019383,157.21085238651463100723
33.832500000000003126388,-0.577073448904434793682583,0.796223767811060301191617,1.08034407490954786901227,0.000549603732288277829765022,0.0209377178479727560356238,-0.0748588636547869862303273,0.0294620932629704908312096,-0.0143197089602698328369978,0.00346799184722077370041093,0.999457173889173988712287,0.0483597574943532698688031,-0.0186652449125744024360785,9.80068495257740757153897,0.00795852160034855350689842,0.0494564202457674351176564,0.0149144400001207048239715,4.58762384906505182868841,-0.944059372304815069831818,1.75854074261576753812619,1145.40929748856001424429,1125.20518442166712702601,1137.42592308128291733738,1138.45326880296920535329,-149.562081975151045298844,-144.322286657706001733459,-27.2258573172027205089307,-27.0779474196704263988522,157.20911283719235029821
33.8350000000000008526513,-0.540414611739944206192376,0.801535611612003928705406,0.905108835663520516767733,-0.00012572396022374933833958,0.0223213953974464238139142,-0.0715374655388127111965701,0.0294762463747899813859554,-0.0143250946902552002415465,0.00340446483401818508415793,0.999456894591401523442187,0.0467476378540807591122075,-0.0129587541359710844979247,9.79656759294249113168007,0.00741273566512671254480349,0.0484053573508219717180801,0.0149671191637870994173287,4.58764864386579862554072,-0.943946365946358834086993,1.7585905990381442975945,1145.00150488134363513382,1124.86329130954209176707,1137.60234367736097738089,1138.38889241658989703865,-133.938698172309102574218,-102.176721728439744651951,144.986807643131214717869,-6.14103744019861608194333,157.206965802880802129948
33.8374999999999985789145,-0.558946244110207324240491,0.831883002569620444432985,0.711787643695060090465176,-0.00072883295470173943466502,0.0236755827972426093064318,-0.0699893300239734506007494,0.0294882211443100519798755,-0.0143303225427259175311923,0.00334707372474977310483624,0.999456646325884823234276,0.0451500512348593230349536,-0.00737355391788652170248497,9.79224565707437122341616,0.00684896445999665266779477,0.0473787278862165955883867,0.0149995607768613134491709,4.58767133408173766184746,-0.943834878306817781634663,1.75864106356728333580008,1144.73960399769907780865,1124.69430081302539292665,1138.15085711949791402731,1138.42256361576824019721,-68.4563382170031218265649,-39.6158076030839936265693,277.158595135182736157731,44.0761157504541287721622,157.205133308527621238682
33.8400000000000034106051,-0.621960585089455619822729,0.882011138172309916427594,0.511914049200257070815212,-0.001723305543320835433313,0.0252387136078176810283225,-0.0693544651279549007050207,0.029496474853586408110262,-0.0143296514689051877888826,0.00329190527624970488695944,0.999456571851951691698446,0.0435245827172577454122759,-0.00201363291117701015409125,9.78776684043557665404478,0.00626824524373320070280702,0.0463741564604668726756742,0.0150110518430971815601049,4.58769034742042425278896,-0.943723671625248727856672,1.75869142467361783133128,1144.65922319025844444695,1124.66521227152657047554,1138.98813665303759989911,1138.60927299534228041011,20.0845491581628294852635,22.8434345589786538255339,396.265973071401390370738,121.151408871430120939294,157.203263810838450353913
33.8425000000000011368684,-0.729840823636354718573216,0.945377748715416466041006,0.301070507231679884707631,-0.00363402278949028975651991,0.0274258777501154189792931,-0.0692088087485262098974559,0.0295016289669110740034874,-0.0143173804946361022533141,0.00323451023004924387987957,0.999456752052593211388398,0.0418271482399250466022167,0.00306620961448850204433825,9.78318039466724975738998,0.00567248194383578561994508,0.0453886464103464074004712,0.0150015085989814219574745,4.58770493819844116245577,-0.943611874561779528924887,1.75874106699013377230756,1144.84002674348994332831,1124.80851798582034462015,1140.13218698485593449732,1139.0283206601257006696,111.317667170361630724074,83.3716246583056772578857,413.051138883077385344222,180.545792883986479182568,157.200987319795871144379
33.8449999999999988631316,-0.829674491955021076172727,0.980529147864011907387294,0.164560001495758861933538,-0.00580116347642444397242345,0.0297793368525038730509902,-0.0693476658872028695057566,0.0295029595060176050291822,-0.0142939696793687592846211,0.00317198101485368765678485,0.999457214398236537533649,0.0401291298482965297367286,0.00779278837539537638789966,9.77853590301400821260813,0.00506445207989048105240437,0.0444188409067724221390705,0.0149716935498936231513367,4.58771539504764458428099,-0.943500122338444935365942,1.75878918187674559980849,1145.21581152610974640993,1125.08207039481771971623,1141.05339234745110843505,1139.51200195976139184495,183.322837147076711517002,138.734361000408142672313,331.250850718619119561481,207.526563323684314354978,157.199070052922337481505
33.8475000000000036948222,-0.922212797539641915278708,0.97068826140807085156581,0.0735986992881915713660135,-0.00817282875129583460949156,0.0328097917378664186149884,-0.0695575715483985196341266,0.0294960980641328120166467,-0.0142622854062531626007093,0.00310693877524958507463371,0.999458042358039477903731,0.038541236082789850914132,0.0120313766766116658768482,9.77388317170495923846829,0.00444758970582559247375354,0.0434613249686495103918382,0.0149233257370329115698571,4.58772255020419361670747,-0.94338986781373601608891,1.75883607009507447749286,1145.7566409292257958441,1125.50218979082274017856,1141.78844123844987734628,1140.06595347674465301679,227.301819393844340311261,184.963465200731633331088,248.075048318342368247613,220.793859903665918409388,157.197141030780585424509
33.8500000000000014210855,-0.999349185293580410949232,0.907961517614026214495482,0.0164037788082854497917484,-0.0105074460528525644859021,0.0363362953587184067671956,-0.0697442117204176981193342,0.0294778753235861411263752,-0.0142284281462059306044843,0.00304414839938238739741605,0.999459232266329822280682,0.0372297889261407749517119,0.0156804130465390267890058,9.76926930420286687706266,0.00382532866026567787073875,0.042513077462609072387778,0.0148584686158778327830232,4.5877278784578017223339,-0.94328210528510270105329,1.75888105166316899286016,1146.35232062307954947755,1126.00688772082185096224,1142.29376758904345479095,1140.61597125928028617636,228.510664330841336777667,205.024388593215036280526,141.80782790589711339635,205.481734023856432713728,157.195209429592750893789
33.8524999999999991473487,-1.04910895813813143107041,0.777786291652615147107497,-0.0108408110571162688562374,-0.0129316629899137881115623,0.0400203596316961035528337,-0.0698586559783540422818859,0.0294474987610192882880877,-0.0141995576508340635296657,0.00298061217452651053619328,0.999460717878267845826201,0.0363755974124721215279266,0.0186929512818270471274928,9.76473743125625937011591,0.00320003116684838828653881,0.0415716433203449989286504,0.0147792834876476486538621,4.58773295360763455619235,-0.94317735534085633819501,1.75892381154445653912433,1146.8991942508789634303,1126.52731173378788298578,1142.49748037797871802468,1141.09336214686300081667,200.307438615743478749209,202.415052032562158501605,31.4432726250127529965539,180.493024858923007514022,157.193283757774992182021
33.8550000000000039790393,-1.06599454006679983386618,0.568180300490272682800708,-0.0265406706728299052189257,-0.0160417805241369892943482,0.0433809048193561294648468,-0.0698963360184074594672055,0.0294115192628964829124616,-0.0141747401522506026594339,0.00290922898281146050103452,0.999462337919389209872634,0.0359939692649448861327954,0.0211743682465940497028356,9.76032501396091944911859,0.00257310267664340262122602,0.0406351520066948468379309,0.0146874375482485171329206,4.58773771638390570615229,-0.943075556811556747760505,1.7589642062593171534246,1147.35385781615877931472,1127.01896298098517945618,1142.45098395216859898937,1141.5184363835753629246,115.5960159622145368985,136.021075004940485086991,-46.9616735175564699034112,126.020843924679056158311,157.19099184700417026761
33.8575000000000017053026,-1.03653454772308428744054,0.38730870340143708219216,-0.0390017978918360264106724,-0.0186393882073128333565215,0.0445279724035782739632872,-0.0698498789749735365939287,0.0293723225242221754049954,-0.0141506392687626211118745,0.00282944550063049570301499,0.999464065333190876394553,0.0360428749496119887885115,0.0231584621734687023941746,9.75606679650841357442914,0.00194622809522123426002882,0.0397018009654139941710937,0.0145847278656741925068063,4.58774188830784801496065,-0.942976405933958039540244,1.75900347860917838360706,1147.47717433069033177162,1127.20741710881293329294,1142.26267201039081555791,1141.7234663664867184707,-15.849315823303049555193,13.0918303155914070856625,-79.1705933849508909361248,49.6133483781246624744199,157.189106402634166670396
33.8599999999999994315658,-0.953788800016494020539426,0.255491259756222222065958,-0.0657410897109414749106548,-0.0210740379656357210147455,0.0438579751581424023831879,-0.0697443018856212654243976,0.0293280057662562015918795,-0.0141179923572615217963744,0.00274092326647538010037097,0.999466082470737204879185,0.0363556827128112824976114,0.0246037570324165455470933,9.75199524672315298801095,0.00132086294146361183515781,0.0387698269872610579156458,0.0144728661306453790930115,4.58774402331681407929409,-0.942879731678993748822393,1.75904314213706292058248,1147.27461123704233614262,1127.08442213256307695701,1142.0551309852442045667,1141.76650312546576060413,-163.424469168934081153566,-122.731797329809282359747,-67.7460164311630705924472,-14.666337783469012734372,157.187256415788482399876
33.8624999999999971578291,-0.785061345542540256481345,0.203202597095349046796287,-0.127824841466690986013788,-0.0237930105864317537056607,0.0418350315930489449756102,-0.0696022131266177818131879,0.0292801186805077863495317,-0.0140703822535760449119469,0.00264318739867080813865652,0.999468431857651218308547,0.0368129615480287247786251,0.0255434462862796640703067,9.7481369146716190243751,0.000698503198204819802236143,0.0378376951276053127837251,0.014352808917628787077625,4.58774325605887867141064,-0.942785281770594285610798,1.75908362636332005202178,1146.66005198484640459355,1126.59375812216444501246,1141.92394192823530829628,1141.65013467756944010034,-276.583396039308752278885,-218.735867802685760352688,-15.3557879522771720814944,-64.4523375595451852859696,157.185088563774343128898
33.8650000000000019895197,-0.582604570083961603721434,0.258027032620722629463472,-0.210326917641834754135743,-0.0258910807347151640522842,0.0403416380963621187816237,-0.0695397134841053005116507,0.0292336738065963920585322,-0.0140079678552730603480203,0.00254263648901384463688058,0.999470941210458430070673,0.0374137419295259010532106,0.0260856901154742082393767,9.74451220024820408127653,8.11990218258449843267283e-05,0.0369040973235873759339398,0.0142249508983640412379534,4.58774072293685719614587,-0.942693074416861342967877,1.75912487958955732203492,1145.89169425684508496488,1125.9907427935490886739,1141.97835204548277943104,1141.44424143766786983178,-340.009516717926771889324,-246.279528349497439876359,60.0322092922544783277772,-94.0955602703498499295165,157.183333256914465891896
33.8674999999999997157829,-0.316483156193835379887958,0.391378890100262499807116,-0.324938124351975221593136,-0.0279352644147765755144874,0.0402192751681822585618775,-0.0696685330885040005055586,0.0291921895550034359023694,-0.0139359765995466042959317,0.00244145544494474937488593,0.99947342166087205228564,0.0382479783553146684971225,0.0263143051376207304237198,9.74113766054654739434682,-0.000529443738825884687576595,0.0359678538451738555314918,0.0140897486649767759298024,4.58773767745123173256161,-0.942603204492510338141642,1.75916593488881511930799,1144.9600044012559010298,1125.36236048041632784589,1142.2241029746967342362,1141.17965687621745018987,-420.721331663317641869071,-235.445422964299211798789,143.114732975885203813959,-115.77555393907076108917,157.181640041837368926281
33.8699999999999974420462,0.0604208798920209816385452,0.583893845199802807854894,-0.489517031057924101311585,-0.0301999714506490726795285,0.0415986741166161008709246,-0.0702701045856729822336462,0.0291571042868928563540631,-0.0138579250686180245610846,0.00233555110684744056392947,0.999475786874954308380836,0.0393648605774593318695764,0.0262765890256444201167341,9.73802730724624687752566,-0.00113252446676409264207652,0.0350278808413622480544269,0.0139478775984706853535711,4.58773490396892746900903,-0.942515469007487172170556,1.75920607044603172219865,1143.78808759853041010501,1124.8135156787286632607,1142.69392571036155459296,1140.86536366797304253851,-420.536614979449439033488,-135.487236098082377111496,186.918260268425768799716,-106.630026574966919383769,157.179689823610630128314
33.8725000000000022737368,0.39250639006680732023824,0.722507682554140551189903,-0.634905841743610088734329,-0.0311141183629670831090053,0.0436112324082042826511874,-0.0713373446783525655412461,0.0291271314976939005303436,-0.0137761348664684930842572,0.00222134768704813695058831,0.999478048963611032107224,0.0407818248297236590760306,0.0259710572562050490130758,9.73519312140562576018965,-0.00172712006622849746986792,0.034083186245011824755391,0.0138002375316520868586689,4.58773222747031894641623,-0.942429161833870487896547,1.75924502222383249971926,1142.85732132635757807293,1124.68492429992556935758,1143.15869427603934127546,1140.64650674334234281559,-346.117715543055339821876,45.4605288086663037461221,178.390138706299381965437,-76.0198356035354976256713,157.178139552957674140998
33.875,0.682602603553408071590525,0.784407047635138132690713,-0.76580132889167051857271,-0.0295428446748205383864949,0.0466588331207325457405943,-0.073180355169472133258779,0.0290999291864762650583476,-0.0136905749892965496877784,0.00209796238282256887475175,0.999480280555434252853786,0.0424620235594569683801325,0.025379483563336607820915,9.73264491528721187307838,-0.00231195659496816197098212,0.0331330104262197791542555,0.0136477145868229496339374,4.58772809927413494079929,-0.942344327603635512069502,1.75928240479682740371459,1142.05749902081424806966,1125.04081832277211105975,1143.58587640389350781334,1140.48526448995517057483,-291.277535095415487376158,234.68167218023580744557,147.013740933013650646899,-59.8450874641547159171751,157.176674823300800198922
33.8774999999999977262632,0.884042623342986555456946,0.752488458662971204660153,-0.866555247807232476020545,-0.0256694760978511786475575,0.0505085062138679388721307,-0.0756676007770612363279028,0.0290721707639859140714922,-0.0135978985094230599151022,0.00197010174154896777407031,0.99948261640872870792407,0.0442953957395567921029311,0.0244677678174819723810884,9.73039080013891144460558,-0.00288516596107353355538105,0.0321769738405956601257074,0.0134910163945282744052401,4.58772178802760954852147,-0.942261881518495103549071,1.75931878330953006539517,1141.40093365088182508771,1125.85833266082568115962,1143.89376298070374105009,1140.34728130602184137388,-228.249010692772230868286,439.466689435860473622597,76.7646417466556272302114,-62.7874174568793748107964,157.175286386478006761536
33.8800000000000025579538,0.930672095256601994428536,0.595507630506310836615569,-0.914461762056347993166128,-0.0206343429121485753829912,0.0539719466430785971278183,-0.0786293712943057776509903,0.0290416141161889199140411,-0.0135016547407270145336744,0.00184590886855967258907418,0.999485056327560905664598,0.0462983429295604487219151,0.0232245650350621779534066,9.72843550317149130535199,-0.00344421956400138952816836,0.0312151974901172246656955,0.0133304876323653669067948,4.58771353891832767146752,-0.942182935372249619199181,1.75935483177721763148327,1140.9162539673498031334,1127.23815176995253750647,1143.9696996126269823435,1140.17132740267061308259,-185.750831584933166595874,720.843029808197115926305,-33.382367043105858783747,-108.051711246970825186509,157.173995743248269718606
33.8825000000000002842171,0.794396767626427857678095,0.284689120187011701634816,-0.903376207601258474078065,-0.0154801444534948279968534,0.0562586592043310962374392,-0.0821639324484715743990293,0.0290086885814861000776332,-0.0134047938767861522790792,0.00173013820506361473174073,0.999487537722829499919897,0.0484696452377030712055372,0.0216907095120532633636401,9.7267809354640135666159,-0.00398669742026558186764884,0.0302482167965549379740064,0.0131660083696349475279597,4.58770286881407063361848,-0.942108123703393141035178,1.75939156261372708911495,1140.47217949295668404375,1129.46254780986851073976,1143.72685114548812634894,1139.80702274978671084682,-156.706535642075976966225,886.06223719919944414869,-144.779114931902569196609,-174.437626648772891257977,157.172566631698771288939
33.8849999999999980104803,0.546591644451253411141067,-0.0413815441907051939640638,-0.842834312749303982137405,-0.0128077481975003917846756,0.056677025355188037636367,-0.0846884505659854097681105,0.02897540335856590293373,-0.0133131094504218908114446,0.00161930249765451675196537,0.99948992897405852797732,0.0508591545493861513227429,0.0199367503246515587189691,9.72542633096838571304943,-0.00451057501493875179915394,0.0292766876782645409094119,0.0129972398842013205089163,4.58768939432929556687668,-0.942036892838896688928685,1.75942888613496806193837,1140.13272128914013592293,1131.66846295594450566568,1143.24580403796812788642,1139.29913926942754187621,-154.803538191675158941507,913.812402904601185582578,-237.203885389650679371698,-257.26167526668660912037,157.171479607281611379221
33.8875000000000028421709,0.217488134386775167072869,-0.387877534494145470578275,-0.746043025718821972702699,-0.0120852716851944097520288,0.0557474991541379652493227,-0.0864906828606729904951322,0.0289435096257681136189266,-0.0132313788475417488249564,0.00150920554236174992053521,0.999492122543347849550344,0.0534922105933497010754607,0.0180280521922782377419736,9.72436943449148927243186,-0.00501402188142259248176957,0.0283011761725037724879428,0.012823905903291264729571,4.58767343417831963137132,-0.941968089864012703138485,1.75946680759335172261615,1139.69816180199791233463,1134.03160982439385406906,1142.54083171853926614858,1138.52071437345261983864,-240.127196152175145016372,1018.05129716861063116085,-331.360137115064958379662,-404.30535341285809636247,157.170504680388461338225
33.8900000000000005684342,-0.194896452758108074121424,-0.773350295151397304493912,-0.611375611085443360082081,-0.0131632007176946067700252,0.0533956089221078455953062,-0.0880020262355924037800392,0.0289102971126456199935095,-0.0131593866380226142548393,0.001397033146465799123212,0.999494204409808406630589,0.0562930909393984379995857,0.0159431563721945390721402,9.72360847929471638906307,-0.00549559072995461223021252,0.0273219850565320915292133,0.012646160522164799286382,4.58765494325637313011157,-0.941901523859222100654165,1.75950498178840808449763,1138.93208530837864600471,1136.75871944179016281851,1141.58900335239195555914,1137.27761250236221712839,-332.368055388844709341356,939.722682961691816672101,-337.01756901040153024951,-495.715493124767533572594,157.169468362051077292563
33.8924999999999982946974,-0.505093392012022079917699,-1.03681017783155993150501,-0.497574515599075617444669,-0.015165471870480298766104,0.0507536224636708985236133,-0.0889746219822123568521377,0.0288759268466468564662275,-0.0130987604971087526900542,0.00128170513592565349890451,0.999496151837513058246998,0.0592197324446232103989374,0.0137161833118248088769775,9.72313838517485073964508,-0.00595422509118275801454079,0.0263393609317945781578274,0.0124643690408605071345827,4.58763421896787804143969,-0.941837362621617546487585,1.75954249026299214264668,1138.03632152505520025443,1138.73022323919803966419,1140.85574387348879099591,1136.04213690783103629656,-407.002069619394262645073,685.522777267864853456558,-242.829323750960071492955,-510.220740811667383241002,157.168718394057776777117
33.895000000000003126388,-0.741415463410580510839054,-1.21074222565085687364217,-0.392479774056465613440992,-0.0178235228916846268065743,0.0474733059710823954158165,-0.0896928234610283869887581,0.0288422049372731546801329,-0.0130527348987062065399645,0.00116723034085338653494113,0.999497866521244504589561,0.0622600679826131736538386,0.0114132688951828209500405,9.72295090813119422534783,-0.00638929286685232643988597,0.0253535236350032333607629,0.0122792687391678739111667,4.58761224392835931240597,-0.941775921241261193550542,1.75957907220832598937932,1136.89707496028063360427,1140.18633332813124070526,1140.37485673363653404522,1134.72650879830257508729,-527.912221184899863146711,494.648627413854910628288,-116.588658421673628140525,-558.421428930419892822101,157.168088274491253741871
33.8975000000000008526513,-0.919011121517088636068138,-1.29334788280284174177837,-0.281028971517587822237516,-0.021248626192525793543453,0.0427751927973420431605689,-0.090311586303217034066293,0.0288093662634236677422273,-0.0130204434986404635893331,0.00105523275745143894216449,0.999499353270042800723161,0.0653243865255243721934519,0.00906940113554752236346701,9.72303633236605691081422,-0.0068012408754273270469759,0.0243644794978623152603703,0.0120920552453174009327475,4.58758943602977709019797,-0.94171719131963105287042,1.75961386503906913603146,1135.39676041912935033906,1141.20346637626857955183,1140.27280058138012464042,1133.25002976317750835733,-538.72491562637037532113,245.666150320399225392975,55.5827496823945566006842,-494.947081179675421935826,157.16747129988542042156
33.8999999999999985789145,-0.977794741916814147408843,-1.25107690751201849899132,-0.199357945286410931373666,-0.0240517563410910899246442,0.0385273787725792238312295,-0.0906947985606926937451888,0.0287749735934978122242622,-0.0129960376219695333821491,0.000945695957641687606071157,0.999500762631593042684131,0.0682300183618622241299434,0.00666728022408927256670097,9.72338377593311520286079,-0.00719155638847019003379035,0.0233719512992470145051893,0.0119042818596177112783208,4.5875664038256918075831,-0.941661034598302193465713,1.75964698495254578958225,1134.20345038215123167902,1141.41466407973211971694,1140.65277048204825405264,1132.25177339240644869278,-421.865853546944606478064,-41.0532332167139486500673,243.047514037164802402913,-323.718856260091286003444,157.167072291124213734292
33.9025000000000034106051,-0.954606504373305853050624,-1.10387282215221560477403,-0.124064306806146773531907,-0.0266575966572639017071467,0.0348450238728807287769129,-0.0909884416602321915990004,0.0287338641019736183712663,-0.012972737608734935532695,0.000841418532164405126062834,0.999502333180144697521996,0.070781052561012053336853,0.00413670722092299159022843,9.72398035336427568608997,-0.00756236617443811157818212,0.022375404904554301033226,0.0117177242475627347434441,4.58754421920188271144525,-0.941607336473179401536981,1.75967916710846195016416,1133.28743115139354813437,1140.99820021018490479037,1141.48803815156657037733,1131.63143548187622400292,-294.138691271550271721935,-258.427502138651675522851,388.670749053818667562155,-176.740012847085921521284,157.166790247529860380382
33.9050000000000011368684,-0.876815153924335732860129,-0.890655070991964059601287,-0.0482842887792124184076492,-0.0289418526671399445326927,0.0321750065667629134291694,-0.0911802472322816304206583,0.0286875600340967644441559,-0.0129496108283674356970172,0.000741203556805968151975639,0.999504035491347919695215,0.0729036488029298351820628,0.00153715350007213591432276,9.72480672957764014086024,-0.00791639528624104443776943,0.0213741567441416632777695,0.0115339583260628767563682,4.58752354748550850160882,-0.941555792176514305680257,1.75971074173948149876878,1132.73275692579272799776,1140.12252656903820025036,1142.59612422731834158185,1131.36807332817056703789,-120.159244532278677297654,-439.782013025287426444265,469.11757792728997173981,-27.2845127853336499867964,157.166602145950577096301
33.9074999999999988631316,-0.752203105381751058189366,-0.631787680876872648205733,0.0358824075027519770464401,-0.0307681672127643676684094,0.0307145947297602119052673,-0.0912236109040354958832353,0.0286407713680612505124934,-0.0129273867106279756467035,0.000640494202013562803112168,0.999505729319313029890282,0.0745660226247795293597065,-0.00100998050589987120595481,9.72583910614548940998247,-0.00825671472560610825164318,0.0203673048611843938993093,0.0113544742704124925619658,4.58750342539983080314414,-0.941505717598121294464875,1.75974119615465984800551,1132.68663492873270115524,1138.79929014506046769384,1143.83362604120088690252,1131.49501291794967983151,89.7768198527951426513027,-652.919195144461582458462,517.900065781540092757496,115.017614140183738413725,157.166522235901936710434
33.9100000000000036948222,-0.572558824069788085964205,-0.310782823290583709585633,0.15637062933561277078276,-0.0324803557116618707434341,0.0297684170018397142865041,-0.0912193069088113456244216,0.0285939955158054370798482,-0.0129070983555640388107388,0.000540307396041791229007734,0.99950738537192862498415,0.0757511088336079579930171,-0.00346483195597585558189735,9.72705211575773809329348,-0.0085861218550499357471395,0.0193538038888857802377608,0.0111809121582329713123771,4.58748322948113518293667,-0.941456760839536110907488,1.75977035763010447588783,1133.18164102505693335843,1136.85793059331422227842,1145.18562455622736706573,1131.9431613988717799657,251.191894960637654321545,-744.590330848478629377496,438.876478450995932689693,183.183560947506492766479,157.166543068620057965745
33.9125000000000014210855,-0.413380761884040992537592,-0.060862899789367395919637,0.278326092697173399503896,-0.0334576615439957161801665,0.0294689942378943796341684,-0.0911895816689234361973604,0.0285449999008014175527759,-0.0128822212527044711871671,0.000441274463120274894247647,0.999509149353010384331242,0.0763060537168126495899401,-0.00584095730992936768011248,9.72842017802151026728552,-0.00890743087712909768771663,0.0183325828038747896953087,0.011014741056452684309086,4.58746193898939225164213,-0.941408997582654949454195,1.75979888199242462398786,1133.94259440353653189959,1135.07633849081616972398,1146.02800843345698922349,1132.41093072268768082722,338.553059536105649840465,-714.384864776015433562861,254.934938084902512400731,173.699098355995090514625,157.166650325188726355918
33.9149999999999991473487,-0.259771800140698450043431,0.143876913466956191101076,0.423122723177181692122417,-0.0338564703488620291627065,0.0298719080135995025682139,-0.0909940953216051284790922,0.0284925868055585368443516,-0.0128457245279457853842642,0.000342202346830153302566918,0.999511147205045413777214,0.0760805924360461738320538,-0.00813275034972846255776346,9.72991556993740047687425,-0.00922331971877007363025402,0.0173028067203022592468464,0.0108571427704639445616097,4.58743845984037879048856,-0.941362453568518220414774,1.75982685440683694899633,1134.87440632273592200363,1133.286006269437393712,1146.46029924665072030621,1132.81165689065096557897,402.218881894417563671595,-752.538710652585677962634,97.8049668909488758572479,140.537502257458015719749,157.166840688041617113413
33.9175000000000039790393,-0.0933029150596613870982665,0.311062325362537417383635,0.611934117506111041606687,-0.0339248523674835142371897,0.0312830924644235466858255,-0.0902123918074828889945849,0.0284401976129560613015812,-0.0127951809239877124790841,0.000243249219550187615549591,0.999513312657859920307146,0.075026366413719833281526,-0.0102457463912815349704744,9.73150708731755287317355,-0.00953622752723227995463873,0.0162642118266291269002011,0.0107089747330079941567416,4.58741218858461596852294,-0.941317369877140763811951,1.75985388145577870133707,1135.95368881300964858383,1131.31364493755131661601,1146.51703326791198378487,1133.11361823397533044044,360.054715714975372975459,-667.702886009805638423131,-37.0459381894117214528706,82.1883428243870781670921,157.167152643131601053028
33.9200000000000017053026,0.0275294078111822798637931,0.372161615887749430697795,0.76479471992003400515614,-0.0340203266389601730046444,0.033096396515227249901514,-0.0888091978390475739191245,0.0283876207670195994381412,-0.0127362830318130393347786,0.000145318649057798223713997,0.999515576496699309494431,0.0732659394703395056014372,-0.0121588474165497117951418,9.73316282326831938576106,-0.00984856098626084482117182,0.0152170925028308305637648,0.0105711182084049070545317,4.58738391366182529651496,-0.941274785707843952842211,1.7598797357744873082197,1136.67467990131171973189,1129.94749183938665737514,1146.27506955570356694807,1133.2225986047731112194,229.487419687147394142812,-460.901179773018952801067,-121.710441446950156318962,32.2078362185786417626332,157.167473377391019084826
33.9224999999999994315658,0.129185240591239203222784,0.350397545338364480027593,0.885968810765036196563926,-0.0343111156492410807050675,0.0351905946912951517191459,-0.0865302853635564195311503,0.0283374129546934000467573,-0.0126746069121397835627318,4.74061268066072337337008e-05,0.999517793776813823214411,0.0709335762027838573340333,-0.0138002887501511573020707,9.73485084847960813192458,-0.0101632061325742876350953,0.0141624585405836916907063,0.0104440427275755975955462,4.58735478914450567344829,-0.941235804448023793966627,1.7599043166033347951327,1137.10112591144434190937,1129.00913903868831766886,1145.90848106067778644501,1133.27465741506807717087,115.11674716536172979886,-290.769069652825010052766,-147.709242166045186195333,42.2007167666308333764391,157.167847249973846146531
33.9249999999999971578291,0.223057711036184963537821,0.249923349938453498442215,0.964207498238116800237663,-0.0344194567435255893705914,0.0370835951092153975894306,-0.0830866408233063707955424,0.0282916876015776690145298,-0.0126148241353408810394576,-5.1254707502401182115867e-05,0.999519846128063327306279,0.0681593831642874348197836,-0.0151109076604437342350451,9.73654146993308700075431,-0.0104835726163392296828025,0.0131019354838549078462462,0.0103278082515125390478117,4.58732576206161102305714,-0.941200811784941082649425,1.75992833460505071485613,1137.25026363713800492405,1128.4936464911238545028,1145.53652334487401276419,1133.43360218860607346869,4.55340464604654560076824,-80.1507327645185085884805,-101.322771316011312592309,96.6297627525324429598186,157.168346544228228367501
33.9275000000000019895197,0.2663063979795324276445,0.13458819881666020390476,0.957873335753068766429408,-0.0338852473911387050420352,0.0373130847765311204899952,-0.0800969384056815641992344,0.0282487894404274998694238,-0.012560133643695453944944,-0.000155060339757842082213796,0.999521742027650428319419,0.065058986143788091749407,-0.0161100224314352780119464,9.73820938373230049478479,-0.0108136440889478550181346,0.0120374427762875921277264,0.0102220768231682714727304,4.5872973864506150221132,-0.941169524807591861836897,1.75995218277411380469744,1137.12389293467458628584,1128.60838537486552013434,1145.40186720409747067606,1133.75780622883098658349,-78.4617869191205130618982,153.949095467999910624712,-4.1776999213176626568611,184.217966496495478168072,157.168797452365339495373
33.9299999999999997157829,0.254637890776547748394876,0.0277241231537384003047464,0.870188128770074342810403,-0.0327428899491893285467192,0.0361489890554849979675822,-0.0771909691564563599230908,0.0282092495990441879949451,-0.0125157119051494160333338,-0.000265151327106072679743592,0.999523404117281577541121,0.06179829670790988604967,-0.0167795378830037922313068,9.73983242124612935697314,-0.0111575521598009270995977,0.0109712796065630450309536,0.0101260171689298624636555,4.58726958893805925043807,-0.941141621438994713244597,1.75997566751426282039006,1136.85795470254220163042,1129.26339196846424783871,1145.51563484526741376612,1134.35469202108902209147,-106.718214958852257723265,338.994385130207774636801,83.7352408560343377530444,282.13343561963677075255,157.169276294386122572178
33.9324999999999974420462,0.185981824507948007019209,-0.0505397598698599029298784,0.718592614962386466714861,-0.0313497446385960290560213,0.0346471392932996002933521,-0.074413936134999816851554,0.0281731889212293168389678,-0.0124821466811750395042857,-0.000375138761145883041590171,0.999524823684899810238846,0.058463319763541091167447,-0.0171144329535379002837914,9.74139434470482967753924,-0.0115194392569011368893106,0.00990603095700737235063116,0.0100382567174130202247717,4.58724313641552861042783,-0.941117159723230622958567,1.75999879089077682081665,1136.59030185988081029791,1130.303357300515017414,1145.82054340837726158497,1135.16847340692788748129,-79.5229777949819123250563,486.056271412714124835475,150.299744078634347488332,360.420806649515043318388,157.169772597397837898825
33.9350000000000022737368,0.0450919570632071081695003,-0.0894090184228961831758298,0.506293632959297301709967,-0.0301349888078489419607209,0.033563213092976690310465,-0.0723473484686373846663798,0.0281455234868245099399964,-0.0124562460736081896672811,-0.000479527013564972433203731,0.999525902372280894425671,0.0550764032279953269499728,-0.0170219728828759075955901,9.74288384281241448547917,-0.0119033675049645560478639,0.00884436709617934628535618,0.0099568111761915677193624,4.5872188333315921937583,-0.941096472531700145580658,1.7600218514677521408629,1136.46033981356708864041,1131.69367332552906191268,1146.26713356566096990719,1136.15679605433751930832,4.71338437837161894350402,658.313936314043303354993,194.190819420865210531701,440.072031610727606221189,157.170283557269044649729
33.9375,-0.194346268038807529210388,-0.106843898300738565643186,0.216606922325656175987163,-0.0294013494466879264643833,0.0331075340236338874766453,-0.0711540817421404542253427,0.0281253673124552995565839,-0.0124330529064059450844448,-0.000576682363266975222225452,0.999526724627407880952035,0.0516341192494839534843365,-0.0165283840925789238252008,9.74429767204407504266328,-0.012312911824202764365932,0.00778860362769232851543055,0.00987936757271289447968066,4.58719598268161554699418,-0.941080137868979815785053,1.76004504166953967825293,1136.61386878177268044965,1133.59492698208691763284,1146.791497505482084307,1137.3688335649826512963,121.51272520429439794043,709.883292830781897464476,161.940206120072559770051,420.428300552403413803404,157.170905812465747430906
33.9399999999999977262632,-0.430769303916752832606107,-0.116386794036059726398236,-0.0229357987552270652098496,-0.0296147851499048604673181,0.0332902840855952841803145,-0.0713079996148641148678848,0.0281117876565884737549705,-0.0124102058007437496267578,-0.000666853549678137554231061,0.999527344126158845405428,0.0481890687178808535540142,-0.0156661076979243973905653,9.74563860450482799535621,-0.0127506016255442018031419,0.00674065674531307192779428,0.0098033168286800701635153,4.5871732906287574493831,-0.941067086010283104791085,1.7600691133200170312989,1137.06790343958800804103,1135.24308978967974326224,1147.07683459626059629954,1138.25893755709762444894,251.779015075824986524822,643.440922515254101199389,54.6700343494824210210936,302.598374432527464250597,157.171426378865106698868
33.9425000000000025579538,-0.668841966844247792778333,-0.141152393757776245530877,-0.226123870390559089660343,-0.0307394619506220767579663,0.0337232431998001486173067,-0.0725608627387446247780645,0.0281029093891155198892129,-0.0123855080330627417145584,-0.000753906801933613198579698,0.999527838762943043882103,0.044799881357839702045176,-0.0144908633115536367164111,9.7469159901600104234376,-0.013217685655624441740108,0.00570181569849845509140307,0.00972585628336296824369978,4.58714976432452825605424,-0.941056081292436896745812,1.76009484552745787411254,1137.87276385715244941821,1136.81213159466483375581,1147.06484767722963624692,1138.88182543714606254071,418.822249388826492122462,644.146450666119221750705,-87.6036296516310528659233,193.386654280440069442193,157.171942545745537245239
33.9450000000000002842171,-0.90640744873429957007005,-0.199538508249828772100898,-0.402314343396917462047924,-0.0331529521638142324335696,0.034266289236340966017913,-0.0749629363228272310726297,0.0280918027876612512450105,-0.0123548234117203253878969,-0.000843652945577576707410217,0.999528452676716083757924,0.0414864215162758509514163,-0.0131609665095398231660084,9.74814676027926907408983,-0.0137139877960843602905383,0.00467268865112922468507684,0.00964420899456986009667947,4.58712482562632750671128,-0.941046679717602696513268,1.76012276206450257731717,1139.16201468653321171587,1138.46382204301198726171,1146.63881644800221693004,1139.22587082850031947601,503.419381528786686885724,551.425880566467981225287,-216.99512272845549887279,56.5127933369299313426382,157.172549501447093689421
33.9474999999999980104803,-1.02714656596485132133978,-0.26881972348613286660779,-0.489493481611153413712856,-0.0359536964349516929839723,0.0343110601924898131476205,-0.0771330225354948245675146,0.0280709594654013731840347,-0.0123151230181000586466622,-0.000937016280555493701401315,0.999529437043803481444115,0.0382839464944152441105985,-0.0118482637819354030828123,9.74935288824576673505362,-0.0142377639074227190646438,0.00365359635529352534330516,0.00955594020507097123562357,4.58709773263886866345729,-0.941039010660859931434175,1.76015206204967822323226,1140.38986076479409348394,1139.56926099749466629873,1145.97987206358834555431,1139.16438940383045519411,487.15574580899192369543,372.383459016091876492283,-296.411348791237514888053,-87.0800351602165534359301,157.173039675186515751193
33.9500000000000028421709,-1.02878262141261411777293,-0.343400844592286369483247,-0.530522599823901597204667,-0.039422044459649731307227,0.0335773929546886243380222,-0.0785565037236857222069375,0.0280373386729090082192251,-0.0122701595492146677685019,-0.00102917761720359404904734,0.999530835746453405477041,0.0353502041778539083383137,-0.0106382973521706725161806,9.75055806248026435412157,-0.0147857109890476567937156,0.00264485795087702688088704,0.00945940910652001698544211,4.58706853961187288604151,-0.941034158419183142108011,1.76018166748380067154756,1141.59779341557941734209,1140.32573933809339905565,1145.15675970404527106439,1138.79047065269901395368,483.99445889292815081717,242.671239362437972886255,-348.684474098903478989087,-213.173344339411499959169,157.173507502060317619907
33.9525000000000005684342,-0.864169848261575390679923,-0.414091447762246378516693,-0.558296232281448090439824,-0.0444864969968893075868976,0.0319663153498955174280916,-0.079258236979704008162706,0.0279941705488721166716903,-0.012223050601290658817577,-0.00111943557624474159840899,0.999532517918311658178254,0.0328201903645465448144947,-0.0094954331182966755786623,9.75178647578372448379014,-0.0153533189349287224612084,0.00164659427476558997693878,0.00935382717160846560711107,4.58703684336826178480351,-0.941032142694127604620746,1.76021116538210331547987,1142.80983305925997228769,1140.7826171943074768933,1144.23644969309293628612,1138.09852268213285242382,378.96346664026981443385,90.1325417098088337297668,-288.667238608276136346831,-273.105878573981613044452,157.174036115895091825223
33.9549999999999982946974,-0.587908348361450783237103,-0.442144421834432199691634,-0.583040208676968707557364,-0.0488762056675569253605396,0.0302180863089134797705437,-0.0794463762420285352083837,0.027943731949035734846154,-0.0121727479224994199896726,-0.00120812404995059388158885,0.999534429797574675014005,0.0307339073785556325668633,-0.00840261174985720837860015,9.75306349828628960096921,-0.015935050856605230407137,0.000658636712884050497772426,0.00923929866489689617659042,4.58700152404253458371386,-0.941032499498813845839607,1.76023941546888362807977,1143.49261074877904320601,1140.77640204664203338325,1143.71342351100520318141,1137.42494125983034791716,186.431409720030501375732,-79.0736747321311810310362,-126.155328165740712620391,-265.439626675197985150589,157.174444385788916633828
33.957500000000003126388,-0.204931787505466977972191,-0.429852160393469295840418,-0.616772638923126725885027,-0.0514333480263142253652298,0.028554469079107729773126,-0.0799617763719572965941396,0.0278875786099054279176812,-0.012114398484429942520757,-0.00129944116967417740669821,0.999536580163129295684143,0.029041983278624654979394,-0.00735640915636878722771996,9.75441368220934812427458,-0.0165245906565530918663764,-0.000319588664684059573038027,0.0091167731482239139362278,4.58696110165067594266475,-0.941034962261600771427084,1.76026610151654128166854,1143.74199010786060171085,1140.38724882064661869663,1143.60567305226390999451,1136.77132454875618350343,24.1930325851957519489588,-211.328233202612977947865,35.2059963947614917856299,-243.733315151496668704567,157.174813664509798627478
33.9600000000000008526513,0.211016468743003060559715,-0.386449531425193171241261,-0.650079795156030093572497,-0.0512783079788579274072013,0.0273133127490087918021189,-0.0813256469246176338927512,0.0278280317655741037119466,-0.0120492144696178662272024,-0.00139740184314836313195229,0.999538882922820337562086,0.0277958697791032931234678,-0.00633642064604497678992345,9.75585763296531638388842,-0.0171150929161113934950933,-0.00128889136840740995554322,0.00898822311472906830542851,4.58691462401039373730782,-0.941039421694573441357079,1.76029069623814238276793,1143.61357591170508385403,1139.7197608806284279126,1143.88945349297910070163,1136.20627468407224114344,-136.405567379448626752492,-318.619549269732146967726,198.282076235680762010816,-192.694790622356492804101,157.175146868729740390336
33.9624999999999985789145,0.588899200119564425470742,-0.315048588430104026247847,-0.665419227285967029850156,-0.0483747650745859347765077,0.0265528142800028482684027,-0.0836080966988667351191822,0.0277675645880043828195305,-0.0119847217315638427531654,-0.00150270371028258229763319,0.999541177012568171633689,0.027151558316785891905587,-0.00531600530255343928232037,9.75741074195586755024578,-0.0176998055238549827083983,-0.00225017465668525627059404,0.00885649429460071482833605,4.58686433541631011223672,-0.941045859574185739049312,1.76031316415689520482601,1143.0599622709639788809,1138.79415107429940690054,1144.59708343344141212583,1135.80785059564527728071,-325.602289436134810785006,-440.131225906954966831108,371.253583089802475569741,-127.867510043714062817344,157.175432541409691111767
33.9650000000000034106051,0.920618407287511764103272,-0.210730832168091436473745,-0.647059845427740865098087,-0.0436255683228339158352682,0.0258575011657179720803157,-0.0863894389073324164840528,0.0277107982570194942562036,-0.0119300024576017536792616,-0.00161501501714948910402858,0.99954322567331255200429,0.0272776448609091358432632,-0.00422317696127447184117898,9.75908179362375349796821,-0.0182726805636529120169254,-0.00320443180845270906426103,0.00872494103078620339419835,4.58681277501066109181238,-0.941054802987026595140208,1.76033307793557081133429,1141.98556446452357704402,1137.51910475109252729453,1145.74572140842906264879,1135.56693713385334376653,-447.280786482723101471493,-471.950591970730329194339,429.364300927189560752595,-46.7053388101919395580808,157.175715820203777184361
33.9675000000000011368684,1.06733686131997052015663,-0.117470162900616362233741,-0.599715647231466641997599,-0.0393891208228520153800112,0.0254820134502866078862748,-0.0882295909608956235858912,0.0276615671727666566359627,-0.0118834682333746072951941,-0.00173542985051116467262733,0.999544937964346624781342,0.0281183301605755602003978,-0.00299829261018461079579822,9.76087408690697344582077,-0.0188287692666954317721739,-0.00415289475307820121763314,0.0085966858925165118288092,4.58676061165959314536167,-0.941066161389049526952988,1.76035048026596663284238,1140.82355833854921911552,1136.43439811444454790035,1146.74390493807845814445,1135.57432390159419810516,-500.535948502193207332311,-411.192916029686955425859,352.115612431363956602581,43.9079446001814233113691,157.175899391052780629252
33.9699999999999988631316,1.0793757812941446871946,-0.0279317321717311752016233,-0.526649481423341447872133,-0.035534458583402601938861,0.0254691202377539047119193,-0.0894615087223768756796716,0.0276241379868890184201558,-0.0118379095038521082311478,-0.00186494824465945280636547,0.999546279637618884095218,0.0294930973217205592840084,-0.0015697585604731723041283,9.76278421768997262120138,-0.0193640926022352784230396,-0.00509697393102558505423305,0.00847446163351427660115345,4.58670739917932834828207,-0.941079119893618920578149,1.76036686736252234730671,1139.48288472201488730207,1135.46314017094596238167,1147.5062994705842811527,1135.78647685685405122058,-605.90409751199251786602,-377.189205357115326933126,225.86895357069164447239,132.82422571612667638874,157.176025562656860756761
33.9725000000000036948222,0.971414192687629407529926,0.0651995724512297869512878,-0.420587092712292942575658,-0.0320062920178512747004795,0.0257088056184242089163838,-0.0904320635429543689953746,0.0275989031606306452204525,-0.0117901935006157927710024,-0.00200140423647628866790638,0.999547281404419618588975,0.0312876317413308263626348,6.25764747726187398058073e-05,9.76480263383830759948978,-0.0198754501957996536354312,-0.00603815135819654649068644,0.00836072006081081849082626,4.58665231439074538855039,-0.941093365633033807071683,1.76038293629196029854711,1137.79403785098770640616,1134.54845208765800634865,1147.87324970593249418016,1136.23844503017517126864,-611.224190058243152634532,-285.769159450491542884265,19.7033851953519096866785,189.882133154645259764948,157.176107906389177060191
