t,ang acc x,ang acc y,ang acc z,ang vel x,ang vel y,ang vel z,quat x,quat y,quat z,quat w,acc x,acc y,acc z,vel x,vel y,vel z,pos x,pos y,pos z,mot 1,mot 2,mot 3,mot 4,dmot 1,dmot 2,dmot 3,dmot 4,vbat
88.2925000000000039790393,0.844910396336415958629118,-0.477052593785761702704917,-0.337644280385964445923008,-0.0550432490560747028629507,0.0330615651320406087054771,-0.00057767354455631584903702,0.00400546725478039336576508,-0.0027542943861733394129987,0.0285460937306569045857074,0.999580557711582495805658,-0.0413065434370689515963804,-0.00745706805422079177514405,9.79701935474197860287404,-0.0220358890808803366267998,-0.0197194812646909016506935,-0.00687348136185495298122738,-3.48560014099872095272303,-2.45914913993786043988621,2.00943476705010670713136,1138.45173957086672089645,1137.94485274962926268927,1132.01737551154610628146,1147.57816041110845617368,314.258948013197596083046,52.4448352743569969902637,317.803365759953351243894,307.183792066832381806307,148.18300390993073278878
88.2950000000000017053026,0.925663043499237558897619,-0.363527911851641960527814,-0.385387178390018625417923,-0.0514340730150648350882392,0.0317296496663213370426071,-0.00199912724760897744097354,0.00393741910455482676395311,-0.00270014534389391609725539,0.0285240324308005631370744,0.999581597553211631534964,-0.0397880892169976130290365,-0.00881061855488109862966084,9.79536856278710210688132,-0.0219760663126094407671118,-0.0199368015149228479387933,-0.00686814032228590717193972,-3.48565940603255519647519,-2.45921120144752514136144,2.00941708787876027741959,1139.20232101751935260836,1138.11490478222776800976,1132.89371107905503777147,1148.61678262773421010934,237.928058431260012639541,67.9254816434130788138646,317.984182128719112370163,434.54952220843966870234,148.181275058268028033126
88.2974999999999994315658,0.908661843062735896658921,-0.289900972531356326822305,-0.376499652828151898376063,-0.0482407060897605544091959,0.0308386362165572434912431,-0.00378295498342193919905085,0.00387384054346009368968717,-0.0026470929519761786374854,0.028505304678089170289379,0.999582514786627518432738,-0.0382636648524254940895162,-0.00957234502036380385803227,9.79346904575798937742093,-0.02189699192128833141191,-0.0201282683477139526240229,-0.00686621051228735942983938,-3.48571601192651714384851,-2.45927837758534417744727,2.00939859962389855141396,1139.64137986302193894517,1138.28448015784601921041,1133.60729642218825574673,1149.75090802214867835573,144.955689747252989718618,79.9545297076565049110286,275.476363964049141941359,467.713142590325958281028,148.179871902717053444576
88.2999999999999971578291,0.801574217783166509398995,-0.235909110496193202832771,-0.306304030757707623777719,-0.0449706492569679136539484,0.0302155950629774336380073,-0.0059811738106276433543651,0.00381508157687456082168831,-0.00259839968917754526173125,0.0284923397325443431005176,0.999583231063463917287493,-0.0367086856255848248409279,-0.00981219218500790912873555,9.79134250061954780619544,-0.0218037698521641350180023,-0.0202865227560129549044809,-0.00686922927352690004809688,-3.4857699173979521667377,-2.45934814489408726245756,2.00937937879595995838145,1139.9270994662549583154,1138.5146774307656869496,1134.27109289887403065222,1150.95534834068371310423,100.16608098871999743551,131.074825400702195565827,280.326595160231875070167,484.590837584423354655883,148.178510235864337118983
88.3024999999999948840923,0.589751790754622584600497,-0.192569023110020443034784,-0.162635621172066924255972,-0.0413968549678565556071419,0.0296699618563935341164495,-0.00821082847199443820185305,0.00376385476240449767804108,-0.00255714833369322536854584,0.0284850084167815667535173,0.999583733125200990521364,-0.0350896340692471581101941,-0.00956896478563677016504485,9.78901721720259665460162,-0.0217020915557642156412665,-0.0204066413641144361879043,-0.00687877342064891969530827,-3.48582140160280884444433,-2.45941830600013622287747,2.00935996463712918114197,1140.1422102679650834034,1138.93985428484893418499,1135.00892939798814040842,1152.17386221006859159388,61.8310544157962880262858,190.67577346008403083033,266.525715504607092043443,366.167029802883803313307,148.176927208788242751325
88.3050000000000068212103,0.377089709354403002095069,-0.173109619800887043483684,-0.0208308826364645878481685,-0.0394964892415926721591646,0.0292813398244322342645063,-0.00874529518814806845761201,0.00372168374120881604791289,-0.00252608835787047642656988,0.0284793058986089475670411,0.999584123382470046692561,-0.0333682866797822691440345,-0.00891448932287348949632388,9.78652827514898859817549,-0.0215978304779186856821038,-0.0204863661741284154571563,-0.00689667607078510609686095,-3.48587075858706629816197,-2.45948866150711431544096,2.00934139157419755505884,1140.23625473833453725092,1139.46805629806794968317,1135.60372147639964168775,1152.78618348970167062362,21.5195821621403133860895,249.105623899568541901317,245.162036252012541126533,128.174707545511068929045,148.175652761919280919756
88.3075000000000045474735,0.183611225685929552176034,-0.168670526024864209091447,0.0977603757917547694367144,-0.0395230455237881375674114,0.0288797778614086897430724,-0.00747285069760295767027358,0.0036880133593011157379371,-0.00250298565849638035910041,0.028474265897551986198577,0.999584438244591089173241,-0.0315931431027258874388863,-0.00796329022553583787402687,9.78391787053486439162953,-0.0214969292144350544726539,-0.0205258235210075724863632,-0.00692520877077202820504276,-3.48591695867707995759588,-2.45955781085445090994313,2.00932433940632781954605,1140.24980817877599292842,1140.18538240434918407118,1136.23473957925057220564,1152.81473574779738555662,-6.66064049333423113807839,309.154372350948619896371,266.426721073518308458006,-88.9557532119751641630501,148.174427547589118603355
88.3100000000000022737368,0.0496665084278445564947013,-0.174659894224324263589665,0.167080787058184715432319,-0.0409514288504238752053332,0.0284774910843879035249326,-0.00536046437135185779854218,0.00365957030927186767466086,-0.00248044174727740564939671,0.0284693820388803725540683,0.999584724615058761720832,-0.0299041677734281918787929,-0.00687910265614098681563604,9.78123489527569489609959,-0.0214048962221952791817881,-0.0205275252571429818460036,-0.00696694083896360043944851,-3.48595887998655440398466,-2.45962431667837222448725,2.00930857636518211961629,1140.20295153586789638211,1141.01382815982128704491,1136.93585508176602161257,1152.34140472364219931478,-27.4220750847029393071352,335.892086974295921208977,299.705607910163678297977,-288.699143944530703720375,148.173245314774902681165
88.3125,0.0221587850982392364773688,-0.190654846607050842965947,0.163048671486928420382156,-0.0429465576352631647760738,0.0281829137782165332903883,-0.00336569195021275188034471,0.00362897428955345725462567,-0.0024505493701461743445702,0.0284630007183662298020366,0.999585079250899344316394,-0.0284442393695546053011824,-0.00589898156059584510835236,9.77853366917907784738873,-0.0213262682469421219200179,-0.0204961378183247978912451,-0.00702438189250578683825443,-3.48599734461984445132998,-2.4596874965428550119384,2.00929419494834160531127,1140.11269780335260293214,1141.86484283921913629456,1137.73326761880002777616,1151.37124002807604483678,-36.0080177047038958448866,343.152464942607480224979,360.150250618071481767402,-492.320702256749711978046,148.172117559395189800853
88.3149999999999977262632,0.11927103023258581182553,-0.2165003300571835542776,0.0885320949407699953059847,-0.0447256589820548347558038,0.0279205644692100164727666,-0.00194247473548053652299406,0.00359293596585448038807642,-0.0024099451342576394367867,0.0284542960660799232330831,0.99958554883173311722544,-0.0272583371467181034830674,-0.00517107856083114103551424,9.77587126183335008988706,-0.0212642014180799455991266,-0.0204380747157202023733813,-0.00709920848259009730496505,-3.48603373473268884907839,-2.45974606460573674837633,2.00928085091782104854019,1140.02291144734454064746,1142.72959048453276409418,1138.73660633485474136251,1149.87980121236068953294,-19.2005880126263939189357,264.006999795232331962325,354.388235999526273189986,-560.440103814071790111484,148.170830458291561626538
88.3174999999999954525265,0.287595638426187572012083,-0.237053080211545141864349,-0.00305387897297371146976275,-0.04510164332951747262479,0.027557538599174511567691,-0.00178680301164349693288091,0.00355303118719150698434639,-0.00236256239207116493922234,0.0284454874241711931637244,0.999586054248044475478707,-0.026242515465778729066848,-0.00473734744419766068412869,9.77330547308366881509301,-0.0212201732167918086235936,-0.0203608401831998006570323,-0.00719193160027007966778045,-3.48606939537702986697809,-2.4598001193959482257867,2.00926764772093457978031,1140.01669486328955827048,1143.18487783819409742136,1139.50520879879604763119,1148.56903950900823474512,18.6360191281077263170118,100.692982209862776699083,260.707370757423632312566,-494.844356975907828655181,148.169815146836270969288
88.3200000000000073896445,0.500857456372265197330762,-0.245048366889131535861779,-0.0835592953668290033819588,-0.0439225411526806899797926,0.0268698132838094197460954,-0.00267137251685829529498917,0.00350956219289903130834074,-0.00231447516788727599562625,0.0284370318299937384354248,0.999586566086085759330615,-0.0252518258375464821341438,-0.00464728066358010422076674,9.77089447586866022277263,-0.0211934881987403851699714,-0.0202725040375141239701318,-0.00730225887069055942107942,-3.48610634805093733135095,-2.45985079365968895004357,2.00925414729454532292152,1140.11609154298525936611,1143.2330553955830509949,1140.04014318864437882439,1147.40557942747636843706,64.9300035147571463767235,-89.0070680069683106694356,148.313121515579808828988,-441.391669007600341956277,148.168861481728242779354
88.3225000000000051159077,0.74919529623945901875004,-0.226178493575519029556986,-0.126858666954712845376108,-0.0410376690384019054969045,0.0255780963389754811831978,-0.00455419792889255430068385,0.00346459041176912143494837,-0.00227419011847198584627683,0.0284324636208441068607744,0.999586955644368724271942,-0.024096327302869077757741,-0.00489737779844730963807464,9.76869476119100355049341,-0.0211815123696019805277224,-0.0201809594307735783169644,-0.00742893260014457646606134,-3.48614610567172578114992,-2.45989881304278501517047,2.00923971241884880001294,1140.3413448808639714116,1142.73984249815839575604,1140.24677440637537984003,1146.36208116396596778941,92.1543741202114290445024,-270.875370807671856709931,-8.87899562258906271949854,-308.485364370934348698938,148.167790519121496117805
88.3250000000000028421709,0.914551916714121726492692,-0.180959203379109118126067,-0.103810151430790531534853,-0.0380283685855731037883665,0.0242518736588604351400722,-0.00620541868986236935801237,0.00342184892924798445337786,-0.00224600272160915782546087,0.0284346867644610402925398,0.999587116899152139382068,-0.0226742069756448449968644,-0.00542811992379627766824868,9.76676039248025418260113,-0.0211797131003990633801859,-0.0200936281022765367287874,-0.00757006314275864011786865,-3.48618944894757687436027,-2.45994504840400374234832,2.00922389087232122761861,1140.57686341358589743322,1141.87867854154592350824,1139.99574821053147388739,1145.86315260562309958914,93.1094208116456769630531,-417.587021664137466814282,-183.883284021961912912957,-118.739729715133520926429,148.166960576502333424287
88.3275000000000005684342,1.01131983797069535668811,-0.109543645410848294874384,-0.0244172835893163263365491,-0.0348916518113101120635022,0.0232420849646791834175463,-0.00696048269204968886314511,0.0033832017505152195933904,-0.00223092016478813187640995,0.0284428979308363333311505,0.999587064043391815282291,-0.0209583357849141282969185,-0.00619363601446664552296895,9.76514168116192671220688,-0.0211820307898579751615387,-0.0200171998141937985959959,-0.00772335983382775852906788,-3.48623788161987091527294,-2.45999020838944160161077,2.00920682637364311773354,1140.806891984921776384,1140.65190738983960727637,1139.32735798626640644216,1145.7683825153908401262,92.2656220550764061272275,-581.545591024570512672653,-364.739940491121842569555,38.4423944581507797124686,148.166196828304748578375
88.3299999999999982946974,1.03854439521634622778379,-0.0144346845523981859304996,0.109327603873096645958896,-0.03112168617637319639746,0.0229838938933718955892616,-0.00665943788309886295501139,0.00334975811479231366449283,-0.00222369361576557926160613,0.0284545342069712527133252,0.999586877294884157407751,-0.0190552318778051954506481,-0.00713971149496779589060935,9.76388416715347418062265,-0.0211815542529551238681851,-0.0199573368292141097024572,-0.00788635310959404436936815,-3.48629064651252607021092,-2.46003473831608054922526,2.00918830747537002778813,1141.03819152386085988837,1138.97095058642571530072,1138.1720485080775233655,1146.05536457791367865866,77.2964057445981751470754,-613.6626035211189673646,-455.168996327852426020399,152.791292623808459438806,148.165357993339853237558
88.3324999999999960209607,0.990830328907270740934621,0.0522525323035210043087773,0.23034534075320248214247,-0.0280826123887255724165257,0.0236518229150764446033772,-0.00592497737634645194049199,0.00332263176661113258242297,-0.00221906540039994940732848,0.0284689419097076887310571,0.999586582489056851841269,-0.0170833406133347187605409,-0.00819492781661300406792492,9.76302652807378379407055,-0.0211714523810967204797695,-0.0199183840316933778724628,-0.00805626242177207886607793,-3.48634664104294378361715,-2.46007929552295090402936,2.00916794000191867297644,1141.19337401364441575424,1137.58359437223680288298,1137.05151300462921426515,1146.53233897850918765471,59.2481055061617567503163,-509.684324007291195357539,-445.191730509808564875129,210.994147800239829848579,148.164724273051206182572
88.3350000000000079580786,0.885249753559433472105411,0.0863707011799559054576747,0.338896085998824703189314,-0.0253594074398410633530698,0.0249197736644422539187271,-0.00491119924115174244505511,0.0032984720951019590694242,-0.00221267397011535357082002,0.0284832032897275322369524,0.999586282562769712356499,-0.0151578114772572963842023,-0.00936069682800629715435647,9.76259999207583994973447,-0.0211454134435873249142634,-0.0199034203038075604985657,-0.00823032944074347447283024,-3.48640549180469472290156,-2.46012475345340941856875,2.00914583984000172378614,1141.33443205139224119193,1136.42252896638433412591,1135.94608985552417834697,1147.11033531691691678134,58.643591470195481463179,-403.132952858089367964567,-414.183831258214809167839,225.702894701699165125319,148.164158765469466061404
88.3375000000000056843419,0.750029849208815768690783,0.0894578892016090060357314,0.424614030955128896049899,-0.0231592012592970152018435,0.0261459784902937641959397,-0.00364653719003809467791299,0.00327552752371796686292615,-0.00220184421605989968234729,0.0284955862020448112692517,0.999586038551115940720138,-0.0133704646435005014559749,-0.0105969920744587581262763,9.76262702501316503855833,-0.0210982890086400184936899,-0.0199142585261967569598696,-0.0084057364126321788833085,-3.48646660573441335984057,-2.4601711081351438359377,2.00912242890694825447895,1141.48659197099595985492,1135.56792960794246027945,1134.98059384833413787419,1147.66085345201986456232,66.433829267194994372403,-254.719300367200702339687,-326.333691838250445016456,191.32422223846452880025,148.163649933809921321881
88.3400000000000034106051,0.606610638998313689285169,0.0661779784244334451370761,0.472973374712096772398695,-0.0218236385702146006015933,0.0267076970059139245927682,-0.00223964999552606416899359,0.00325254820408075800627912,-0.00218600047912804367269968,0.0285064580181897016253334,0.999585845934772398990731,-0.011780317047206001479509,-0.0118477395142218000501089,9.76312107098086201517617,-0.0210265449168736337504093,-0.0199514916420108281980283,-0.00857979595448489507081291,-3.48652871595847813068758,-2.46021745293303073509605,2.00909831893434986938018,1141.66660119772791404102,1135.14893246454948894097,1134.31442139633441001934,1148.06695642810836943681,85.2778586256456776482082,-89.1831380687464729817293,-199.234501823320215407875,126.87289372172642742953,148.163209330009379982585
88.3425000000000011368684,0.459491890098379762719105,0.0348159912897856999025592,0.481820162317606881519083,-0.0211074038183501552778942,0.0263521440737794453157417,-0.00062365263822986851619673,0.00322827260322408778059344,-0.0021669623726223415441372,0.02851493398045181967837,0.999585730519939152927122,-0.0104054633914749394829613,-0.0130543536391635045523785,9.76408651508044478362081,-0.0209284159964419139154934,-0.0200146729069180379090298,-0.00875004151325961196383751,-3.48659139827178510273598,-2.4602635372471057806365,2.00907448300559021703293,1141.91298126412380042893,1135.12201391759913349233,1133.98442133921844288125,1148.29521792062791973876,94.4410702794306757823506,50.6987526422569274586749,-33.2544326520139819081123,35.6622189080423268592313,148.16275901881786580816
88.3449999999999988631316,0.376142318707689771173364,0.025244277759330024935025,0.44751056562054736254197,-0.0209522772670889395607574,0.0253987074983272227701736,0.000675942728803544980176188,0.00320529127633812672970581,-0.0021481763432782429758261,0.0285228995253856039415741,0.999585621741823193708854,-0.00923264853787465755718955,-0.014084142624651657671464,9.76551869378931769460905,-0.0208042024952126772263661,-0.0201021920504899677395461,-0.00891406879489480344358476,-3.4866528764678759166884,-2.46030982218231031311007,2.00905143577808065202817,1142.13880654912463796791,1135.40242622776054304268,1134.14814923307449134882,1148.24526752264841888973,95.6843567633274574291136,141.670732467620524630547,155.639934421611201287305,-65.2578168755692473723684,148.162448540488895787348
88.3474999999999965893949,0.342669947075655234591807,0.0437998447656588046905668,0.372319686665160243244088,-0.0207527126815624587963249,0.024443901468807371912817,0.00203997855002859473580457,0.00318406597123451580097497,-0.00213147931158421408484593,0.0285317626609964750117321,0.999585472992463586194845,-0.00828046890898867515851123,-0.0148484396000477109067717,9.76740539296081600184607,-0.0206560452059051657958122,-0.0202113045659850255886258,-0.00906978934885286670886106,-3.48671067153621727641166,-2.46035744417819435270189,2.00902834274791075586108,1142.39140304794000257971,1135.83036757993659193744,1134.76262101132579118712,1147.9689288362503702956,120.688724441464302117311,181.180266803553422505502,357.132230760217794340861,-156.670209036216931508534,148.162204366480693806807
88.3500000000000085265128,0.354981193207918599430428,0.0895625613159068134638829,0.243814643883161819015726,-0.0199921929998262207228699,0.0241459197068116179774044,0.00376313880693214617562115,0.0031650039225240744929224,-0.0021166511017598472858825,0.0285405371416291193942261,0.999585311102507589886557,-0.00760372292253122528116194,-0.015264921070478928988301,9.7697273183016442033022,-0.0204875229059167524026108,-0.0203383616371776085318679,-0.00921526339762254211029902,-3.48676386727304388202242,-2.46040761606236024761074,2.00900403518862979979076,1142.74225017133312576334,1136.30832756178006093251,1135.93381038687903128448,1147.46191647746582020773,137.347582974651345466555,144.646096816216072511452,479.292531741731636429904,-196.817841464218645342044,148.161986593180671434311
88.3525000000000062527761,0.399294083242386854681882,0.130481790702980160467916,0.1191082762226256946958,-0.0189287935303034220158036,0.0248254494367055600356764,0.00503370907127680122794544,0.00314922132347806443819493,-0.00210214513359037501530335,0.0285483206850799253739837,0.999585161829268376010305,-0.00727576837380254637377419,-0.015246341912863468903705,9.77245860563035506629603,-0.020303228449026690383139,-0.0204789900524919923907596,-0.00934866575194359325506888,-3.48681297393654920924178,-2.46045955984544084671484,2.00897837704708015493793,1143.07814096281458660087,1136.55359806401907007967,1137.15908367003908097104,1146.9848396289273750881,139.554939753579276384698,49.2392884188568515924089,507.089446374636338532582,-178.248430350257194731967,148.161866557898804330762
88.3550000000000039790393,0.467338355988434206444992,0.154451022661714815198408,0.00583430501389775937881588,-0.0176954568823994781712194,0.0261648566135273888400015,0.00538438173576528955610598,0.00313820135726060800082649,-0.00208645714805357537086072,0.0285527530668103803057623,0.999585091870377140388371,-0.00735961720382510842242141,-0.0147101724972141037484086,9.77556740573678872863184,-0.0201081595931876834504326,-0.0206284481015837524442436,-0.00946836733736592002508292,-3.48685889904246826276335,-2.4605125586791696257194,2.0089517780548824532616,1143.44002487010038748849,1136.55452400387412126292,1138.46925761874990712386,1146.57067432571534482122,143.782190148834871479266,-41.2592367692843779991563,509.835479689818214410479,-140.156866818588383694077,148.161808543942129290372
88.3575000000000017053026,0.548695463900939039980642,0.15807246663074214776401,-0.068750217089107709678153,-0.016612580268939091537872,0.0275345830433246403778913,0.0043398945079449668602023,0.0031312146486884278456797,-0.00206380776048924099302928,0.0285499046179005996903832,0.999585228772210010461663,-0.00799200914814551799381093,-0.0136284411475753597375871,9.77901775264053085834348,-0.0199071538354059253406181,-0.0207817859592082654351941,-0.00957333584053439261285501,-3.48690272204920947984874,-2.46056637419672741273757,2.0089243888570376128655,1143.79705191355810711684,1136.34730188017283580848,1139.70826106848585368425,1146.28405529483507052646,137.225988669194720159794,-119.22537663501245219777,445.984516311405968735926,-74.4838396759173377859042,148.161800459275269759019
88.3599999999999994315658,0.638903577821246293488855,0.144617094346416369399222,-0.0674695994603639603859335,-0.0156777090242765579364281,0.0284719593900056126833942,0.00201724279636974644300262,0.00312723669503890905688182,-0.00202636954656509925623564,0.0285376852274978227985702,0.999585652309413763560997,-0.00933775373680545417443,-0.0119932851747463140035244,9.78276995377249924956686,-0.0197047431932198917337029,-0.0209338587065869136116802,-0.00966304780625298204155271,-3.48694541062980611911826,-2.46062068079277063148425,2.00889699351809802863045,1144.12615481344573709066,1135.95839712069960114604,1140.69918020030490879435,1146.19825512733609684801,140.830069993572436715112,-178.879950814079052179295,342.94291811742635900373,6.08034739462353179817455,148.161850531700736155472
88.3624999999999971578291,0.741767210988852010444816,0.133282845326758270232403,0.0274172203327228379554636,-0.0140211789711510454586874,0.0288666834875715740127422,-0.000318565026325740290481098,0.00312581140450812538719716,-0.00197304746947349774616187,0.028518263041375228189489,0.99958630375279489133078,-0.0114169287489334636553906,-0.00980593287919157008403204,9.78677995090924568444279,-0.0195052652200677599514389,-0.0210793114782537316376221,-0.00973712636536721090618762,-3.48698810839919515203178,-2.46067580017429454741773,2.00887068214856290282455,1144.5012022635253288172,1135.45290212610325397691,1141.42297565907142598007,1146.31445703180816053646,141.649969548408677155749,-160.284852011009462557922,168.377585855904158051999,67.6319634770312632099376,148.161974906051341349666
88.3649999999999948840923,0.806257310242910363307089,0.149876798545233141934929,0.159746588213682899626278,-0.0119719164246333848594661,0.0286007790116996098161994,-0.000770369843299803275411819,0.00312474866803507224724545,-0.00190847799120462142258292,0.0284966930581455162030391,0.999587035896315923011457,-0.0141254203961621999097176,-0.0071209408932880469134119,9.79100079928292998943107,-0.0193127982832081608599584,-0.0212126653577048435161956,-0.00979538212460167104222997,-3.48703206744510296744011,-2.4607330110992342575571,2.00884561451197241055411,1144.83440466118713629839,1135.15697286064528270799,1141.54106812958366390376,1146.53641494472094564117,146.925022606262956514911,-56.1846842338860454901805,-65.8490344264101423732427,94.717081322413577026964,148.162129759549998198054
88.3675000000000068212103,0.828232103551464815538452,0.214607803623062365350194,0.296745559559390525983247,-0.00941776125878937726831897,0.0279007288172217170207912,0.000749336691798088076581219,0.0031213755330119770207975,-0.00183816518737108360384558,0.0284777718087135083002703,0.99958770935267826640569,-0.0173296555567670207409492,-0.00401792512769685861151459,9.79538450559867612810194,-0.0191311100813770992856711,-0.0213286364792273884505303,-0.00983776186225726254064305,-3.4870771720691062789399,-2.46079274077466836345707,2.00882125017950619039198,1145.23582737655806340626,1135.17197870493328082375,1141.09373048693873897719,1146.78804243842114374274,193.747076410625851394798,106.758795320159279640393,-324.695544226424317457713,95.2324539965935628060834,148.162334690418134641732
88.3700000000000045474735,0.790266003607327682800587,0.353864147108637117078445,0.411097297892888735582062,-0.00600811636787140692511633,0.0270285073900456765394473,0.0038881433068976550132545,0.00311445185458634598435479,-0.00176274127300725977178508,0.0284639713451918067999014,0.999588255925384583377991,-0.0209788218600402281976969,-0.00055932297625264915108545,9.79988369005273796119582,-0.018963691666391131046554,-0.0214225475639769694091719,-0.00986431887114583121067835,-3.48712137834888347143192,-2.46085573949427161011272,2.00879623439125021278073,1145.80314004324213783548,1135.69076683724711074319,1139.91759040844840455975,1147.01257721470483375015,212.862501318534555139195,279.165645708898580323876,-522.516718841891361080343,59.3477490073467848219479,148.162634612840690806479
88.3725000000000022737368,0.704614057150911743399035,0.507503974360359433326551,0.443741481269178228430405,-0.00339431686141757364347238,0.0268412459975812707491105,0.0061949364898124430547921,0.00310488055467035475171178,-0.00168212796557975509913196,0.0284566831088042850039788,0.999588633094962264458161,-0.0250243342094831483501949,0.00322289964942840123640622,9.80445155757181296962699,-0.0188139797723134438722781,-0.0214906801485240314675274,-0.00987499960231680642963603,-3.48716288047620137646732,-2.46092127807490967938975,2.00876983779925222250995,1146.30013988314976813854,1136.56780693347650412761,1138.48114689273165822669,1147.0847811834576077672,180.780894696300293844615,430.066372547280536764447,-634.924558308271002715628,4.42267579142428335359227,148.162926528920365853992
88.375,0.576952109442830263219548,0.661914447279100981447186,0.412295624710642738541821,-0.00153560095418597310212849,0.0278590758262416415824703,0.00728365194609883678800166,0.00309137869145696513040189,-0.00159819995306614056479466,0.0284544312820443068279275,0.999588882584975690903661,-0.0293718198910540018164994,0.00724340699739942084356414,9.80904276397805574561062,-0.0186851569789294805201685,-0.0215306468200809758561931,-0.00986986392365279963101443,-3.48720124779889451005488,-2.46098725065450585347548,2.00874222402327173853109,1146.70704451672281720676,1137.84109869998155772919,1136.74296761690993662341,1147.03469059366193505412,123.275614509496591608695,618.681257185306662904622,-777.705471588276623151614,-37.1253132350713030973566,148.163258375129288424432
88.3774999999999977262632,0.403669265571759361410642,0.786942305907190720049016,0.315979709966838662182909,-0.000242107843536657277305757,0.030515051245476911001564,0.0079028315596190012309874,0.00307761325042654786468543,-0.00151593015277151459130334,0.0284566576890571583391409,0.999588998461985900334525,-0.0338564544301991343644431,0.0115048925011868030665596,9.81361324207533591845731,-0.0185799744742965490529318,-0.0215416006853186466074579,-0.00984891466377125698872241,-3.4872362643037995155737,-2.461051564492592991229,2.00871401045298192400423,1146.91651795569669047836,1139.66121321940022426134,1134.59261953479381190846,1146.89915461728242007666,6.14935159488245464132206,687.653632478020540474972,-751.730084395150470299996,-46.8360795834058407649536,148.163698698274174603284
88.3799999999999954525265,0.265018467647946009968507,0.796833573069671063926478,0.196040067649097621282905,0.000187461223073548795487256,0.0336967495390042906522332,0.00849105930705675894520912,0.00306573547049897743993485,-0.00143886284206096084353765,0.0284634593438883171101494,0.999588964030196924781535,-0.0383376566777836255695,0.0159767068491631636373285,9.81812227620414290640838,-0.0185002021689100668022654,-0.0215240598024181335745642,-0.00981268927601807589011784,-3.48726870050453774396715,-2.46111376881441445974019,2.00868567167843670162597,1146.73779127469720151566,1141.27936686236853347509,1132.98431719493760283513,1146.80051019574511883548,-164.058999967666181873938,638.528167402039912303735,-551.340110495701424042636,-16.6904853464207292290666,148.164097905442673663856
88.3825000000000073896445,0.155038867655099943387853,0.671242526383977855530816,0.0422044587575920379651784,0.000154510703186365265775909,0.0374887953726740150162122,0.00910633031658805019992187,0.00305532519060244074290966,-0.00136878953514138609545703,0.0284725214482907142132806,0.999588842619217987639502,-0.0427090139174919405928854,0.0205771884019454037728636,9.82253329731988600315162,-0.0184460839559210769411646,-0.0214797584543916890431614,-0.00976238153727372950929642,-3.48730078838114909700607,-2.46117422471636126957151,2.00865800682230144502682,1146.09622295585677420604,1142.85385405641659417597,1131.83591898230997685459,1146.81570219055015513732,-336.303184925678010586125,607.437039716668778055464,-353.468632319753737647261,37.2353436118563649870339,148.164527411280147362049
88.3850000000000051159077,0.0801828232222867171019587,0.425641298029508730049741,-0.132728761976887821294468,-0.000113800456011331005824576,0.0411359122497081189373525,0.00950762717889099516488383,0.00304639186781177845678159,-0.00130410258591418708531973,0.0284828512139703587946471,0.999588664677142579861879,-0.0469315474705475771388663,0.0252355205742720856143535,9.82681406172558702394326,-0.0184162753723899862146052,-0.0214112882947215740769842,-0.0096997350940868816426832,-3.48733497845281092963887,-2.46123260986940239902765,2.00863183102641551514012,1145.05627535006556172448,1144.3165520609577470168,1131.21697403333541842585,1146.98668691380476047925,-498.94604534056173861245,549.291167262708086127532,-106.79571777168966661975,114.086677155650335180326,148.164979776390964616439
88.3875000000000028421709,0.0531761771928452656177377,0.0589841176185294316369756,-0.318484400594322369926203,-0.000501583681516306386510839,0.0433097925767725669410346,0.00923500475726253024222334,0.0030398127690119550528558,-0.00124245286958037971791757,0.0284937223262390730560423,0.999588452213074574181917,-0.0509841083694515251334423,0.0299010925758452228429007,9.83093645832869178491364,-0.0184079781609868230185523,-0.0213218470281979662062088,-0.00962678482868420913598495,-3.48737242933192703731038,-2.46128858967864561080319,2.0086076680821132178778,1143.60149272915623441804,1145.60030989272763690678,1131.30194039345201417746,1147.38613557632788797491,-700.390282080116207907849,520.069247675992414770008,183.13711831386456196924,227.592808872830204336424,148.165457111319028626895
88.3900000000000005684342,0.0724881779255891478541685,-0.452945010179800600091937,-0.527780439406656309841992,-0.000867814355808438873951527,0.0429978882861360989231514,0.00768390483322604813526402,0.00303754037089939499596825,-0.00118676838739034304880116,0.0285066347377002440866001,0.999588153567787962572311,-0.0547470871907238532116935,0.034545775523101063253506,9.83487597960567683230693,-0.0184175129229628038729505,-0.0212148231734950523663663,-0.00954539417435521994614867,-3.48741276582453529897521,-2.46134208625614103738144,2.00858584095796288693236,1141.5543239396681656217,1146.91689829933534383599,1132.13265962490390847961,1148.12465095816787652439,-766.965950458204133610707,444.587188411464524051553,392.091616238387416615296,304.646016554083530536445,148.166055610827640975913
88.3924999999999982946974,0.122065372066325353306304,-0.877060208623656856197215,-0.671853487418646033724201,-0.00086566625576657508980144,0.0401590637836423056117319,0.00563109872886390083746022,0.00304159586489018401306295,-0.00114056147860494799632647,0.02852185934324892938041,0.999587752411364549587347,-0.058097336713873626301563,0.0391481957326947349606883,9.83861221213177117306259,-0.0184405145489609026410172,-0.0210935476700645670178336,-0.00945716767094286793471358,-3.48745534201718543343418,-2.46139399442310047305682,2.00856606865959230745489,1139.76666297686870166217,1147.82324583478293789085,1133.2623984746421683667,1148.90936565909692035348,-691.128738898934102508065,319.866678634043523743458,486.64308620490066914499,330.012970365696673979983,148.166573592818991755848
88.3949999999999960209607,0.18932303190812152515754,-1.2336038245009124381113,-0.769478406596103114978291,-0.000438028748407891352530108,0.0354264866741079847978213,0.00349327703700002276457348,0.00305127922104658473936856,-0.00110669496476565871849462,0.0285361436245229541097679,0.999587342953832669323333,-0.0609357353632895282213866,0.0436402737869431150974364,9.8421290449712870440635,-0.0184721905205535441574227,-0.0209610551958641228020852,-0.00936332695581152708863559,-3.48749974196090262168468,-2.46144646021404955860135,2.00854696907911245418177,1138.09868024517663798179,1148.51623169250410683162,1134.56587505592619891104,1149.77471580999485922803,-666.878242889363605172548,248.917498616830073387973,545.671069797745531104738,373.925556067029390305834,148.167109086302502873878
88.3975000000000079580786,0.26877347007275731449738,-1.54463548626173619027213,-0.826377206999016955535353,0.000161206275639144675339634,0.0292886805036402450563848,0.00121687408513502506521298,0.00306400159539070137543204,-0.00108933487446126768191657,0.0285455936031499650507026,0.999587043484428394712893,-0.0631488021581375624791121,0.0479224654937072946925269,9.84541387189594097151257,-0.0185077963594588064399904,-0.0208199437798357693540918,-0.00926443469458390796156255,-3.48754607511006620157445,-2.46150047967344764998643,2.00852743133310296386185,1136.43227176241543929791,1149.06783332786949358706,1135.99075382363616881776,1150.77899343943568055693,-534.597729841801992733963,150.87372786495453169664,457.824905660324589007359,346.601437600123517768225,148.16776926930555191575
88.4000000000000056843419,0.318125118697369868581148,-1.70632451084022118692474,-0.821448261956022052210358,0.000622533123664132954228068,0.0247257667448640139351568,-0.000536305745720627442645057,0.00307674119931535807945244,-0.00108744007844906414965436,0.0285482235351157478953077,0.999586924179068581075569,-0.0647357829147980207151747,0.0518958626713703491395435,9.84845709012104641999485,-0.0185429244949549716647841,-0.0206724577610809118199953,-0.00916056877631171197207127,-3.48759512013621053583279,-2.46155403520541193884696,2.00850703593684176695433,1135.42569159596246208821,1149.27060033183033738169,1136.85499958423224597936,1151.50772299799882603111,-308.870012906489932902332,26.1622905423120428736183,246.931798286775062933884,256.512232211167884088354,148.168332267767056009689
88.4025000000000034106051,0.328818793261783315351465,-1.78751375001589329905016,-0.75758036147443952312841,0.00143598323260856895917936,0.0209095001665644611432704,-0.00244026494449510293616168,0.00308656392155688555703485,-0.00109170019006459917756957,0.02854263887941998339981,0.999587042713345308442285,-0.065868488276760908672891,0.0554739337839814106168035,9.85125146290466524590101,-0.0185737320715520896896589,-0.0205206359871196869493204,-0.00905154616746014183126245,-3.48764565270999993273904,-2.46160563533809417791076,2.00848508653522950240244,1134.88792169788439423428,1149.19864478058093482105,1137.22541281506892119069,1152.06155460049035355041,-133.717646017552141302076,-70.3904705814878894898357,58.4244967082290003190792,187.925192742148226443533,148.168906580604641476384
88.4050000000000011368684,0.290215952334632709685991,-1.82025182809986030285643,-0.639927784715643821478182,0.00286736991762120497009847,0.0173330658295765167864477,-0.00464911043327725839041653,0.00309117196524061896636959,-0.0010968497001769229523549,0.0285305995698738636134895,0.999587359956003895788967,-0.066647197451990561334334,0.0585857736710814203107134,9.85379080720103850410396,-0.0185975581321229203879408,-0.0203660879049194221135366,-0.00893667991584806871430136,-3.48769674486386938028204,-2.46165462546003865895727,2.00846187791072861017483,1134.75710336587530946417,1148.91864797892321803374,1137.14712206777312530903,1152.44734896170871252252,41.5487772084284614493299,-149.863761198503084415279,-129.742335075734217753052,112.309154869501355733519,148.169488873660952776845
88.4074999999999988631316,0.177081510887222765004978,-1.80851476730000237935769,-0.455768504315805733639877,0.0049688207163246312161875,0.0134703984719986638585176,-0.00713282232431258420013442,0.00308773654423435614524429,-0.00109680103844478934842221,0.02851548682941901918797,0.999587794476432867085691,-0.0671959386570988026488038,0.0611552142688441546791722,9.85607035805532660788231,-0.0186128927535403575210804,-0.0202097551920373888489912,-0.00881525712577666334390791,-3.48774697891326912468912,-2.46170166295396253275385,2.00843740512491120142613,1135.09566558392634760821,1148.44932597458910095156,1136.57670113969084013661,1152.62310037483734959096,240.604643267070599677027,-226.075438047360933069285,-332.001378604838464525528,30.803820070405713238415,148.170079219120509606
88.4099999999999965893949,-0.0414370590730292129300061,-1.74941690219562340224968,-0.173308388091500731320593,0.00705609554245922344917208,0.0082346062117522426937466,-0.00957911007866750832673297,0.0030752157351766908587043,-0.00108442519887548462914628,0.0284992700713827713798754,0.999588301324925043722658,-0.0676645132092267981294142,0.0631459269153020752440852,9.85808628063146841213893,-0.0186192008287001629918134,-0.020051799512954184695479,-0.00868669239327095332736661,-3.4877954258846175505937,-2.4617480973189653781219,2.00841206660466742306426,1135.96012658220956836885,1147.78827078868744138163,1135.48711517475044274761,1152.60136806206060100521,373.721823442752622668195,-237.929140033242589424844,-434.053660859560864082596,-42.2933155386182306756382,148.170795070731969644839
88.4125000000000085265128,-0.267831888921885141741086,-1.66474862168121617855832,0.0844407792360654108065887,0.00732979121607430905011027,0.00376047767316467496101495,-0.0102164810751003629074596,0.00305144784838111285743545,-0.00105923100206716989078737,0.0284837128041855389137815,0.999588837842048660853322,-0.0680770591236275063318217,0.0644990440443316825902542,9.85983619956155799002318,-0.0186168949699496016902955,-0.0198914014344062604899843,-0.00855058023264802270768659,-3.48784155427530917492618,-2.46179655194503244075577,2.00838634119941294997602,1136.96427470114372226817,1147.25968027442058883025,1134.40643283538884134032,1152.4116337971438497334,432.039595172938732048351,-184.170736044287536969932,-426.50152359237262089664,-102.405483894910858566618,148.171396556251551146488
88.4150000000000062527761,-0.492308537538731827432059,-1.5500094802673403115989,0.315922863896385963666802,0.00582251031913488120705935,-0.000281316326416956440526623,-0.00901121531997249591849908,0.00301697026305369157134217,-0.00102440211735444473319101,0.0284697376120268477728281,0.99958937444578910280768,-0.0683869099576129152451287,0.0652095661717910085597438,9.86131894780443651882251,-0.0186069468964560266743824,-0.0197270426157177131143428,-0.00840679217290848414256832,-3.48788516527319414350927,-2.46184831821893501668796,2.0083606809109832980198,1138.12032455807843689399,1146.86741710846422392933,1133.35460755678445821104,1152.08934064258505713951,510.071930182321068514284,-125.599347389220923787434,-414.90356724604214377905,-157.636226189704416356108,148.172001803414048026752
88.4175000000000039790393,-0.703417156333104420795621,-1.39151727807426306426919,0.508079627973148317821028,0.00287618135627635326118101,-0.00443987627857933813552149,-0.00625383188299018406841601,0.00297780090334120745715341,-0.000989203142511357012833795,0.0284591803172709219282854,0.999589832200380223881098,-0.068426053251384677533764,0.0653796092250657073785547,9.8625343761764039385298,-0.0185906599422475081462292,-0.0195569384584684605177252,-0.00825535691564801762942771,-3.48792746252780982985087,-2.46190277031888182790453,2.00833583973911133924162,1139.51463435205300811504,1146.63168353747505534557,1132.3319149991605172545,1151.62345266619604444713,490.838626245695934358082,-46.8697707520249124968359,-314.195231133057120587182,-172.041996483696522091122,148.172731020403404045283
88.4200000000000017053026,-0.801167215865257076323758,-1.25345988613757142182692,0.570730016258324535094459,-2.8586932623227638534209e-05,-0.00719882328604059314874908,-0.00363521560525917331041512,0.00293942767017911629409688,-0.000965944030056068683905146,0.028451714344639771059331,0.999590191719535559045084,-0.0679679486781106234616345,0.0651019362621593489226512,9.86348562343258450368921,-0.0185692378175585613708787,-0.0193795673289417734463935,-0.0080968061110713116651505,-3.48797000879162766295849,-2.46195903141951699666379,2.00831223781586087895334,1140.57451768930468460894,1146.63306825470431249414,1131.78363140112060136744,1151.22913066016735683661,383.858881320278555904224,29.4731481230696523709867,-144.32577812789924109893,-146.956838745015346603395,148.173340195849647216164
88.4224999999999994315658,-0.800580445576795973749995,-1.1188626004119401891046,0.523281950632682679724894,-0.00319803854636887055495897,-0.00939380847235559215957501,-0.00136079719313788108370211,0.00290535960554353300464014,-0.000956764596293854709813109,0.028443992056208178276222,0.999590533692467864135267,-0.0669884802950016788880561,0.0644394342313610452022132,9.86418077233506274126285,-0.0185434677205276732259165,-0.0191941019421306632852797,-0.00793261470875107621569811,-3.48801311686115900201344,-2.46201602098143457197921,2.00828994749720957102568,1141.43392875865265523316,1146.7790492780902695813,1131.61028610852167730627,1150.88866847247163605061,303.245151304648288714816,67.6382303139395304469872,-8.02429526580274199432097,-122.398663834358018220883,148.173949921867261991792
88.4249999999999971578291,-0.720470236733181557120531,-0.987919801868722635695974,0.392599089978781012888476,-0.00645227522878852929183457,-0.0117285733942283035974308,0.000420416741236885518201438,0.00287642292501402501922469,-0.000956314678044574255355581,0.0284327139979004446523891,0.99959095225699823306087,-0.0656126045485859454853284,0.0634105959029193366749411,9.86463344596528912688882,-0.0185139538233909071995864,-0.0190005505574076180574927,-0.00776499948897480581772035,-3.48805612448687885063237,-2.46207302364706670516625,2.00826867972775024995258,1142.09074344582654703117,1146.97125940627370255243,1131.74350992479162414384,1150.61713734099612338468,214.394347780047979767915,70.5564925319054623287229,115.487350676281025130265,-92.0762357605254493364555,148.174559444328139079516
88.4274999999999948840923,-0.567402016487343785478004,-0.856368029313050449502498,0.183807461824512879955407,-0.0092540722505382502077742,-0.014365798788588391571297,0.00153492877957798882528062,0.00285186695282167853790489,-0.000961420775059646393750912,0.0284170788620653896883184,0.999591474221001363709149,-0.0639224530573326288340752,0.062007049499622074462124,9.8648624166089451392736,-0.0184814082280009700509638,-0.0187998161139557480592277,-0.00759639696556983160663501,-3.48809841785642360534325,-2.46212946804793864075123,2.00824911964807606423733,1142.50590049755192012526,1147.13183174074947601184,1132.18772286190255726979,1150.42828729366942752677,139.023991306844038717827,48.5934211877035906468336,241.950338885713648551246,-68.2637094830669752809627,148.17516802609469550589
88.4300000000000068212103,-0.354999814652187106744918,-0.694606528612639717579214,-0.117858932545364530897203,-0.0108138439824045796272545,-0.0171630608114880581216433,0.00194526807222901269855964,0.0028321866192708017306856,-0.000970820973290366872297807,0.028398725941272195266718,0.999592052210175996407315,-0.0619609928353852881799391,0.0602507223514472389780394,9.86489104464291521878749,-0.0184465887710346110317516,-0.0185937793829216678476168,-0.00742920099187294093873168,-3.48813978775838240409257,-2.46218465855581047918577,2.00823205945986460463359,1142.78586340236211071897,1147.21422651221269006783,1132.95326161922253049852,1150.2758187935801288404,82.2119782617622121279055,8.53827188773889744766166,297.288364082185808001668,-45.9587772951657242970214,148.175896466890037572739
88.4325000000000045474735,-0.205067303690508517810542,-0.560813337078385987233276,-0.37833900660180308506142,-0.010062567006257292986926,-0.0188511605297316288398779,0.00128662222226904438514283,0.00281611541237916651603257,-0.000982973789381613293619777,0.0283790487936092725163029,0.999592651777882923447294,-0.0597776245978283715665214,0.0581372035127541153531894,9.86474792651050691461023,-0.0184100464483918993541245,-0.0183852981542724468189132,-0.00726571415128050672460613,-3.48818050819237557291785,-2.46223817019286617124862,2.00821678440714768143494,1142.91696038886152564373,1147.17452310018825301086,1133.67416468231635917618,1150.19849340719315478054,54.4212344142164710092402,-35.4282024720172827869646,281.224116627510056787287,-19.9610329318783996654929,148.176501481747095567698
88.4350000000000022737368,-0.133440166871075349686038,-0.438727268243721213458741,-0.607027252396124317179726,-0.00773696016888168053293739,-0.0198744597953217812247306,-0.000453536631920060375952608,0.00280476262934852525743334,-0.00100053984834740984123658,0.0283626164049391588095617,0.999593137826296329606635,-0.05733730103240053388447,0.0557157639258046427643833,9.86446517704556846695141,-0.0183721912252875728410739,-0.0181780012669676901970739,-0.00710758669178707808145035,-3.48822021162156081786065,-2.46228953945253969948226,2.00820215342376284795023,1143.05796957443294559198,1147.03708549985276476946,1134.35938220235880180553,1150.17601362892082761391,88.4277764447128191704905,-76.6605012247752313214733,275.76748156277585621865,6.55163826996299736293849,148.177103942649580403668
88.4375,-0.15238634508363901876038,-0.31842766974559993942151,-0.803731673541739910504589,-0.00534818987437068148194097,-0.0205600779219255701268931,-0.00348404582899797428396926,0.00280033334352885413670586,-0.00102600018197392030966375,0.0283528114004917980439657,0.999593405909129595343643,-0.0546089540375582771503105,0.0530675423075002011819024,9.86407830912086680541506,-0.0183329245778698947388907,-0.017976218230745064086129,-0.00695590546290473284857248,-3.48825899584637078021387,-2.46233815917086351632292,2.00818717107376842889721,1143.35909927108468764345,1146.79122059406472544651,1135.05300209012898449146,1150.23125159854293997341,142.807729217195458204515,-100.506838636556949495571,231.27059253423001905503,36.4722935798785954375489,148.177823539810674446926
88.4399999999999977262632,-0.230190289520001784007164,-0.245862127693906806769064,-0.882674233889897297267169,-0.00553748649182710106497751,-0.0208608277327320713878667,-0.00644882426968162916075533,0.00280034299823090629052991,-0.00105738448699177456889531,0.0283471639028807891047546,0.999593533542569190331051,-0.0516542240701174659722739,0.0501944801092698289490812,9.86362696814041228776659,-0.0182912744108797223341334,-0.0177847860317504186111748,-0.00681159208902226524784407,-3.48829768268689344168365,-2.4623841695146291286278,2.00817131633936130086227,1143.77200822051827344694,1146.53455130667043704307,1135.51573516502890015545,1150.35837509682005475042,199.385810479906808723172,-113.098612972919994490439,173.624329317111573800503,68.1634290173571173454548,148.178420195770286227344
88.4424999999999954525265,-0.320278325466735458437739,-0.203035042359427625457968,-0.864262010105493971856561,-0.00820289381758227895136137,-0.0210292697534870329234558,-0.00918981876164253266847659,0.00280147368912781174338233,-0.00109341072734510705820321,0.0283418680609829852501402,0.999593638402479500726372,-0.0485236094162027065124221,0.047092055401841526052209,9.86315268272740830468592,-0.0182455666093520631199087,-0.017608616776821073290904,-0.0066752065958762662328807,-3.48833718159908512390643,-2.46242805253671859233577,2.0081551882990016366648,1144.35602832348331503454,1146.22572752920063976489,1135.92112373671375280537,1150.5720687436294156214,283.110369244558000900724,-149.194361101520343027005,193.28639707608934372729,108.814065971199639193401,148.179013571616025046751
88.4450000000000073896445,-0.400414644122355944944047,-0.179332648987071852086927,-0.735941234161420099191275,-0.0117595098124257807503668,-0.0211765722397021967371433,-0.0119903391670489814502254,0.00280214748120549391255385,-0.00113515435546771991000281,0.0283371377177300612371091,0.999593717099212297760857,-0.0452216712279606275481925,0.0437978233167743702392016,9.86269707969818121284789,-0.0181936871610574833757479,-0.017452239903836121864833,-0.00654693182347939207216259,-3.48837834413145220224806,-2.462470088113617006087,2.00813913716019021293846,1145.1875600667437993252,1145.78857950116139363672,1136.48216715041121460672,1150.90244542667710447859,309.965257481727633148694,-170.249219620826096388555,241.567752902289299754557,124.438500688516398895445,148.179721764406338024855
88.4475000000000051159077,-0.442305321450329913535171,-0.172880027876269076747562,-0.552392939815652517232536,-0.0133711975923615708494729,-0.0214262006091331981549875,-0.0142700027215359719762189,0.00280246648357757770567145,-0.00118211727176689186669112,0.0283338563678292160163963,0.999593744596174338390426,-0.0417852735518736209674451,0.0403910809265927983613409,9.86230118330964167228103,-0.0181330896986751609334387,-0.0173196700881576293173936,-0.00642679383713582168952128,-3.48842137412712594013442,-2.46251057992847277589021,2.00812335738763092507497,1145.90585461089494856424,1145.3744814310948640923,1137.12896250122753372125,1151.1942612470732001384,267.496005422678990726126,-171.078501163830054565551,317.894412122239259588241,103.925501689904123736596,148.180308736569941174821
88.4500000000000028421709,-0.479494477467319324404116,-0.164410215587910829571072,-0.312710141464078217321543,-0.013220336377403885119719,-0.0220357295747995486634441,-0.0161437891200240830891222,0.00279983394188287708359564,-0.00123421282241903971024777,0.0283303737865960615638361,0.999593775354682190226185,-0.038247092943225452499334,0.0369035695363452154182937,9.86200499186624313097127,-0.0180609859762043238606832,-0.0172142409750652841671226,-0.00631477402196552791563411,-3.48846673063587298102561,-2.46254943468490372637802,2.00810808832630494080718,1146.52504009385597782966,1144.93318699534302140819,1138.07163921102096537652,1151.42207293512615251529,210.143433463881734724055,-176.746142983462732445332,432.075180378644347456429,67.1988057804512237680683,148.180892517147839271274
88.4525000000000005684342,-0.525937694815364453759798,-0.142438660862654137284622,-0.0537795207861727561637899,-0.0123281037227933529254464,-0.0229783399175401137348729,-0.0169724566542586441375562,0.00279056144406072221750281,-0.00128802393335993589987276,0.0283266236695003149892447,0.999593827187489347707583,-0.034707301305252902245968,0.0333502832157239470500798,9.8618464080484589118214,-0.0179747805389969469991307,-0.0171382544710899781259528,-0.00621086646798008068515173,-3.48851473624198060718982,-2.46258619842247927778089,2.00809362204245900329624,1146.95657177821340155788,1144.49075071617835419602,1139.28933840311879066576,1151.53025527597515065281,101.025993521580886636002,-175.189142405656809842185,543.124588396443073179398,2.3342313162650811797505,148.181473801696938608075
88.4549999999999982946974,-0.574396429258941410012085,-0.0959172503266419174128288,0.1864668336039523865999,-0.0120934845885992056646607,-0.0241044070579459930592225,-0.016022556084422694827607,0.00277199265226385580668245,-0.00133562220153741507966405,0.0283220150398619426035385,0.999593936532509386161394,-0.0313549397008817259946412,0.0297690871936242273942952,9.86185997464692754022053,-0.0178723763295959535424284,-0.0170928133091077377736511,-0.00611498836641066051411642,-3.48856509287433746990814,-2.46262082540874827074617,2.00807979836000871642909,1147.03017006146342282591,1144.05724128331553401949,1140.78726215300071089587,1151.43374409170746730524,-79.7995716963940111554621,-192.640926265260219452102,689.102130764776234173041,-95.5045449759340954187792,148.182052332007913264533
88.4574999999999960209607,-0.588062472855462425869177,-0.0152555672265832359402182,0.40458117123567849393595,-0.0140541813142365003275192,-0.0249971174558759057227064,-0.0131199501014740808890746,0.00274222978404916467587427,-0.00137217708952824162318973,0.0283159880872831289100322,0.999594133887307667585276,-0.0283166225470581622847277,0.0262076475717166190726459,9.8620749534835301375324,-0.0177526944963916702424633,-0.017077483818568130885529,-0.00602664414595267382973587,-3.48861807199909579324526,-2.46265395457616831365044,2.00806739042336079847928,1146.55757391973179437628,1143.52754608485292919795,1142.73484905693953805894,1151.05273255109591445944,-278.93928778071972374164,-203.262135865969014503207,703.057998603440864826553,-180.228982599844130163547,148.182743804857153691046
88.4600000000000079580786,-0.51892866885676924848525,0.0597086542967834935091709,0.510073746689057250236488,-0.0173828528999983265845852,-0.0249001671735786696271209,-0.0103073979901107098261503,0.00270355992503613440716692,-0.00139746697853319911709902,0.0283119040678003405786534,0.99959431987756031112724,-0.025622855093552027172521,0.0227862205815373003447988,9.8625133775426139237652,-0.0176162266901727822265844,-0.0170899204688765328497002,-0.00594462132050108810199518,-3.48867277325953573097195,-2.46268633951533333359407,2.00805707044365266966679,1145.63547362255712869228,1143.04093060398372472264,1144.30255214602470914542,1150.53259917870650497207,-473.764022730886836143327,-215.796561293283446048008,569.563921256976414042583,-237.049416886926593406315,148.183318099088950248188
88.4625000000000056843419,-0.333207743260983346722526,0.122582311066066734772662,0.544197478230371678442623,-0.0208881706461415093956102,-0.0239504587907205801489141,-0.0084006386490429081626008,0.00266216103203147829228681,-0.00140880922440336548047413,0.0283135014459429852629047,0.999594374704815380461298,-0.02334636634165057622603,0.0196928144188356912813731,9.86319007182902218744402,-0.0174651571384948599285902,-0.0171258331008897202174523,-0.00586703246723101375093012,-3.48872587779239795580111,-2.46272074564039034072493,2.00804750529492626043293,1144.1887538060727820266,1142.44856327838442666689,1145.5826686632299242774,1149.86748546665899084473,-722.000572238786844536662,-296.220811904410084025585,452.289998206972370553558,-301.97241361816122662276,148.183890899980212907394
88.4650000000000034106051,0.0155023706934703381365992,0.168901194137150406637815,0.536525033160352160521711,-0.0234434087408219304915491,-0.0224882618221458677187918,-0.00740875681297551314657968,0.00262159314826722854296914,-0.00140697340008305322306414,0.02831700542813146356802,0.99959439101379921055468,-0.0214883158427860154748856,0.0170495990988654699815896,9.86411197518009075224654,-0.0173032109059993374766684,-0.0171792998327340018516196,-0.00579117519894916960715436,-3.4887748644150806676123,-2.46275979418962398526105,2.00803721958909608957811,1142.02547076136647774547,1141.55982654446302149154,1146.56400213705751411908,1149.02273711061707217596,-819.611046634344916128612,-357.357008524702337126655,246.903747806570123657366,-296.496734269427633989835,148.184577217623683509373
88.4675000000000011368684,0.374509423369146776661154,0.183488279660980552199234,0.515420963256472242086659,-0.0236444037487448799339518,-0.0214445980750292697347703,-0.00719831473244532307059762,0.00258334387166449198566798,-0.00139498331761808659276514,0.0283202687043407376477067,0.999594418976833765100309,-0.0199994915721471433478484,0.0149210310399948142823234,9.86527741128537449810665,-0.0171356116976630369619361,-0.0172429526340836733466766,-0.00571359397975961056520555,-3.48881808216502609099052,-2.46280406820704023118651,2.00802415208996443141132,1140.09069857290478466894,1140.6617782357625401346,1146.81718740226165209606,1148.38500179531320100068,-734.652795531323704381066,-383.18092173006624534537,-23.2345575999017768253907,-217.439157641927010899963,148.185148833574345417219
88.4699999999999988631316,0.741286267948054744536535,0.186089583084903809062638,0.496898355282161641177652,-0.0219355974025997844945035,-0.0207936218080372707539549,-0.006775501158813776979295,0.00255033298194440359932256,-0.00137911609483716297158695,0.0283236535586169277389779,0.999594430907282727183372,-0.0187580915407414838824707,0.0133808364916835897950875,9.86667506613240163915179,-0.0169684724692318947281144,-0.0173087606825484061068288,-0.00563023154352944050354823,-3.48885407182262641256898,-2.46285440188851190157493,2.00800672732782459206646,1138.35220678371319991129,1139.64392193581443279982,1146.44782934905811089266,1147.93554132240842591273,-612.298961613271103487932,-412.66145877713159961786,-243.726123783284236878899,-136.153714235193689319203,148.185720846769072522875
88.4724999999999965893949,1.06471563593370111000525,0.194019869530762223419629,0.482030254441176086999121,-0.0188982533426258793307628,-0.0204635260733454123205366,-0.00581293548450930851884122,0.00252672806402587032947871,-0.00136761782137634932236814,0.0283280187810146868998551,0.999594380602245924372085,-0.0175955991249890641991982,0.0125089324514651989428415,9.86828434352743322222068,-0.016807835444724698176211,-0.0173690025202496919898287,-0.00553703462883891814327875,-3.48888297690280779761451,-2.46291053098696455236905,2.00798561631834804330765,1137.02920376484121334215,1138.59847094187875882199,1145.59855678334633921622,1147.70423322413785172103,-380.139763433173527573672,-402.321940576025610880606,-432.503627283795992752857,-37.1870012131430272006583,148.186293776257031140631
88.4750000000000085265128,1.28529311293553738515527,0.227530493352646190352573,0.465744440700711526126554,-0.0145214831213615613858536,-0.0204093558510370989833582,-0.00454052538836374319081157,0.00251727961738606965599874,-0.00136723040431636824049155,0.0283381470327142455378766,0.999594111539723328974105,-0.0163664732889574893182072,0.0123804293443146723463499,9.8700765927997249349346,-0.016658792573414790000319,-0.0174170531196027912612667,-0.00543070375650443141340995,-3.4889066167738809198795,-2.46296910778965205679469,2.00796306572315064187251,1136.45150796654365876748,1137.63231223293041693978,1144.28531121263495151652,1147.74960631634235141973,-48.6686281210919133854986,-379.430620551278195762279,-640.064294400999528988905,68.7805066956151165413758,148.186868573663758752446
88.4775000000000062527761,1.39077297484230411050987,0.315975695931254962900425,0.436791759853337568930698,-0.00831558832872125383572914,-0.0204407091144665348236842,-0.00315155999600695265264183,0.00252299487726036697141097,-0.00137992811225128085388103,0.0283568282350187897411509,0.999593540095972010739445,-0.0150173345266586405477582,0.0129843674421840638011361,9.87201722836021922091732,-0.0165244121658822268328137,-0.0174481696783884976387213,-0.00530936403585927606252337,-3.48892777505641005220127,-2.46302666077061482852173,2.00794152808689974065715,1136.78586062423528346699,1136.70131783911870115844,1142.39823531133515643887,1148.04813575761659194541,291.269678697418612500769,-289.383928479164183045214,-702.856302227158153073105,127.686879228238183259236,148.187561540143718730178
88.4800000000000039790393,1.34145572935456414143118,0.435557647275618409210551,0.400641643717922935064024,-0.00320065632552886001824244,-0.0203365329341534256668567,-0.00208412241215136240235495,0.00254204293268701616084759,-0.00140380925122716125608147,0.0283825453531757788960821,0.999592717979634004521472,-0.0135715376943885968064052,0.0142435554132697983487077,9.87406682770637011969939,-0.0164051562643020600040789,-0.0174597205621195641911392,-0.00517258014296472119764037,-3.48895019387804383725893,-2.46308132182297745416122,2.00792287616184728094026,1137.90785636002942737832,1136.1853925905359119497,1140.7710297015023570566,1148.38804071248296168051,589.077998733627396177326,-146.330129636404620896428,-610.162895165749546322331,122.000040355007513426244,148.188142497302777655932
88.4825000000000017053026,1.17630016275212367915515,0.597358345202323559597346,0.348222589775374347098591,0.000922574699982640650947063,-0.0197895493505773449605112,-0.000969957094554400032528074,0.00256654978436738397812311,-0.0014332885109294059983176,0.0284109651611092334233533,0.999591797447544005983389,-0.0121298124455415934352942,0.0159535580922087749655702,9.87618311934989279166075,-0.016298875529342411044853,-0.0174508268222173211492443,-0.00502123283620823594036731,-3.48897631939689700786289,-2.46313247201347884640654,2.00790746983757539823046,1139.73125061790074141754,1135.96966719093734354828,1139.34742083550918323454,1148.65813595939107472077,892.212309396374848802225,-32.2583223120839264197457,-525.954481330769340274855,69.8985765037104158636794,148.188728088734336552079
88.4849999999999994315658,0.906279845626291935545282,0.818452084215924413612697,0.265246697172852763380035,0.00407654986758305883792763,-0.0182240246592831299510262,0.000270663168485459288206685,0.0025869308596183273468716,-0.00145951544193534052396011,0.0284354957305837582892671,0.999591006058483388940772,-0.0108621765047770962864249,0.0178705746864263881334978,9.8783219168469020843304,-0.0162012208663941670305775,-0.0174218939839143743819605,-0.00485694821556100723297655,-3.48900773599570568350714,-2.46318020629230094442619,2.00789513626288673719955,1142.36891790700724413909,1136.02410097897563900915,1138.14125729485090232629,1148.73753359500119586301,977.676551540323657718545,59.9777082401578596204672,-332.437682577831253638578,-23.911228510836654237437,148.189437395420952725544
88.4874999999999971578291,0.67561703235688375102086,1.00151062315486671927545,0.182156750824532948085377,0.004900033836792368723001,-0.0159167276798388435121723,0.00111427531050489465706821,0.00259596833821337975856114,-0.00147357484300729576175149,0.028448689132132734536107,0.999590588597675688831146,-0.00994442113191161547458563,0.0197926107177424093208629,9.88043737349281769866138,-0.0161064365449212452963135,-0.0173740520906719153604314,-0.00468142502082653528400202,-3.48904607636239161294611,-2.46322563533673033475679,2.00788529695939699237783,1144.61963337559791398235,1136.26955573213786010456,1137.68523242262153871707,1148.53857981683700018039,835.325222203287353295309,121.379887769964057042671,-60.6575075700772288200824,-130.628799338756493852998,148.190034923199078775724
88.4899999999999948840923,0.495565782791332287704478,1.15334970512623335991975,0.0929487616649532083501484,0.00438856823431522762024581,-0.0125248045589153329110177,0.00160593466628939848805935,0.00259469593187079640081438,-0.0014744307136930717531953,0.028450027404128150343432,0.999590554997119351554602,-0.00939830001755899424598084,0.0216726354902605361507639,9.88248076573294120805713,-0.0160086394672248576165341,-0.0173084806112312888926041,-0.00449561872684081913903453,-3.48909026738413086121682,-2.46327011011599594780819,2.0078768149927830322099,1146.54554401801988205989,1136.63100041782490734477,1137.83796975700079201488,1148.08438959830800740747,671.56767395588110503013,151.307398822453677666999,147.392598695557154542257,-208.590300670545502725872,148.190640298904554583714
88.4925000000000068212103,0.381370399653296943132119,1.26248317318179448243143,0.00799659622060622417294429,0.0036187683443636843409752,-0.00860156448262314014818752,0.00165980620191895811461891,0.00258751773809031337600373,-0.00146402609858129612030453,0.0284427553374434725907971,0.999590796173332019058932,-0.00919143048786161265262251,0.0235276751824367996723808,9.88440285617368807891125,-0.0159026161494995772749395,-0.0172261766071814155509845,-0.00429985274182141836984972,-3.48913794351259021198075,-2.46331534253971229375679,2.00786828541249562363191,1147.97747174538380932063,1137.02609272625159064773,1138.42219541610074884375,1147.49562831348225699912,425.888151581370948406402,156.615482292060903546371,297.411205426913511473686,-240.630787409589771641549,148.191253067872196425014
88.4950000000000045474735,0.347273952427508358908881,1.31371002855660923280823,-0.0598147789015373160248501,0.00318314065360986468353199,-0.00485222732473422971311017,0.00131035724008597698198031,0.00257942923827333405947804,-0.00144272056031410282443683,0.0284299456795791723184852,0.999591211045824268310867,-0.00932873279599238935944072,0.0253890836144197995505323,9.88615595462140994698075,-0.0157843794649410971986381,-0.0171280251167655814259483,-0.00409403408262818280932693,-3.48918604213231908772741,-2.46336282693011021649454,2.00785823500491167337145,1148.67498477593085226545,1137.41407782928672531852,1139.3250257841382335755,1146.8812356612577332271,142.842655261295334412353,165.787494393785692636811,402.37076954604378897784,-239.685528455847531859035,148.191875690773258611443
88.4975000000000022737368,0.369838100531373559221038,1.31629528020789399178625,-0.109583148539594971149214,0.00335683409352107667983356,-0.00101144122658572595263582,0.000767350299055398802315631,0.00257200436671476588904039,-0.00141028059394925162767231,0.0284123187991705862531777,0.999591777210234289086088,-0.00983402471063071770274178,0.0272247927495316566215422,9.88769530294386989055511,-0.0156514802773038731731337,-0.0170150537439325323652017,-0.00387794752337084370347187,-3.48923361132256859562517,-2.46341206112427135721532,2.00784625068066446829107,1148.69168502168963641452,1137.85503019821976522508,1140.43404926382913799898,1146.29720067120410931238,-97.8388196731865207311785,160.548233309473801000422,360.74314159442178606696,-166.656470907597991981675,148.192635034783904757205
88.5,0.406103900956903796082287,1.28026122812139808715415,-0.11978896957531165456956,0.00427179715793470516499442,0.00181396246786855782490155,0.000345145781006365960294491,0.00256886602331398740395318,-0.00136842695418695260191344,0.0283907002209085150556955,0.999592462624978472796045,-0.0106944380065968486226424,0.0290472512398869953109681,9.88897873369500501894436,-0.0155031938345131410639244,-0.0168887172237784412287542,-0.00365130909702360371277274,-3.48927958213007105570114,-2.46346196826476004915207,2.00783284168730880026033,1148.18579067756536460365,1138.21681899583336416981,1141.12874149210870200477,1146.04795330672050113208,-247.399107392809497696362,149.289734037847011904887,183.926745853417685339082,-34.7546707025546837144248,148.193278242938703215259
88.5024999999999977262632,0.412452253035490046251255,1.21556855821867948463932,-0.0949437354226193852557714,0.00624147669332104481493273,0.00462805085864422503794113,3.57951532161260576074199e-06,0.00257411362027983427538946,-0.00132222107908573811851927,0.0283686378583061331315474,0.999593149581417983462472,-0.0118313287233377945062429,0.0308826478489716838016221,9.88996775651004611518147,-0.0153405000546133572086882,-0.0167510371559361805060551,-0.00341411882150997186835539,-3.48932238339313816055665,-2.46351138018826043563081,2.00781864906516460678176,1147.45468948472671399941,1138.60147886840832143207,1141.35368299309538997477,1146.12342731769149395404,-292.472186799061546480516,177.397693784339395506322,-35.6474858858615775147882,110.421230177926574356206,148.193932181782486168231
88.5049999999999954525265,0.34050721723782018113269,1.11295886131461330137427,-0.024058192270069951590461,0.00946005930908801022372057,0.00811697681539817056384223,-0.000318849582633949722026978,0.00258326760948953152927099,-0.00127573268822521956010474,0.0283442461241516334424784,0.999593894949176386965917,-0.0131896673909548817205106,0.032596659032195371419327,9.89063105756112825872606,-0.0151654745225343057235534,-0.0166048785990654604316497,-0.00316736847305201145788556,-3.48936229583112922369992,-2.46355903985244983900316,2.00780405520792859519474,1146.72342974357138700725,1139.10380746475425439712,1140.95050406267955622752,1146.60005945760963186331,-195.069128413738752669815,187.34233608570494311607,-258.565143836495337836823,229.849308057702330643224,148.194728712528245750946
88.5075000000000073896445,0.201155601312521886692153,1.01234268585205722246201,0.0682265949903799184816933,0.0119368056189059889432569,0.0107488101755048373608936,-0.000518294043571672293120589,0.00259011715978370304913625,-0.0012301899772353369448552,0.028316679754720359973863,0.999594735160135750007271,-0.0147679319067580278046492,0.03403076721339745591699,9.89094486134946393462997,-0.0149811128083422763490606,-0.0164537098557897033812569,-0.00291303514945995484577979,-3.48940018388472950050527,-2.46360352463445275716936,2.00778998568492728082902,1146.47934384265613516618,1139.53819054883865646843,1140.06085727391041473311,1147.27267385798222676385,8.49237028299462792801933,165.763190904088105526171,-447.54427723587372156544,304.229395089490481041139,148.195401552035519898709
88.5100000000000051159077,-0.00596894664226262777750875,0.904590361122925123993355,0.190779497808431175442934,0.0129580183155093980884587,0.0126888022185994188417713,-0.000610255337726109425323939,0.00259234023311470098901999,-0.00118489275702419018590494,0.0282889316983978844621817,0.999595590301161851520817,-0.0165947121589869739377576,0.0351129964618496076544929,9.89089278623411338742244,-0.0147910952430126731160787,-0.0163012615260820885321191,-0.0026539360995204465398789,-3.48943632366857592330689,-2.46364437564946170411417,2.0077778608251319880651,1146.76589159498644221458,1139.9326234192762967723,1138.71278267649586268817,1148.12120643306002421014,240.931904142044857053406,147.30166110998408157684,-652.516725714397125557298,381.047201025267952445574,148.196082478484953526277
88.5125000000000028421709,-0.288418211058563855875292,0.774216099556597869835173,0.361020893409962850828521,0.012088011645427360063465,0.0147105708645720138771917,-0.000469628791665405143605783,0.00258773085910064598244573,-0.00114235814379110380868687,0.0282658953733967502341962,0.999596323089933291861087,-0.0186278735142156870452368,0.0357807712235460595451286,9.89046648690806762260763,-0.0145994906432720724515084,-0.0161511320324170606910208,-0.00239361167879213526318849,-3.48947122497537209895313,-2.46368220001750604097879,2.00776931428684424219,1147.68400336336526379455,1140.27469885438790697663,1136.79827364534139633179,1149.17790986310683365446,401.404474054562683704717,93.1256802164563168844325,-710.972628085947690124158,370.796721797542716103635,148.196906910870836782124
88.5150000000000005684342,-0.516675888018287898795222,0.665223422423058319274958,0.506835356422313143553993,0.0100535844882800613070417,0.0164413420118138704772992,1.53512211747642867462182e-05,0.00257736978124897082517708,-0.0011034845319856634825173,0.0282518484359544630457606,0.99959680798106442800588,-0.0208478219642009993117782,0.0360462256966641303446153,9.88966633117634152938535,-0.01441044781372751229509,-0.01600644488929298461799,-0.00213605343407985035983354,-3.48950462840050290580507,-2.4637176970486778238012,2.00776442631302121100134,1148.77291396525743039092,1140.39825182035815487325,1135.15791953606935749121,1149.97519004204605153063,448.087575306361088678386,10.0561505025871671392679,-618.431507364146796135174,281.435882726901979822287,148.197598319697590341093
88.5174999999999982946974,-0.708072532050438963047156,0.55375768832178562384172,0.629371250753976707592585,0.00738778754197019077443187,0.0179818699592238818996126,0.0011292746049554631005557,0.00256394664930716153009027,-0.00106676419907015705354492,0.0282478202796433916499375,0.999597009927118196337403,-0.0232739604368674413148455,0.0359628770769548494756762,9.88850183517024206025781,-0.0142279369558071713125491,-0.0158695597776429241088092,-0.00188535719479958406401277,-3.48953599228878852400726,-2.4637516214400143610419,2.00776210178221425906031,1149.92444123989503168559,1140.32497960690079708002,1133.70611610852347439504,1150.58508927674006372399,428.129539858244356764772,-60.0575824197767857981489,-521.391193703058320352284,205.218239394394203145566,148.198292161986387327488
88.5199999999999960209607,-0.861231962715428012167251,0.439172823008448676151971,0.706916833681604739325621,0.00473842286875598983630908,0.0191727495579784093515663,0.00294113946699263439921168,0.00254794626890866588581064,-0.00103314135019173997977193,0.0282520626143156761145292,0.999596975537030640879266,-0.0258708083816340805860534,0.0355461481181266469864255,9.88699122062835655810886,-0.0140555784501440340222844,-0.0157418105036806997565346,-0.00164533948691347330257895,-3.48956557269279876720702,-2.46378549796733992138797,2.00776157824655143713244,1150.91356166454670528765,1140.09796390825954404136,1132.55096356755643682845,1151.00128123901708931953,316.507284154683873111935,-117.675267968070272672776,-371.454500556147365841753,118.521657053677827775573,148.198986452125296864324
88.5225000000000079580786,-0.973939597790301592183937,0.320154726498614650154195,0.699025838977498592541338,0.00253650670916106147495528,0.0199379801716762297680852,0.00565255991372419670792926,0.00253006609395938809881077,-0.00100263853556700863363382,0.0282615086682439578535941,0.999596790017325931287928,-0.0286137410480807319324015,0.034821414835234987261714,9.88516058499120831015716,-0.0138964451865136989078264,-0.0156234253875965761748645,-0.00141930135703995834520197,-3.48959303381916186026501,-2.46382095513571197642477,2.00776242283894301721148,1151.5069776606715095113,1139.73660326705930856406,1131.84884360573914818815,1151.17769756200959818671,144.224374256503807600893,-167.756649361075261595033,-201.263830947502640356106,27.6058060229764450355106,148.199679395522167624222
88.5250000000000056843419,-1.07640232670204127884972,0.169867510890240713816723,0.563818433852149913931839,0.000296294482884961406753133,0.0204916001700460315149144,0.00950000170416691325225855,0.00251277573243224817620134,-0.000974692220161821267117308,0.0282734371543284096484072,0.999596525568999916266932,-0.0314822622658549461371891,0.0338529919274856150313013,9.88304223901746503599952,-0.0137528827588385815089422,-0.0155136686633976193794293,-0.00120981430483257891214666,-3.48961824768528838802695,-2.46385953156919956796855,2.00776388862007104663121,1151.63468353583061798417,1139.25918066145254670118,1131.5446444128169787291,1151.13931026913223831798,-48.9554603269870796111718,-161.743093701135649098433,-33.1844406779811720298312,-48.2768866849694617826572,148.200506945558402094321
88.5275000000000034106051,-1.1404221603571040866143,0.0348953522849098432545567,0.345927897602938128063244,-0.00160138804210787732799914,0.0207498806810880905004968,0.01229957506375019271605,0.0024986980336677692450531,-0.000951725054316015389201111,0.0282864678419930161423768,0.999596213361737873093205,-0.0343915625767871185880509,0.0327087495960606822187344,9.88067290791799912597071,-0.0136263085392530295530955,-0.015411210886021315183414,-0.00101860512732452192057042,-3.48964242215552999937245,-2.46390079697090458310527,2.00776590345197103459896,1151.26220035903679672629,1138.92788779855436587241,1131.68292140234939324728,1150.93631312858497039997,-227.906171394741164704101,-94.3249486564985346603862,113.097432481402478288146,-104.479869683795627111067,148.201191489515878174643
88.5300000000000011368684,-1.17805936287075985191564,-0.11543710132221118858098,0.0466196038735542592212902,-0.00402165104841554522929759,0.0208574938963887526743868,0.0134981644563324683361305,0.00248915367724710607719163,-0.000934848027363251155540114,0.0283008024758947124288611,0.999595844447732084780966,-0.0372798598539616637959071,0.0314327712971947115239146,9.8780926735236675995111,-0.0135170444121170685303213,-0.0153145920395781048178874,-0.00084669145085324948405564,-3.48966673041979502656318,-2.46394316752751008081646,2.00776882830280012370849,1150.49515267885794855829,1138.78755591817048298253,1132.11013157522347682971,1150.61691092071373532235,-393.622687920782141191012,2.98510386683391049089664,222.419907618288931416828,-149.319045409856073547417,148.201868661024150242156
88.5324999999999988631316,-1.17631551106547527218993,-0.317337432878896652521661,-0.348882527800115083138621,-0.00780100076827498593867727,0.0207579497590692461927997,0.0127168640144503294203693,0.00248368657374603259493928,-0.000922359581697631126899484,0.0283142307178684757285048,0.999595484910427156677315,-0.0401404439481132593869894,0.0300365814629839078531148,9.87534313174471201079996,-0.013424187870487614901438,-0.0152226635586750862205729,-0.000694387534271907616925668,-3.48969225422808682068876,-2.46398549936363719936594,2.00777288355613059422922,1149.29408691943467601959,1138.94281331788852185127,1132.79502094043982651783,1150.18971790153636902687,-461.86634152837712008477,117.9518454447297273191,255.945884292901553180855,-148.28492500446216695309,148.202670311180582984889
88.5349999999999965893949,-1.12362124133244378754171,-0.501620676738353865609099,-0.663410361348200638964556,-0.0114039160851935883478347,0.0203495146970964144172989,0.0106988885348863974750211,0.00247878955490871393657626,-0.000913357290929141295635074,0.0283244251015815004524079,0.999595210782281973216357,-0.0429523298161177055631832,0.0284713520278857268319683,9.87246506678816970747903,-0.0133458447159589908143085,-0.0151346538292671459191574,-0.000561164124352776945946208,-3.48972009029685947822941,-2.46402723349130026164744,2.00777763562176403411286,1148.18582097121816332219,1139.37731514539359523042,1133.38986099668682072661,1149.87548629569209879264,-441.362601497723630927794,236.873296859900307254065,216.083589643440802774421,-97.1833415041996744321295,148.203327447438624631104
88.5375000000000085265128,-1.01318388294743666477871,-0.692041667150284367515667,-0.917954877645774103278598,-0.0147493611942097133105101,0.0193445353969335029353793,0.00820127663558632355456091,0.00247135399124212389032618,-0.000904085297767677053409896,0.0283314575601272336524694,0.99959503180253561627211,-0.0457515067850358947421086,0.0266977256169738663693636,9.86949625556808740611814,-0.0132795031778327691368569,-0.0150500826933198314505624,-0.000445567278493924059847714,-3.48975089460327536627915,-2.46406750083784364946382,2.00778207741192682433962,1147.08727391194179290324,1140.12717980219031232991,1133.8754388886591186747,1149.70380119401443153038,-425.387631501049384041835,347.886769606030384238693,159.059974681496896664612,-31.7254359398089782473562,148.203971140806885387065
88.5400000000000062527761,-0.861841961494806074739472,-0.87338108514899437384571,-1.09875455818484435432936,-0.0176216003748962263264488,0.0176226450968825776310922,0.00546791524309096776956807,0.00245974908922265292701703,-0.000890689599090945644498107,0.0283336403152331141319653,0.99959500433036663213926,-0.0485774302410227967752299,0.0247059562440819502349143,9.86646923381302265454451,-0.0132223211745864984573151,-0.0149687348751180206163358,-0.000345147315383537069827247,-3.48978384378934647358506,-2.46410662386662249190294,2.00778492126850860444165,1146.05888281370880577015,1141.1167489934271088714,1134.18516087009584225598,1149.71685911599274731998,-385.851078719802785599313,446.390930259391438994498,68.4161003419998650088019,60.8701297382239019384542,148.204602095345421730599
88.5425000000000039790393,-0.680411882268231682502346,-1.02243818327264612833005,-1.16878066268608904465509,-0.01973176467249000698434,0.0148645030958789638869666,0.00222115883072373544726563,0.00244201387124926352911736,-0.000872692266412885891621598,0.0283284740134351967211224,0.999595204822796956634079,-0.051406032436986201505924,0.0224782848938185758624897,9.86340993561812595658012,-0.0131715643839460678360398,-0.0148904598232280065833733,-0.000256611656915516029783819,-3.48981901116227755110799,-2.464145375264261694781,2.00778597774560196853599,1145.15801851834453373158,1142.3591344534852396464,1134.21751939036880685308,1150.00815184270527424815,-362.382053007661284027563,593.647830518551586465037,-51.2613283816347191645946,197.521242084847045816787,148.205215754353133661425
88.5450000000000017053026,-0.461102940320070153745746,-1.14068423239143723613154,-1.10515177986685664279776,-0.0211500425040161907364045,0.0105705620254585332118413,-0.00210565911354852579318031,0.00242073211757130998464382,-0.000853577894902578259740678,0.0283182565718795818676679,0.999595557671967283042136,-0.0541352143364591253948959,0.0200845502434379430400924,9.86033612278663795791545,-0.0131251229389304155392715,-0.0148149210657199711244081,-0.000175953469092349830838612,-3.48985529813737782589556,-2.46418402368935662849481,2.00778507475868250864437,1144.24697254867214724072,1144.08498814601716730976,1133.9288542281879017537,1150.70446532641608428094,-306.093987312584545179561,659.505316471322203142336,-147.636930515907465633063,308.645251968263096387091,148.205929636259213566518
88.5474999999999994315658,-0.301968493296885520660311,-1.18214925021142946981456,-0.924558017707055479483813,-0.0214291718595213086240303,0.00684198811538059680631418,-0.00588625772793450584979835,0.00239939615171450319405788,-0.000838448983166117088085267,0.0283049825814091771114533,0.99959599273493549009828,-0.0566337272811456918231166,0.0176124659929441373940051,9.85725800172106580987474,-0.0130816054004508821456687,-0.0147417063051585531946452,-9.89545509827845318770803e-05,-3.48989069247602889944915,-2.46422307755013436647573,2.0077819416008999553469,1143.62754858178300310101,1145.65666103583885160333,1133.47933473778994084569,1151.55137810254518626607,-221.985308843861275818199,632.219624249803246129886,-192.217179684932688132903,378.397779410696216473298,148.206503933618591872801
88.5499999999999971578291,-0.190030250080629958819856,-1.17296584500811240658891,-0.624593673064300802799664,-0.0210059876972396412930788,0.00381557557510215326901371,-0.00936828223596408021789372,0.00237916384012758046206937,-0.000832708210652018760919435,0.0282881147188935311298508,0.999596517471915801955618,-0.0587688875689965778414958,0.0151049640439971100125405,9.85417912670054363388772,-0.0130403193887561694858102,-0.0146704538442090932220951,-2.16786529020862687175755e-05,-3.48992471317988739443194,-2.4642640052810014239526,2.00777622654981113825556,1143.13704600445385040075,1147.24608626726330840029,1132.96776832976411242271,1152.59645422346784471301,-190.759537091062838953803,662.407341505661293012963,-191.55157047506833123407,476.902775683335562462162,148.207054622820407985273
88.5524999999999948840923,-0.119080311537019672973869,-1.12551886226983977046245,-0.173212020498751617658684,-0.020137149336465376414651,0.00114917766735332682083437,-0.0119336492965542682875846,0.00236066841725273042496003,-0.000840471230093327390658908,0.0282697335948193899379799,0.999597068160241519763076,-0.0604359140252311924368378,0.0125969392347280301214241,9.85109708016604024294338,-0.013001302144139994382277,-0.0146009275696542244887821,5.91446479155162773799596e-05,-3.48995753156751220558363,-2.46430666419043831183444,2.00776814896039068614186,1142.67375089632855633681,1148.96869774336414593563,1132.52157688541547031491,1153.93589198095969550195,-152.079500464084816258037,565.684918787972378595441,-101.620231875116644459922,481.973597160664041894051,148.207685553312245474444
88.5550000000000068212103,-0.104428277094325713814094,-1.06944974621614563581318,0.22507025004689293345983,-0.0194353049972913367871019,-0.000586780533152636367931476,-0.0119041264683433234417009,0.00234552443786127272004616,-0.000859517875203399841881058,0.0282522545058741143819692,0.999597574272117039839713,-0.0616562953855438120043253,0.0101484247909993663405714,9.84800496949814352376507,-0.0129650953134059152005442,-0.0145333645876505618971253,0.000145641548309536402600051,-3.4899895964378901958014,-2.46434988428491408285481,2.00775877196703600446881,1142.37664850213195677497,1150.07451086120863692486,1132.45966717038754723035,1155.00632220927582238801,-104.624478683333720141491,333.803181619296708504407,67.5917639454895606831997,394.946144210881129765767,148.208184496373092997601
88.5575000000000045474735,-0.108693969535337248144558,-1.00062228137348330214706,0.572179109286819143065372,-0.019116885347074744072593,-0.0023803459429433799186826,-0.00961776906223303813814329,0.00233557750523500761569151,-0.000882810061099411052393249,0.0282349685132947114674096,0.999598057296413711192429,-0.0625481197724008786131833,0.0078296326870573307310508,9.8448931892571422963556,-0.0129325117479955117166801,-0.014468771168141410579655,0.000238509868999764348658846,-3.49002032673468143286755,-2.46439282520010261023913,2.00774952314820742671486,1142.15062850291087670485,1150.63771365146385505795,1132.85953570514357124921,1155.91062270201791761792,-91.3686437677746425833902,89.102172059382709790043,288.807628712164671469509,344.666740927409307460039,148.208653273872954514445
88.5600000000000022737368,-0.0878641125261072353236358,-0.891933516184435282170284,0.857396519099941190056313,-0.0196027171401474444023538,-0.00514543071252696396222781,-0.0054349959857567919224719,0.00233036281565426666925744,-0.000902660951347644983575047,0.028217970626476025775009,0.999598523466141641868887,-0.0632448375908839371950521,0.00566880673034749621441719,9.84175151145239368588591,-0.0129045911702259374909119,-0.0144088824103959581290901,0.000336924250913041376659374,-3.49004903759426055032122,-2.4644345066432040702864,2.00774150211675239674491,1141.91980528329349908745,1150.52002172150514525129,1133.9037053139470572205,1156.72965591391130146803,-87.0659116187535460085201,-185.4104491189313250743,461.553733519223499115469,255.95836166381192811059,148.209178213073926144716
88.5625,-0.0110849437466844311789282,-0.766827639810364058980952,0.954695761659972830237564,-0.0207573549307766939964193,-0.008060886925279883707951,-0.00165122465614158525637478,0.00232694806542333267398992,-0.000913837546214119641856122,0.0282010470793137291156683,0.999598992424838850290314,-0.0638345123685610249530953,0.00364774529068173647416984,9.83857097095971866451691,-0.0128823196840001773927353,-0.0143561152965630389050089,0.000438677589178241081335763,-3.4900758215273857132388,-2.4644743146787546628218,2.00773603304285819248776,1141.71529894481750488922,1149.71066140587004156259,1135.16730437273758980155,1157.19041451033581324737,-97.3404873545835869208531,-462.527571071370857680449,548.970481017794554645661,148.25679934451568442455,148.209582325478322673007
88.5649999999999977262632,0.162305214121032742591311,-0.598729168046007731440739,0.897983263017446797782384,-0.0223009144978315726470797,-0.0110600722934113427503577,0.00196314803846094065864492,0.00232165566599197266753341,-0.00091632301146522788463239,0.0281828112834275612552659,0.999599513452073207275816,-0.0643050449517220262807271,0.00173411470707604542518254,9.83534538436370020519917,-0.012866307050795016200806,-0.0143133931746331349854628,0.000540557821948788323924984,-3.4901013673284775329364,-2.46451184194625128043299,2.00773436755813117216007,1141.43310284652102382097,1148.20738386615039416938,1136.64855771903353343077,1157.47093991063320572721,-134.448655536729745563207,-692.74365137820745985664,591.227042200026744467323,91.3031987539773552953193,148.209949407058303449958
88.5674999999999954525265,0.425041492315276769886623,-0.403846095088894851965478,0.7265685321000661112123,-0.0237437425637396365418752,-0.0132609588082277310427948,0.00527954191540085365080825,0.00231451884523911719654388,-0.000913089912300810266528039,0.0281677504337398930400749,0.999599958355128048737015,-0.06458578773192702460193,-3.06014746369806522885426e-05,9.83207255176041350352989,-0.0128567273234381721641606,-0.0142836627615436865396115,0.00063885896067730437754284,-3.4901257708975297333609,-2.46454606640324547228715,2.00773649569867584929739,1141.04305566713446751237,1146.24694314898215452558,1138.12343958373503483017,1157.64693050410528485372,-187.181018333378460738459,-845.862387659055912081385,542.602398273808830708731,48.1607760463226952651894,148.210283942274031687703
88.5700000000000073896445,0.777318010130829906145777,-0.20508372061557464394177,0.453618438718134397991122,-0.0242733291532894815412114,-0.0138293758226545188128043,0.0078131695431764187909085,0.00230631353232503295141997,-0.000909420388102332799898364,0.0281595717927500162336418,0.999600216463050639248422,-0.0645639078830515522611222,-0.00158994793820640273329658,9.82875570409035681507248,-0.0128529176398914143225616,-0.014269662142893652437281,0.000729801652188108722525695,-3.49014950968708648204597,-2.46457710706411159407025,2.00774168957576737426507,1140.49719775485232275969,1143.97807192784694052534,1139.36156971040782082127,1157.71174379086528460903,-272.208426701692189908499,-989.706847186695881646301,442.904016696828705335065,-10.7135997219549921055659,148.210576975817446054862
88.5725000000000051159077,1.2401500828705864787338,-0.00559246121846249111264626,0.0800316846321003638742297,-0.022402919668949746595521,-0.0127637814846448226224762,0.00883546644972324143885167,0.00229687177920894717436662,-0.000910375015318633782658575,0.0281557642771280598747996,0.999600352287821847241389,-0.0641362239875268858035895,-0.00290563824912304369263438,9.82540427138087757441554,-0.0128530842849711411657321,-0.0142736016595289179342831,0.000809901760203066427463992,-3.49017443530742577095793,-2.4646062178565006917097,2.00774880362314300796811,1139.68201353362337613362,1141.29840891303911121213,1140.33795966722345838207,1157.59336250549540636712,-314.36335654813262863172,-915.788336947676498311921,254.10125693556810233531,-96.7126545748639898647525,148.210877684338413473597
88.5750000000000028421709,1.59277761545336526971539,0.105437928016430482180965,-0.208029986316589449169001,-0.0178872745520281435649412,-0.0111976466753635536116596,0.0074128945650032305667021,0.00228908100183228312499151,-0.000921478911402756530740765,0.0281558075233196251907497,0.999600366343058155393919,-0.0631937339015744004022679,-0.00388184128092884661587192,9.82203326958522104916938,-0.012854560413883787603484,-0.014296556869446509774324,0.000876450826590276666633317,-3.49020128717037980692339,-2.46463413229883876454096,2.00775662260019416294199,1138.92538097211308922851,1139.39913024311272238265,1140.63207599508450584835,1157.22818051799140448566,-297.57954497922361269957,-635.101505503448720446613,9.76768962474104007753795,-229.123691958538188373495,148.211083649503194692443
88.5775000000000005684342,1.83453780584057790647989,0.153900206785248433449809,-0.407778760700883424750174,-0.0110158293897288910717647,-0.0102711909009918014867857,0.00419522088259489077388675,0.00228571285807035182516267,-0.000943123776736219101776704,0.0281582443874271275141563,0.999600291221173775646491,-0.061733989787475303245845,-0.00442672927377694980233258,9.81866336114469362428281,-0.0128539469168227546425065,-0.0143382823151052135601802,0.000927463472305265000487917,-3.49023075640477209446999,-2.46466158114430289316488,2.0077644356827506477714,1138.19411580872861122771,1138.12290138552475582401,1140.38679811534711916465,1156.44774404570375736512,-288.06042098252697769567,-389.749669596894591450109,-205.744744545841740546166,-459.627479366199281685113,148.211240653813291601182
88.5799999999999982946974,1.9488682284353382456743,0.155087909823488634408761,-0.510768713768019910759222,-0.00285210201276832071154432,-0.0104500294775779871414567,1.09925040127930684179247e-05,0.00228899610422236615345226,-0.000973588733030831296293151,0.0281607140745551744187569,0.999600189538739636319065,-0.059802074529178524120443,-0.00446512425678918800642236,9.81531971446353246335548,-0.0128474637085117388002331,-0.0143970528182730088395669,0.000961783542833769705161784,-3.4902640703768996743861,-2.4646892561748350303219,2.00777213172431645560323,1137.48507886720176429662,1137.4503818951300218032,1139.6033522723562327883,1154.93004312116249820974,-214.720106391191364991755,-111.216738025506145959298,-336.829440784355767846137,-651.167750567902771763329,148.211369342736105636504
88.5824999999999960209607,1.89835221979201906883361,0.120201322864384410604721,-0.491672224383646605527787,0.00275866083497941288679711,-0.0110036474898030037922192,-0.00256124170817013203579893,0.00229873851259440381208932,-0.0010104817285862474629532,0.0281605328748553776496699,0.999600140006749238175132,-0.0574630477549533114078884,-0.00397870374511299917941187,9.81203086380400613109032,-0.0128314641411158125022807,-0.0144695821144232780741667,0.0009790507024060638406604,-3.4903017533492493029712,-2.46471728354577646058488,2.00778015767224404797275,1137.12051527677363083058,1137.56681769539773085853,1138.70265091142687197134,1153.19190529286720447999,-86.8647156322962530339282,149.384092936754825586831,-368.978282669846464614238,-766.992579881180176926136,148.211424516035975784689
88.5850000000000079580786,1.72476992730182621116342,0.0498398622040952393730251,-0.405852348084343228507009,0.00705073803994036261977296,-0.0108288543858788329637965,-0.00337809835590912026920263,0.0023130283254394006474397,-0.00104574408420845350528583,0.0281550431665220021737461,0.999600230038616199834678,-0.0548988344608979522698533,-0.00299173039507409643800173,9.80882771351044624452697,-0.0128030645094376355902499,-0.0145510057008889671925633,0.000979596646062647936903378,-3.49034237247894507660817,-2.46474672009596762478623,2.00778809417481340915401,1137.05075528903944359627,1138.19730235981523946975,1137.75846085900343496178,1151.09508022174918551173,22.3597126384470215043621,295.985960058825185114983,-356.675096809196531921771,-864.429712187541667844926,148.21142285624182477477
88.5875000000000056843419,1.47723662751062345677155,-0.0550137199322716444194192,-0.304416219280054134443958,0.0103449470635722448608185,-0.00984541490155281702467693,-0.00309543493954284563984825,0.00232764171844704586405994,-0.00107248656582084427035806,0.0281436256925893628355606,0.999600493906963927237541,-0.05227322691826039730012,-0.00158836014827534038884593,9.80574184009940985617959,-0.0127607326049477554086309,-0.0146349249093533032711756,0.000964586679473373640424094,-3.49038334607092082251256,-2.46477892227162476146418,2.00779450911874279839253,1137.23231383996608201414,1139.04674749569471714494,1136.91927542737744261103,1148.86975673192114300036,126.063257898136782841902,339.270205024412689454039,-287.841725016403700010414,-874.565570563367714385095,148.211371954414659057875
88.5900000000000034106051,1.17018919463404924563577,-0.200443896472663696251004,-0.221737237879165383080959,0.0130658535950405000486407,-0.00872115398038683306558561,-0.00235630384831607767037731,0.00233933789339008752980464,-0.00109051230983761918147401,0.0281295799808912519446302,0.99960084536166970980986,-0.0496204768429277243146913,0.000147652010551266310578455,9.80280342832533335695189,-0.0127045975836632251548819,-0.0147136398491118629977548,0.000936121741271601654627021,-3.49042155395387432292864,-2.46481542789242213942202,2.00779831670380026764633,1137.6810715785295542446,1139.89365338493576018664,1136.31925223392272528145,1146.72225236893632427382,239.754279364787862505182,313.698930278327395626548,-198.020686434572809275778,-874.08375965180687217071,148.211259081298180717567
88.5925000000000011368684,0.761665611185535107452438,-0.396424278116032258179047,-0.167748623557069015399534,0.0161503950770364619604624,-0.00875492577516647808855144,-0.00167094712612431877188368,0.00234766744291842015257554,-0.00110327357753139650500818,0.02811563735491982157777,0.999601204437954637960217,-0.0469030591550803691025529,0.00217009053302558152509505,9.80004018800332943328613,-0.0126361904785401019113422,-0.0147787973845421131968703,0.000896917726554139556512102,-3.49045465606032223604416,-2.46485796437710913409092,2.00779920523598898185469,1138.4310852367889310699,1140.61524214708492763748,1135.92917199520547910652,1144.49933793366608369979,289.625028623176717701426,186.376963672852411946224,-92.5608335172387910461111,-729.01307857971823978005,148.211048601790139400691
88.5949999999999988631316,0.407796401076690517850665,-0.54406320851923528625349,-0.160621826445101451019681,0.0181615293703916262646469,-0.0104049218975832830080819,-0.00153089349897861273612498,0.00235438331935365228672619,-0.00111535499549968663245136,0.0281016029031014927253018,0.999601567853716788114582,-0.0440604438591656738521962,0.00446114297158152484090721,9.79747683615357445319205,-0.0125578732053414840463823,-0.0148222450213024593140831,0.000849827586677300754816611,-3.49048263520069923515621,-2.46490669741154411198636,2.00779757369089484342339,1139.12919672164412077109,1140.82553820329917471099,1135.85644806633695225173,1143.07718697604104818311,265.129445604420766358089,-13.767598054358829884336,7.25152909604480733207765,-463.918001927744569456991,148.210808305116074734542
88.5974999999999965893949,0.0708622060470159992329187,-0.634199008655372931109184,-0.179837799885085719564515,0.0191088136202563763088591,-0.013157457306641771876965,-0.00191064411293263608677961,0.00236041032784434137020702,-0.00113029145354608291651477,0.0280862131137380524603664,0.999601966140155839823933,-0.041052672021944125457793,0.00697512851289719404412892,9.79513525548777330698158,-0.0124722288746530792641343,-0.0148369213718207455104947,0.000797303763618246725923544,-3.49050706328039961334753,-2.46496026352092201250343,2.00779423062552497825095,1139.75673246480982925277,1140.54640415681319609575,1135.96542964068567016511,1142.179747924029470596,226.670965646934121195955,-235.430086445648811377396,65.2159791878706727175086,-275.474756001599075716513,148.210498562314853643329
88.6000000000000085265128,-0.267714734461781789232049,-0.647675120823544614445666,-0.212332685413155503040272,0.0187759803250010549879878,-0.0164105314990845956024668,-0.00276707891045127997789455,0.00236758342489269734201796,-0.00114925703883922620575364,0.0280717553924549993726867,0.999602330590025900391993,-0.0378843503431367314981948,0.00967593388381703112255394,9.79303440176438755315758,-0.0123816234672397638277852,-0.0148175976265793752500999,0.000741118070308573228047178,-3.4905295582469255677438,-2.46501708157574883628627,2.00779021649962707840587,1140.26255154988098183821,1139.64838777106865563837,1136.18252796227693579567,1141.69981319603039082722,126.226632093886806273986,-412.635928621987773112778,77.362442284389189239846,-88.7787150898578545366036,148.210045657963775056487
88.6025000000000062527761,-0.458601283123087177795441,-0.577064346952999573936438,-0.23352995167459411618438,0.0172207384935177364171377,-0.0185284374586671234108604,-0.00345830610423506455697318,0.00237574053935295150669083,-0.00116872417453444754978364,0.0280593951188881120251128,0.999602633320626265955866,-0.0346524048778978632778802,0.0124856522294837235520504,9.7911911887966134315775,-0.0122876991497004820624861,-0.0147616476776497793088616,0.000682056119558290029417091,-3.49055088308087135828828,-2.46507552006550456624723,2.00778635129202909226365,1140.38786562528048307286,1138.48322451369926966436,1136.35224185210836367332,1141.73585434857932341401,-19.7517239141868685692316,-531.77114835869519993139,52.5794449147748110817702,81.3414974557702805668669,148.209600919765620119506
88.6050000000000039790393,-0.51747562745886610535706,-0.433227666912613773586571,-0.235740158753104528388533,0.0144613268068622437267923,-0.0198916730375171060818396,-0.00386222687145047240131479,0.00238331227427538610078028,-0.00118768624123199474651447,0.0280476387510792714297114,0.999602920716637366460589,-0.0314048968049407406510909,0.0152968265270180259207677,9.78961996306544790513726,-0.0121911278947468854766401,-0.0146694645647887436656909,0.000620101765530892547022279,-3.49057247254321589835513,-2.46513246917957351556083,2.00778436737605225914649,1140.16379293031013730797,1136.98953202927759775775,1136.44542518685057075345,1142.1065206833088723215,-142.055224827065160297934,-632.382446701314961501339,20.9424728856637933915863,182.893988970575179564548,148.209087965651065132988
88.6075000000000017053026,-0.45269995837599208421409,-0.242874372395103538257999,-0.212796123154999877735705,0.0110856898901429967718713,-0.0207043710886952864180799,-0.00432987372866307489854831,0.00239229705140274950467272,-0.0012077965361447426644731,0.028039245906871550911843,0.999603107838993754086232,-0.0281356384725280628256172,0.0180736289006037942339589,9.78833196643966374494994,-0.0120917848155987685959678,-0.0145443047391635507659124,0.000554774460122235083675557,-3.49059537539530051475367,-2.46518517010848769999143,2.00778544785745705070212,1139.67758950114580329682,1135.32131228019557056541,1136.45695421653658740979,1142.65032429343136755051,-238.148510256394871476004,-683.287325642489349775133,-14.9819436405914370169512,235.418656423130784105524,148.208520600928039812061
88.6099999999999994315658,-0.250417010127179651135521,-0.0147821715607344139620238,-0.146616822320101758414523,0.00805165152688024771121533,-0.0209687708592181977496072,-0.00512838961595002591764558,0.00240696207594953692776585,-0.00123124019587937693666346,0.028038571529617851291194,0.999603059691208994941292,-0.0248274102038017335791764,0.0208320443608941974211746,9.7873357565869927299218,-0.0119887941474280199788405,-0.0143919559604996707968816,0.000485415813541493611910083,-3.49062017256110523888424,-2.46523173558702790586494,2.00778918482990764715623,1138.97305037902924595983,1133.57309540106825807015,1136.37051546864768170053,1143.28361396542345573835,-325.007217553252303332556,-753.592689968175932335726,-61.5898052395655994928347,276.590661774822876850521,148.207891352845280152906
88.6124999999999971578291,0.0933069157631579160216972,0.279384197444567772272705,-0.00405456156817189661278888,0.00644033895078338809725427,-0.0206992999173746805574581,-0.00628212194858735611946443,0.00243061681113199623202603,-0.00126098254680864318814926,0.0280481149293085423035432,0.999602695161541876522904,-0.021449779050176059902455,0.0235805911850446164867989,9.78663750393742937205843,-0.0118806695101241026335526,-0.0142200799491918206812757,0.000411534771856405363031628,-3.4906477318383628549725,-2.46527182635126518306379,2.00779439644831825262372,1138.05255341338101970905,1131.55334883035811799346,1136.14900519033903947275,1144.03327760230422427412,-321.910055250302264084894,-704.241049492842876134091,-106.015193171157093843249,263.94236705542783738565,148.207070948653154118801
88.6149999999999948840923,0.397941113428228021575705,0.524233305969427632042823,0.168880572193844086248404,0.00738044312712318045788251,-0.0199174117379329190802295,-0.00713556591294553423793223,0.00246435872896272160914588,-0.00129357710205590318956748,0.028068403128606634472364,0.999602001081978164265252,-0.0181009300985188192889552,0.0263024493621903387996497,9.78624199184428711362216,-0.0117656559052042534313509,-0.0140372942351184287063104,0.000332948886012829955299841,-3.49067773961682359384895,-2.46530552926388679679803,2.00780025245007109901962,1137.36350010277919864166,1130.0518901536072462477,1135.84043950279237833456,1144.60332580069939467649,-229.714900232021904002977,-540.037718615351309381367,-160.926435047311343851106,211.737276331223313263763,148.206338292859300054261
88.6175000000000068212103,0.636673573198392794836309,0.746155037450611735572181,0.384729441942891270400651,0.0104732504321644291633842,-0.0183878541508844389751332,-0.00722762860619593095617974,0.00250373447646105211708556,-0.00132308039474851764361052,0.0280977809208758748382717,0.999601040879797508864613,-0.0149330644414398527874965,0.0288895441776780143028347,9.78615234302204051175522,-0.0116420965921426172728914,-0.0138522382628398447318441,0.000249979363143054472348736,-3.49070962151470354228877,-2.46533423058931777660518,2.00780546244159019408926,1136.90397891221869031142,1128.85316023727614265226,1135.34437301510092765966,1145.0919639839623869193,-126.528362202571884154167,-441.838529043899200132728,-274.534837931302377000975,191.868808311066715077686,148.205561699300346845121
88.6200000000000045474735,0.772165243816826052380975,0.958130293187479331606937,0.659072836435127706877779,0.0153355722262363096397575,-0.0155343913117493223619014,-0.00586459876286600859107701,0.00254449501086668073562835,-0.00134847789277740002025774,0.0281341827348511354378591,0.99959988271196031917043,-0.0120036279398085671266116,0.031251075696185362517987,9.78636742595992004112304,-0.0115088029054236859471949,-0.0136727097603707610506962,0.000163821557801220986719248,-3.490742061051986144804,-2.46535976537768819483176,2.00780929101737237729708,1136.73085829176511651895,1127.84269750838348045363,1134.4677653131332135672,1145.56266984225658234209,5.18620987191314863906655,-297.360225015606715714966,-369.012940850706399942283,148.499847182800749578746,148.204587008464699238175
88.6225000000000022737368,0.734380263906619146219157,1.07147660584389092797153,0.869293507285181288324338,0.0192558347437500679277811,-0.0124091784852827027862965,-0.00376489189140040945991128,0.00258527260573108768823558,-0.00137020611108744404596504,0.0281754338942438870008189,0.999598590033961009737595,-0.00934141640056512789769272,0.0333667764369588032424829,9.78688124984102003622866,-0.011365256057344313989077,-0.01350507660378726798589,7.64189881638403719103445e-05,-3.49077336457030140692837,-2.46538313824359756054605,2.00781124600712690408955,1136.92990996157823246904,1127.36635911219946137862,1133.49930831084907367767,1145.83446321987571536738,144.53378236261826828013,-123.763292594752570607852,-419.845463542760512609675,77.0183834720474038704197,148.20374492879241756782
88.625,0.548169540719399939199263,1.10640004226475840987121,1.02495580574434841381048,0.0222264178773175606618207,-0.00897299620753929348671019,-0.00113658435266513792305521,0.00262486734512243791855868,-0.00138832832771496918200516,0.0282164155306681915802436,0.999597310747645795281358,-0.00698347525168659111205471,0.0352332869579570079343611,9.78768325282023532452058,-0.0112115207661184750759231,-0.0133539916869286935663386,-9.87565504670507269971771e-06,-3.49080251382933326453895,-2.46540561588800599679416,2.00781094388653658100452,1137.45352720357755060832,1127.22388104541028042149,1132.36853799542132037459,1145.94776175961646913493,285.845481333022576109215,-5.32962385851108599865711,-493.509340149961190036265,9.34290571786672785492556,148.202878770930055907229
88.6274999999999977262632,0.20011898755197715660259,1.05911893852690708328623,1.1143341143732103937225,0.0241410903614967323194129,-0.00497166748334175196549767,0.00257750602272965824088291,0.00266056699011340928862079,-0.00140233329488602094861638,0.0282517715720724919836737,0.999596204542770983003663,-0.00497891101137286351541178,0.0368283068059827023432717,9.78875845764940599735837,-0.0110481310477317344609371,-0.0132221715018097565191857,-9.26295271315955319121893e-05,-3.49082966281778217521037,-2.46542844399458704884864,2.00780877181826822308608,1138.35913736824204534059,1127.33971099290693018702,1131.03176161010151190567,1145.8811777484650065162,360.414050864492708114994,75.2515759290647565649124,-448.704181891251835168077,-54.9113619179978869055958,148.20181949267251297897
88.6299999999999954525265,-0.144403790889945038422582,0.957540305987643836083123,1.08871397607498354709321,0.0241794110817543546343433,-0.00212901315677112247179426,0.00620305914945600955084926,0.00269181584694872574198277,-0.00141117527673867860366075,0.028281543163402280555152,0.999595273334408784826621,-0.00338456632052389072562448,0.0381782671561887582134531,9.7900868685272968150457,-0.0108759806075215022247438,-0.0131103017143840115676934,-0.000169507316770225042708645,-3.49085462529758583372086,-2.46545243332946562020425,2.00780519240936117242313,1139.25559745789837506891,1127.60013892505526200694,1130.12501708596710159327,1145.67320495002672942064,367.814970625721230135241,126.301683515595513540575,-277.423605576414502138505,-102.191433721994002326028,148.200925957013083689162
88.6325000000000073896445,-0.481656675239325926529688,0.815636388316068217108068,0.949347798036847545510852,0.0227165854982048880106316,3.26914178821395388918614e-06,0.0101238251450319338697881,0.00271925335790848326719682,-0.00141519024798073943943733,0.0283056390546144835684839,0.999594517496743995010888,-0.00222796753174388240115178,0.0393359064844727296383908,9.79164360510669240511561,-0.0106959162337299431427828,-0.0130173492046272223920944,-0.000238480899665245303815919,-3.4908775154733708845356,-2.46547841062988748461748,2.0078008027417268976933,1140.19821222137420591025,1127.97121941048612825398,1129.64464358221675865934,1145.37022057985404899227,372.930101542267493641702,165.119706675340353285719,-100.928163251078814255379,-122.192361158786610531024,148.200028062156036412489
88.6350000000000051159077,-0.769564552390238021395419,0.661451326505005376965585,0.723556811782236741770191,0.0202897756923897838732262,0.00162885032103208897934221,0.0135999916336732914329266,0.00274013813806354283864053,-0.001411227648722417288632,0.0283204189380396147146524,0.999594051126846072641285,-0.00160488400925672125563182,0.0402906789381887453505016,9.79340123941398310591921,-0.0105084165030479015356946,-0.0129409437532989508856662,-0.000298195902501827625127873,-3.4908996379576757718155,-2.46550746496794825901588,2.00779603998544775578239,1141.12024796561331640987,1128.42573745843355936813,1129.62037626971073223103,1145.06224314423161558807,355.281277962654087332339,207.528126234190068544194,102.808083340871974087349,-103.982821398680229663114,148.19913165233356266981
88.6375000000000028421709,-0.95821562374195246025721,0.51709662100539821594225,0.425248969873584403700306,0.0169051920457054007107534,0.00275281256569614735801865,0.0156248644244263643066084,0.0027516639601911909926435,-0.00139707797074775912776756,0.0283237004300681827206887,0.999593946068992655895613,-0.00158943192745525374576232,0.0410274055241164892215977,9.79532912575961489665133,-0.0103136158640220829824097,-0.0128776960718027452812429,-0.000347849324007365652035306,-3.49092267739267203552345,-2.46553922068268516198941,2.0077916442734751178989,1141.97461861118586057273,1129.00886004165613485384,1130.15868399892065099266,1144.85030647286112071015,356.955230404589144654892,295.732353134322465848527,337.212085211956207331241,-48.6036179340304457241473,148.198243183152897017862
88.6400000000000005684342,-1.04121581223420944795066,0.382629883889566146937256,0.0441411267894123993116295,0.0120218002141243857777697,0.00342108757808776359557457,0.0159821710249446156948405,0.00275522507902966392462352,-0.00137230180919172451044219,0.0283167629908079414302602,0.999594161769023270558421,-0.00221431711813596665550108,0.041606505599119922300666,9.79739324455307247774272,-0.010111456760325971890313,-0.0128236318846016751626937,-0.000387042517191701722616831,-3.49094719059075631051314,-2.46557380454536900771245,2.00778770749519708260777,1142.90502411763463896932,1129.90439922410382678208,1131.30643669576897991647,1144.81922505456168437377,327.779937102539179250016,363.60455308014354613988,461.644488009971269093512,33.7738518487492669351013,148.197194124738416576292
88.6424999999999982946974,-0.991017405893390712634528,0.317379064871474936282425,-0.24557809377228259628545,0.00784549947168602240799018,0.0033333080573569248694632,0.0147863667140033586133718,0.00275241092216684532859028,-0.00133684593604891147587688,0.0283016870943415682626565,0.999594634894073852393603,-0.00349949050032261066434103,0.0420849088798264658883852,9.79955811686806121940663,-0.00990188613279797784361147,-0.0127746972452149887278239,-0.000415842944452391762022447,-3.49097324581637602491924,-2.46561088412136220071602,2.00778403624159373919156,1143.61351829669706603454,1130.82688280705519900948,1132.46690643896840811067,1145.01917573210471346101,275.744857480118071180186,398.729590505216719975579,440.542993096906286609737,121.385180004309759738135,148.196339932929760152547
88.6449999999999960209607,-0.845619776206496753800934,0.305983614057897868043767,-0.460766040887577221774052,0.00462481504640258056504365,0.00313140555874220384569018,0.0127993529310323032877061,0.00274494670720560338464389,-0.00129383629998116320494739,0.0282801876051734443762165,0.99959530856477096794066,-0.00539643307263495963788102,0.0425122712994320944845938,9.80178719934177244965667,-0.00968515489920915295662951,-0.0127271918971574391626911,-0.000434650476308380399360909,-3.49100057861709744955192,-2.46564949090755858307489,2.00778139303565650308769,1144.2837484050339753594,1131.8980471766280970769,1133.50915166125150790322,1145.42615095458268115181,293.388384109836408697447,483.980053630804434305901,355.731719385488815987628,202.889693750847868614073,148.195513398872549259977
88.6475000000000079580786,-0.623507166381788380249418,0.341049792040615307175955,-0.602175296559055883705014,0.00251734415791662110434279,0.00351441845797895689729184,0.0100988356499537770133434,0.00273656587123209020864789,-0.001249043623346934210952,0.0282561520996920424730892,0.99959605617375202335495,-0.00779583861841685876736818,0.0429669084013166446833765,9.80404347862020841830599,-0.0094621908972596542597433,-0.0126780195002218574323871,-0.00044404444543638433044383,-3.49102852566884447327311,-2.46568748998776854364223,2.00778011539670231400123,1145.08046021724908314354,1133.2467830752138979733,1134.24556503589928979636,1146.0336242008609133336,293.841102933698095966975,481.967809372668682499352,144.977431222416214495752,218.94943258679151654178,148.194561499524922965065
88.6500000000000056843419,-0.451497300808971491203891,0.391255144609928329213488,-0.614905124677137426836282,0.00218665624267901440025419,0.00456115268559280796073496,0.00758212230906525532642126,0.0027287413240040078905857,-0.0012087212387619564440272,0.0282338242790466965870255,0.999596747716979372455626,-0.0105711307427129863611981,0.0434735004922278123196122,9.80629145667312229761592,-0.0092347757189701878272059,-0.0126247946184505337868798,-0.000444763975081204781820282,-3.49105616960793385672446,-2.46572316192578488980303,2.00777951481396721433725,1145.75295391970530545223,1134.30788622349609795492,1134.23403881736498988175,1146.52089811751875458867,269.513888296041386638535,379.849106926876515899494,-147.721960287979271697623,164.98386903628212962758,148.19380734464257898253
88.6525000000000034106051,-0.34758403019490413665693,0.437642775550223572800235,-0.526089547690784753442017,0.00290737151908305666014876,0.00612196592550902189688866,0.00535075302918947871833044,0.00272007303518545951598329,-0.00117749933275651573819087,0.0282153944326197017589131,0.999597321976728125925149,-0.0136190165932763007639039,0.0439927905340409680645664,9.80849821862972781616463,-0.00900558540724773030905492,-0.0125657015291512994675793,-0.000437606361357635868965243,-3.49108328864406791680608,-2.46575642544081041762638,2.00777936591423689094427,1146.42802965872806453262,1135.1460286098465530813,1133.50695523446006518498,1146.85854354604157379072,265.186701430289019754127,276.359125244085930717119,-390.121497175496301679232,98.4990280230235839553643,148.193100701265620955382
88.6550000000000011368684,-0.324749275523229574691442,0.466184561099815431006732,-0.370981703542473117973799,0.00394062400730062732667758,0.00758572899909688153075038,0.00386722739987787472726311,0.00271193199196232683986785,-0.00115691354460221149970389,0.0282035255653833062672309,0.99959770150611371164473,-0.0168836641808695758770753,0.044533163089504959608611,9.81063292789294294493629,-0.00877826124765779779168806,-0.0124991290344555801977711,-0.000423207086996087405821043,-3.49110933863097150364752,-2.46578739515892442213385,2.00777972064337140167822,1147.07888742685554461787,1135.68968184971527080052,1132.28343133148928245646,1147.01339325763342458231,243.018379222433424047267,129.16928898701294770035,-554.774803437025866514887,18.019349277545206433615,148.192438599718997238597
88.6574999999999988631316,-0.402884428101487390705415,0.462577654497869472649541,-0.167049902119133286682029,0.00451730753326445768486286,0.00872723859286015507530365,0.00333902636061683515122933,0.00270649887368519309269188,-0.00114229422634215733479979,0.0281987296252421276721023,0.999597873610220677420557,-0.0204183297273513308933701,0.0451150790473512502964937,9.81266787956834107831128,-0.00855726955414760383222816,-0.0124233932671269919900681,-0.000402063608641904592262695,-3.49113284185177796814514,-2.46581712568154998166392,2.00778052490923863970806,1147.64312155483912647469,1135.79187505478103048517,1130.73308121727745856333,1146.94864029242921787954,208.770342459146178271112,-59.1243543086958425192279,-665.054858367388987971935,-60.6251390347648566603311,148.191836062258062156616
88.6599999999999965893949,-0.585893498485182351309675,0.411240523300598792566518,0.0917108121171996276688176,0.00395457354076288961769459,0.0104820799626733976439574,0.00334521173950731156784832,0.00270092597629944869072616,-0.00112893691993049298180618,0.0281975027664556031348209,0.999597949567959553895946,-0.024267445667939646636313,0.0456543008699543118034114,9.81457881876573168256073,-0.00834766324696531100690855,-0.0123365482330182827525045,-0.000374507327018008156268442,-3.49115384754835256231331,-2.46584760555625548406056,2.00778156586552958273728,1148.12273913915032608202,1135.39406007817206045729,1128.95815703965536158648,1146.71026756245987598959,127.463717554818813937345,-216.244660479415387044355,-567.512774213668308220804,-91.675206844233969150082,148.191188534272868082553
88.6625000000000085265128,-0.777570898785339803538363,0.325286610894921279779624,0.289542297942796456045045,0.0024494691685182502609297,0.0124334975789934191331421,0.00375811328111600242984913,0.00269277688738922245728635,-0.00111599797483119002848573,0.0282015987664655382038958,0.99959788450144848592771,-0.0283859240676467977637643,0.0460664881968153028246604,9.81634354019246124778419,-0.00815501320649614745705858,-0.0122362478948274469581214,-0.000340481142761058517068329,-3.49117138767526169473854,-2.46588017518803415129014,2.00778108172081903859407,1148.28044014261445227021,1134.71065175238186384377,1127.89551734620363276917,1146.49026425820716212911,-3.47317580794207936278895,-306.509992570771544251329,-273.635535890678966097767,-64.1960443611547617592805,148.190716014629146002335
88.6650000000000062527761,-0.961397302793559727085437,0.202043035475615806451088,0.434495648403701639761465,0.000105303777481323087607257,0.0140236328431806254318781,0.00500806649688741861714547,0.0026816723423848504680167,-0.00110249339291087220318865,0.0282107518654122271795082,0.99959768561268258491026,-0.0327185689687454067664518,0.0463043670739582552409175,9.81794245209235505456036,-0.00798483645344684293820858,-0.0121201428210648640831915,-0.000299691004080635719011849,-3.4911843718394628410806,-2.46591573770168714929696,2.00777793807485149812919,1148.10537326011058212316,1133.86151011531524090969,1127.58997936019932240015,1146.38928734065348180593,-164.42671329529224522048,-348.304969046965481993539,74.8094535238804496657394,6.57548754321085215934772,148.190317261089347766756
