t,ang acc x,ang acc y,ang acc z,ang vel x,ang vel y,ang vel z,quat x,quat y,quat z,quat w,acc x,acc y,acc z,vel x,vel y,vel z,pos x,pos y,pos z,mot 1,mot 2,mot 3,mot 4,dmot 1,dmot 2,dmot 3,dmot 4,vbat
57.7375000000000042632564,0.0687236774031250163830009,1.93971680847175376172231,0.985714489220287037873902,0.0317400669677471575225169,0.0086883915407004550651715,0.0175179108224758212086769,-0.00192811701331839567379045,-0.00524969729567970489619855,0.859270877257006349125845,0.511486898602633743848855,-0.0650778268745869359346301,-0.0467663512832917141470723,11.0204643720878312507239,-0.0129673428603981517881483,0.0152507387485048793995812,0.100067144324992557402609,7.21856517354087401372453,-3.35071061849969442647534,4.59760126515523381840467,1196.90097511236785976507,1188.51494556684974668315,1195.3585009155367515632,1186.08462007686716788157,-316.354440507550009442639,727.900643410239808872575,-506.246342559384402193245,276.853334176161524737836,156.036779142324633085082
57.7400000000000019895197,-0.240231606820050958006618,1.57788149972043356683571,0.716909085972906701123009,0.0314517311464046003810502,0.0140961104645966981557814,0.0195188146817051356995965,-0.00190182879535490687375465,-0.00522490563827829150589377,0.859260282217494508749667,0.511504761509380734274544,-0.0686508669870175974869753,-0.045055321232440624645843,11.0136978962301554929581,-0.0130432447590191121639114,0.0154909697137862768789862,0.103089859535388586597726,7.21853577381079158925559,-3.35075171690463013973726,4.59785549356587530667184,1196.17896994179523062485,1190.21987456718920839194,1194.25221588597673871845,1186.78338694231138106261,-287.235207726223279678379,682.06446056499964925024,-419.614279515753537452838,264.795120498788321583561,156.041811704335032118252
57.7424999999999997157829,-0.568084085515048076153732,1.14868795151037050850107,0.42768334224742554638965,0.0306153048711866847264584,0.0176532929771445815103625,0.0205313596092259811887182,-0.00188544926546305711446971,-0.0051981765934747906771074,0.859248714068557295497897,0.511524610868374529637492,-0.0721509625266015253153284,-0.0434044719608723886250523,11.0056557240880970027774,-0.0131573634960527006965147,0.0157340738284897953269681,0.106104098659219117650743,7.21850570781499190076147,-3.35079168434902197049041,4.59811814739468793789001,1195.46479907373804962845,1191.92526786967164298403,1193.2604295179598921095,1187.40859567935990526166,-316.783990584983087046567,729.493898676664343838638,-394.564851832890838068124,222.366349380149500802872,156.047029447700310811342
57.7450000000000045474735,-0.987812588814994008146186,0.624669613024628866959631,0.078863350457495512424444,0.0289384092578310533894204,0.0197093638440418716939462,0.0208669802118030128790238,-0.00188360146027786545634697,-0.00517385805137968775996304,0.859237050179250561043887,0.511545136306374659262985,-0.0755224763684578109801393,-0.0419749743179168091633535,10.9963168761076861557058,-0.0133095612631565114736265,0.0159806628677958070805509,0.109108658752267689839854,7.21847624621030803382382,-3.35083064708047562163529,4.59838824157894521249546,1194.59504998886950488668,1193.86734406057439628057,1192.27939162681127527321,1187.89521868921269742714,-328.494246218420130389859,677.539452746458550791431,-311.327216885206212282355,123.06810770021982648359,156.053490288751788739319
57.7475000000000022737368,-1.35844752500356702462625,0.230358131549009831351427,-0.201916251128947704662764,0.0268975106022903663605117,0.0198035797410065356194409,0.0205532840106931145862657,-0.00190007395234964527805377,-0.00516039840486910532380005,0.859226625482892858443051,0.511564270349441851948313,-0.0786558383739058980532732,-0.0409978481185893431359979,10.9856636514364716106229,-0.0134970786838445652028318,0.0162309383775360201174198,0.112102740240126924620157,7.21844869925949428335343,-3.35086930403002236644738,4.59866418775967567000862,1193.82232784264510883077,1195.31296513340566889383,1191.70379343353306467179,1188.02393621786131916451,-331.926442937294211787957,517.852561479201426664076,-167.041368839652051292433,-2.29980231247491229140678,156.059030226493177906377
57.75,-1.7396425028145550140124,-0.0721307794934248208695848,-0.463283460176361572280257,0.0241071236277110301227111,0.0185644423642537075014314,0.0196843543655039684980856,-0.0019345381966669966764677,-0.00516503050859470121819461,0.859219939214294625706714,0.511578057195517077460067,-0.0813895416937661653200564,-0.0406355840199157172798472,10.9736837783240162025322,-0.0137143332648706449405918,0.0164857619944361252772858,0.115085610956974393470631,7.21842399395829481534292,-3.35090889335593500319987,4.59894425322092992303169,1192.93541777418454330473,1196.45660686796804839105,1191.44418478261377458693,1187.88371967765033332398,-384.831517822462785716198,386.975169650974748947192,-47.6394920299277515596259,-89.4504474031140972556386,156.06471983137910797268
57.7524999999999977262632,-2.11106862519947169332113,-0.27720740969685686572177,-0.703390747827605467001888,0.0205388343515053896359834,0.0165197511130614135832495,0.0183503642951464013277629,-0.0019858992199202037468031,-0.00519251115763461144197999,0.859218657190084500463456,0.511583985333159740882536,-0.0835919738054497762913542,-0.0409953643576060344777545,10.9603726143118684888123,-0.0139539404463059468070041,0.0167461076095366534488562,0.118056145122910655098636,7.21840232194225261963538,-3.35095072277504435476203,4.59922742752723845427454,1191.89817025353454482683,1197.24784098165878276632,1191.46559597338364255847,1187.57668398084615546395,-462.987941927794565799559,208.04213308477571331423,70.5406374857469273820243,-147.481340282290176446622,156.070524630952576217169
57.7550000000000025579538,-2.4337727489555929238918,-0.362182425650376171866185,-0.911729459489474036715251,0.0155933097967986180470978,0.0140590716592859446554264,0.0164956787611529182013825,-0.00205115951789259414253519,-0.0052432109278639409469247,0.85922480152438374112478,0.511578968540878697979224,-0.0851642575149435532289033,-0.0420791491286214985878544,10.9457357499461274130681,-0.0142070030717138771902963,0.0170133600187780571755258,0.121012160299046378497678,7.21838357280364739665401,-3.35099623370713572967361,4.59951340643858941348299,1190.6204780645443861431,1197.49681753339245915413,1191.79688797004268963065,1187.14631297623850514356,-624.825612807943343796069,-37.7311895564423807059029,193.934169833429137952407,-204.413914882238742620757,156.076457721395826183652
57.7575000000000002842171,-2.70314983046859680371199,-0.354155846126813111940379,-1.11569070973886508291173,0.00752743150018871706036228,0.0118120533861245657902828,0.0137839886758183774451147,-0.00212607204020998433180445,-0.00531127199212940576122932,0.859239202643592991925914,0.511561890863644785909514,-0.0860756060775359765901982,-0.0437555914277217225527572,10.9297918413763586187315,-0.0144641311998944602223993,0.0172893794759271454686278,0.123949645193334623272108,7.21836757427210429227671,-3.35104583509115006023649,4.59980315872166656276931,1188.77404218949322967092,1197.05918503387647433556,1192.43526682255128434917,1186.5546144064344389335,-724.970917531368286290672,-288.294903172516853828711,244.925966487648963720858,-227.569006810906614646228,156.083712220206791698729
57.7599999999999980104803,-2.78497977526166584638645,-0.295796880625900815431351,-1.23857756151448383796776,-0.000792106626582612938225481,0.0112974125244503561388276,0.0111160518814282845839747,-0.0022070056991205897096997,-0.00538721118124931789422627,0.859262016585746080110653,0.511532610783504648743758,-0.0863698431327949295299717,-0.0458288330050500222756504,10.9125756008824943421587,-0.0147161773717926214199991,0.0175756755376894543974053,0.12686223929816675681792,7.21835399491946283490051,-3.35110030144363646442685,4.60009927612914726324789,1186.99562347689084162994,1196.05534301753118597844,1193.02151780247982060246,1186.00846794218500690477,-743.752855593931258226803,-523.274624415221865092462,199.418590552784564806643,-236.182545976332363579786,156.089860326274134649793
57.7625000000000028421709,-2.68541569523928780327537,-0.237568129627500707057308,-1.29973268645173711810514,-0.0093702187267771346046441,0.0119973705209999274845512,0.00794568745144561688897866,-0.00228975187228815536127913,-0.00545765709765886567611526,0.85929114755976565565021,0.511494503716894532985293,-0.0861456935163298492819095,-0.0480192625966129188475051,10.8941406662594282295231,-0.0149548891354329190755967,0.0178734777318951265634439,0.129740895527251209884412,7.21834128826484189289658,-3.35116003842816434499241,4.60040548255002423871929,1185.05527791152167083055,1194.44281191179902634758,1193.43235977531571734289,1185.37370167655217301217,-859.743449141175346994714,-816.821147845385439723032,83.8274804201344920784322,-313.843985258311874986248,156.096104211241140546917
57.7650000000000005684342,-2.35763918244851211625246,-0.213227442522353288767434,-1.28693176685280752380436,-0.0183043772099052495794247,0.0133583689719421281477674,0.00356928299090048190347901,-0.00236856551175314376106451,-0.00551186881642759789884378,0.859323160959167942074544,0.511452672825819854018903,-0.0854643408358021217097189,-0.0500736702512781725604718,10.8745618986090377688924,-0.0151724866445891396621315,0.0181825522850168792843295,0.132574328941917396473826,7.21832787493953009771985,-3.35122473381305630013571,4.60072448393164368241059,1182.69690623118276562309,1191.97123727830216921575,1193.44065520458070750465,1184.43924801589264461654,-845.047281887032113445457,-961.994538427790757850744,-108.555868327365317327349,-381.096452965976936866355,156.103696195585570194453
57.7674999999999982946974,-1.93613100822832939762463,-0.242850322291223580384312,-1.19850870362606420904683,-0.0242453719125830906289121,0.0142925479061674440967034,-0.000159758897220413413836973,-0.00243703639446541352187037,-0.00554480083460568221043197,0.85935383827281675017673,0.5114127990520396238594,-0.0843294900795427820883177,-0.0518305001927596292743416,10.8539363328470130909409,-0.0153619191024636364550915,0.0185005630665842531190624,0.135349804164525910898931,7.21831230528632694642965,-3.35129305074011130116673,4.60105770819643922209252,1180.83004150209035287844,1189.63283921966444722784,1192.88958043367938444135,1183.46821941172402148368,-702.57088568160247632477,-950.670774030518487052177,-346.244095075603809164022,-433.997582164334630761005,156.110098042315001976021
57.770000000000003126388,-1.40871751564857961014354,-0.31218611034543519711093,-1.03327458440868369393684,-0.0285478438841927292801692,0.014182491849202972025723,-0.00361741170415296776907699,-0.00248680906530109480795376,-0.00555287946488479487033851,0.859379020787789715818406,0.51137961163490552873867,-0.0827075159871105691777871,-0.0531251849373407525334301,10.8323827447523619582626,-0.0155173824185824392463129,0.0188245217440120328478148,0.138053947338432791980267,7.21829334296829383532668,-3.35136339783130754454987,4.60140592057719111096503,1179.18405180277295585256,1187.21788340814714501903,1191.70943472920180283836,1182.26926010506986131077,-658.823833330806678532099,-1039.56017910910782120482,-633.873444322028717579087,-574.806745381535279193486,156.116569756323599449388
57.7725000000000008526513,-0.721040412416436238274287,-0.406024974039359831667895,-0.767146403416515854090107,-0.0315531469514080328830907,0.0126099922496488419526584,-0.00700668977395524448376074,-0.00251385966371186998433163,-0.00553857679026974539238104,0.859396832478909300512271,0.511352855636524550320132,-0.0805896107069399569855506,-0.0539439973488491236741638,10.8100392768750577232595,-0.0156350547419242084934421,0.0191493292938432063676757,0.140674112997133698987895,7.21827094432859439621097,-3.35143503994982649984991,4.60176896847037308901918,1177.53592233543463407841,1184.43503832411624898668,1189.72021321206761967915,1180.59418568481487454847,-548.019085539952357066795,-982.359959532079642485769,-778.297599380656038192683,-640.38574233226461274171,156.124408141396287419411
57.7749999999999985789145,-0.153913464690331736051121,-0.466714331473758348156622,-0.514584578481157683960134,-0.0319288868898757183245607,0.0104705066658300430942896,-0.00859825740045344621975687,-0.00251889516659013030716596,-0.00550718501220576455573719,0.859405062454106527525255,0.511334093797736644049223,-0.0780310637022249981020749,-0.0543677205428944529397306,10.7870597722251062577925,-0.015713888439315225331594,0.0194685264634064693345383,0.143199492457923460708713,7.21824413718658419725216,-3.35150702624656071648701,4.60214527987919286289298,1176.44395637507568608271,1182.30608361049121413089,1187.81794673230206171866,1179.06733139341145033541,-383.180695053110355274839,-803.025384526016068775789,-742.356935386517193364853,-612.586962970413310358708,156.130994908731963732862
57.7775000000000034106051,0.352137879738343095858966,-0.491140031574228530519832,-0.266620450654362683984289,-0.0301403410958341402836602,0.00794849675890855859872186,-0.00860712752286808477353297,-0.00250768911851973180099362,-0.00546564133046062178983293,0.859403987010828984693944,0.511325945621389332806928,-0.0751650753372725133338861,-0.0545532075555133569300104,10.763608749480082948935,-0.0157556462845028152908178,0.0197749357755799652636153,0.145622210475194274748034,7.21821303281371218218965,-3.35157944837290289186171,4.60253211357088165556206,1175.62001886016810203728,1180.41991140148411432165,1186.0084285351331345737,1177.53125086996124082361,-291.996652610747105427436,-714.724520670868514571339,-659.183742420899989156169,-592.758454675746747852827,156.137632742535004126694
57.7800000000000011368684,0.780021106205063374794406,-0.487396110544392080488052,-0.0449691247954910611195345,-0.0272431371729645772916673,0.00563583654403257416909412,-0.00793121521017710329193307,-0.00248492610787114489093175,-0.00541970572615303736174752,0.859394212065515139542526,0.511330372682121336858074,-0.072114793390378337245572,-0.0546149500246331590092019,10.7398555024937252255768,-0.015763547728073722120623,0.0200627064001917994329194,0.147938098852920751902218,7.2181778986032494316305,-3.35165218099692285846913,4.60292679609996380207804,1174.98397311202120363305,1178.73246100713504347368,1184.52202802019587579707,1176.10353912003120058216,-220.527311595397378596317,-630.875556002211737904872,-475.356177605067728109134,-517.932103521041312887974,156.144309099684051034274
57.7824999999999988631316,1.10352090862487073330556,-0.470952140833191035262928,0.132320923432365150640422,-0.0239353930463525356453491,0.0043105938890788085549044,-0.00731223276160662336020657,-0.00245559289921190582184352,-0.00537661931286403157320697,0.859378630263691212221033,0.511344474266276050045121,-0.0689853633282394851367059,-0.0546921208276204343090576,10.7159669781259623277947,-0.0157417322195888137459363,0.0203270613698267287039467,0.150147299816766194302531,7.21814013375882446155174,-3.35172443892370841567185,4.60332550447585386876881,1174.51738230219211800431,1177.26553362147592451947,1183.63164764710995768837,1174.94159035235838928202,-183.770021552024104494194,-595.459476585815536964219,-235.728716466489828462727,-425.740495964565070607932,156.151027521101156025907
57.7850000000000036948222,1.3826318727712014755582,-0.475688963889434601739481,0.292032815759450559145449,-0.0201254022864195483699667,0.00409322439508972863581038,-0.00680380006747744597861427,-0.0024245074709681271353523,-0.00534192585698551637707343,0.859359258398962877478766,0.511366045898363763555494,-0.0658872786747142225038942,-0.0548879848860443775304674,10.6921005606293864076406,-0.0156956064449623559908797,0.0205652992404689732852674,0.152254127328902255644749,7.21810105898697784709839,-3.35179483197157379592568,4.60372518848426093285298,1174.0651230042606130155,1175.75516362420444238523,1183.34338443786282368819,1173.97483664020728610922,-161.04229255743976523263,-506.424875114421524813224,11.6001805790742533730509,-278.302776089452379437716,156.159132439615348175721
57.7875000000000014210855,1.54124819575709914865058,-0.523206189809704236282073,0.382419619283679290688838,-0.0171242752437824018174606,0.00472156946990253626600387,-0.00626707435558356007465619,-0.00239590528105406222469931,-0.00531893962813221720525858,0.859338559652604194738501,0.511391547206018759474944,-0.0629314087439390712486187,-0.0552591801812060065546284,10.6683971754453246205685,-0.0156314286505215525868717,0.0207772069630244513027684,0.154266586701000879555679,7.21806194252666077915137,-3.35186246088293682277026,4.60412378594764781780668,1173.71217083940450720547,1174.73340924590252143389,1183.68964855000535862928,1173.55007647191041542101,-149.184901879106462274649,-345.577015589238328630017,222.047418104577502617758,-101.70462830137849152834,156.165917802869074648697
57.7899999999999991473487,1.64084304246068346522236,-0.620399176384069273026967,0.427295556677805443701601,-0.0138875665398355344071213,0.00522913343591364324774995,-0.00511539846799895399354074,-0.00237088911455035633579769,-0.00530846664807835873917119,0.859318001262481034885354,0.511418715464973860918008,-0.0601835380052642421322417,-0.0557866829106999015386315,10.6449753161094662345931,-0.0155554624264803674493773,0.02096534907231092578761,0.156195553116838803386912,7.21802330357574994934566,-3.35192687785212584117289,4.60451983841392298302253,1173.31919849486575913033,1174.0272785462598221784,1184.45362152838470137795,1173.46631349870085614384,-190.995643465969408225646,-220.451521092514667543583,375.801546487299333421106,12.7113918448165801322602,156.172730122207724434702
57.7925000000000039790393,1.70184384494319451697208,-0.76102183882215346244493,0.426341264624405080763125,-0.00915489321574312550633401,0.00414953566971964626225455,-0.00324899989519671344301299,-0.00234721184298846731464128,-0.0053099751805763791348558,0.859299264324167810791266,0.511444671352945690045999,-0.0576466972118221260279469,-0.0563985539698682522558038,10.6219263200472884278724,-0.0154732428312375092788189,0.0211346188603460417854141,0.158053772596346675527457,7.21798560274670819580933,-3.35198833747333369004195,4.6049129260070893465695,1172.75719262207417159516,1173.63115164043938420946,1185.5686562824428165186,1173.61363343113453083788,-222.856449851519442972858,-64.487404989780515052189,402.475202204617403367592,68.8856524077993981336476,156.180929363974684065397
57.7950000000000017053026,1.70661156039464745326484,-0.855271375241455467097751,0.383310873954449071732142,-0.00471928809826483407208197,0.0013841948086600038090449,-0.00181174719641701356676045,-0.0023220355625308149692676,-0.00532140102112281607876776,0.859283262511484124956951,0.511467676743042498621605,-0.0553139613666148860504634,-0.0569993519534882087107519,10.5993113647095018592381,-0.015390075847225990340883,0.0212914456736641478917793,0.159854663857461998244247,7.2179487682567682327317,-3.35204706537573660085627,4.60530311051194019000832,1172.20491624560759191809,1173.70484152131075461512,1186.4659975394088178291,1173.81074176074002934911,-235.232533993880878142591,103.121192019810337114905,315.084258311676478570007,64.7848038549589375634241,156.18777731180702517122
57.7974999999999994315658,1.66934396297726617142132,-0.875466064934466103863997,0.308879210756398348003415,-0.000585870158499195701519435,-0.002618325062764630204587,-0.00079662595790232801178099,-0.00229443492323911030564276,-0.00533960421937896764776887,0.859271070796426839066839,0.511485649409500031659093,-0.053209332558445135430425,-0.0575075012774580868191165,10.577160378910713589562,-0.0153112948193582232292442,0.0214429421675368728217315,0.161611161752106213818081,7.2179129499153047433424,-3.35210350063158335487401,4.60569148848441756172178,1171.58102995210583685548,1174.14675760053796693683,1187.14407757399976617307,1173.93755745040903093468,-282.741629842886084134079,242.543344898980251400644,218.048107745632790965828,14.8502675252454050536244,156.194634637771059715305
57.8000000000000042632564,1.58753357269034212073677,-0.785037208206068148896861,0.204596251382530625040346,0.00386638008386639342103819,-0.00756472084245441746264138,-8.87360012063930842689599e-05,-0.00226564143937467519368534,-0.00536023569457041298980116,0.859263674434179169914216,0.511496646846352320814333,-0.0513944551994769960323595,-0.0578563086556640876478852,10.5554728834415776361766,-0.0152421661376995649928023,0.021596499610088484844006,0.163334658152051892532342,7.21787838526178138209843,-3.35215758536490326946478,4.60607977785213940080666,1170.79120809639243816491,1174.91755824580627631804,1187.55623807813753955998,1173.88499309836629436177,-289.023668112247321460018,282.195007728242899247562,69.1655490426101948742144,-63.7593384334323971529557,156.202866348980137445324
57.8025000000000019895197,1.49627601639693730284364,-0.621639151596721450943051,0.121985152663922083449144,0.00738510137687048862781269,-0.0106804825164332206632878,0.000151859291882141134860662,-0.00223809619360079920316609,-0.00538091157518558443201284,0.85926205095108787457292,0.511498737699869643336115,-0.0499186220843453182238747,-0.0580411135876601688710075,10.5342203915366834365841,-0.0151869125451506783996969,0.0217586528954831354143451,0.165034347770848688341516,7.21784586523500149013444,-3.35220954348303656900043,4.60646991038960340603126,1170.13591161154386099952,1175.55773263917990334448,1187.48990531921299407259,1173.61876075824170584383,-253.974982271487505158802,200.907218788598498804276,-125.864972894874753706063,-157.037401720578628783187,156.209722443484793075186
57.8049999999999997157829,1.38743864874395939068563,-0.405526528677371378428518,0.0622548516086851647099998,0.0107642012499712374368199,-0.0117865565016924880165083,0.000142817867681370300929691,-0.00221473360237865474903218,-0.00540397890137618401584785,0.859266703523983488288707,0.511490778799341239135856,-0.0487785436762165139357172,-0.0581600749503088654268623,10.5133502056304095617634,-0.0151479270167640921174179,0.0219338861885258439021751,0.166716830661281512071525,7.21781619521072759226854,-3.35226016167953311253314,4.60686294376606841893818,1169.52133318503615555528,1175.92209433974835519621,1186.92691321366373813362,1173.0998060897641153133,-236.843425131170789654789,62.3880875095118483386614,-317.206844933681679776782,-248.403792644340029482919,156.216567049725711058272
57.8075000000000045474735,1.26733471046184775765653,-0.183935457249836481485872,0.0329436474297867334937173,0.0139391646705473593731428,-0.0113265681314499728343792,1.23815008579139193205341e-06,-0.00220047931096274251155931,-0.00542949061654549210154119,0.859278138206507557939062,0.511471687659441065498811,-0.0480237847039733795062588,-0.0583008722335504811495888,10.4927907174546213298072,-0.0151273120894293618826643,0.0221258422348965984316482,0.168385436480005923343128,7.21778972140080288255604,-3.35231072975331301222468,4.60726060867011177890618,1168.95169448588740124251,1175.86967307672762217408,1185.9038710945437742339,1172.3767417950193703291,-220.271917885271335535435,-153.489686460046556248926,-529.569011347986929649778,-334.931630539960337955563,156.223396063584914372768
57.8100000000000022737368,1.13719715016944977747926,0.00759132603422825458228118,0.0505317236850261961023101,0.0167040990953159981802223,-0.0100125315898494451904988,-0.000225240591745752365658573,-0.0021957052567846855814504,-0.00545094584850649120644217,0.859294628927846804167245,0.51144426822868960247348,-0.0476871551361738033047999,-0.0583915719666363991491309,10.4724572123421744151983,-0.0151260938171153963560656,0.0223390698556025467380604,0.170039956073705422756603,7.21776512959504668032196,-3.35236238794809660035412,4.60766518070021202646558,1168.41997359560923541721,1175.15464590744772976905,1184.2790681569224489067,1171.4251479370634569932,-234.67849819893189078357,-484.40364516612532952422,-858.420729722418741403089,-467.565787357732517648401,156.230198512668494004174
57.8125,0.973003814712056325220146,0.182013986066097088745153,0.133333666810022344328956,0.0194346135583975537786117,-0.00872738227102645355848232,-0.000494151925973074441014732,-0.0021978978623800639324859,-0.00545974242838147792722392,0.859313591758469219605843,0.511412850487569348167938,-0.0477696352744006388912901,-0.058297049211564429260779,10.4522574232780804948106,-0.0151440545708525081680662,0.0225772562575861576728009,0.171677120948614009288136,7.21774083548297618051492,-3.35241639601700436301712,4.60807948702208580726847,1167.77830199489380902378,1173.44765485089919820894,1181.61176744593558396446,1170.03891285823283396894,-242.707924807102898512312,-760.619167426021363098698,-1091.98646842414018465206,-546.939409740613882604521,156.23832013608603119792
57.8149999999999977262632,0.82975134025902086420956,0.282560637010811244174135,0.253898194320784253985579,0.0213413440759648957711914,-0.00797069167797667503527759,-0.000614990001213040564896628,-0.00220109974584769933769746,-0.00545248368026973219413467,0.859331963776089335915742,0.511382570844494455108986,-0.0481550812621065749130622,-0.0579414391831902381158059,10.4320966596638591283863,-0.0151785210054933127760135,0.0228411119915143158431992,0.173291626347174237965376,7.21771454869932060915971,-3.35247371402116201011268,4.60850414622308157674979,1167.20643397157482468174,1171.35155007032108187559,1178.81913581480671382451,1168.69045088836287504819,-240.405136333870160569859,-950.586064296080849089776,-1215.83789651168990531005,-576.229378794028775701008,156.245045551379320158958
57.8175000000000025579538,0.675977271253897282754508,0.346981034426924406233184,0.41982604280099894422662,0.0231088857158208323128168,-0.00720387109587122646814361,-0.000445950954506278566050193,-0.00219804830898692174154241,-0.00542786812073614219342765,0.859347279102617433999001,0.511357578207804697179029,-0.0486847482632990213868851,-0.0572715286917743413019899,10.4118828153811762149417,-0.0152256773495301374332644,0.0231291548954258609216428,0.174876855594739144539318,7.21768412190569552677744,-3.35253474107626336930821,4.60893898170840987660313,1166.57627631322384331725,1168.69472452941636220203,1175.53257796337402396603,1167.15776596426121614059,-290.799294037275501523254,-1248.7298305187300684338,-1520.96125359766529072658,-709.171338627221416572866,156.251716444370231329231
57.8200000000000002842171,0.472093923347723376515717,0.396920974547544214150463,0.649151222529025906382572,0.0251279134287452111939931,-0.00644639226470021184378645,0.000397810014155013493344915,-0.00218671687152838419010425,-0.00538869277472066397077777,0.859359256769926638241941,0.511338302763527097205554,-0.0492548183885472140586259,-0.0563589664622809877192466,10.3915302767093233882179,-0.0152822314870985440787843,0.023436524278144393179657,0.176425936408307837410803,7.21764951434903956339895,-3.35259889232771390865651,4.60938257033054910039027,1165.75243750138770337799,1165.10790091772423693328,1171.21432954681449700729,1165.14459419522495409183,-314.312160398380285641906,-1340.05225905215411330573,-1607.73299442385700785962,-758.291992377515498446883,156.259646098434018313128
57.8224999999999980104803,0.282977555176342321363592,0.424394346024016988483396,0.840648529063348082246421,0.026485201224838800238004,-0.00582097758265018305756655,0.00189609557751432150629611,-0.00216814430387068024161379,-0.00533960809307223050607094,0.859366849061946047605431,0.511326445210327329427002,-0.0498029853843591219231257,-0.0553335706557979353781285,10.370962986857170662347,-0.0153456105765384012012964,0.0237564520495732837968017,0.177932482064611985350666,7.21761073552584608847837,-3.35266511671403977246086,4.60983288431000559626227,1165.0047155112333712168,1161.99446323416168525,1167.49391299126205012726,1163.36630600237708677014,-318.571106122654612136103,-1225.98785149931291016401,-1462.17551678103291123989,-720.814380500537026819075,156.266182762227458624693
57.8250000000000028421709,0.0765630022337417670552639,0.442354172123884503697866,0.996183530976389119970804,0.0272130672623012992428215,-0.00475447948857875106465354,0.00446898491800948489960366,-0.00214571243465511759390685,-0.00528837396463581813077504,0.859371646291756663416095,0.511319238344471349577702,-0.0502824796107488175556099,-0.0543957538366609608115887,10.3501163719713602517913,-0.015413236092738927945911,0.0240807951650910539997952,0.179391276876053495925589,7.21756888185293110637986,-3.35273297013858107007422,4.61028751601284980665696,1164.1595819707736154669,1158.97796166022453689948,1163.90345196290559215413,1161.54052229272042495722,-363.528277611244902800536,-1167.62006626440165746317,-1377.09754924646904328256,-732.925239364010622011847,156.272636521347067173338
57.8275000000000005684342,-0.137409451392410980608005,0.453995488450306405869838,1.09496244245607798895037,0.0273632242970305201990033,-0.00341268066885170489113688,0.0079212091402643264315131,-0.00212384317334511152700061,-0.00524138640296516796629467,0.859374959701774354670079,0.511314401991051714624348,-0.0506873507695021832675231,-0.0537215663377028362912569,10.3289386023757412402801,-0.0154831956806406254023578,0.0244019389439110480355399,0.18079830310364464196482,7.2175248993734353319951,-3.35280163201976355580314,4.61074361661080800445234,1163.18707412317621674447,1156.15636290283669040946,1160.60842524502618289262,1159.70167980555515896413,-431.14065099205720343889,-1073.30465667302928522986,-1210.20053824614501536416,-740.386119826498884322064,156.279016024902404069508
57.8299999999999982946974,-0.348297048415298238221993,0.462067882718448397216804,1.10286758511096305568344,0.0268363943054749642946888,-0.00219623601755915710126432,0.0118834876156469274044447,-0.00210589463503539110755813,-0.00520293824654317806771564,0.859378394467531947498173,0.511309193922048432767724,-0.0510230175192080553925322,-0.0534273382345305178353634,10.3073909705683988136116,-0.0155536322904408896156125,0.0247137902512329574178374,0.182150585651449231638921,7.21748017554283460839315,-3.35287010527359141676129,4.61119890752577976655857,1162.00387871581528997922,1153.61143837686427104927,1157.85244927168037065712,1157.83859169359129737131,-574.583166988692710219766,-1066.90544351872608785925,-1061.4839555868029492558,-837.611674409644251682039,156.285300603524262896826
57.832500000000003126388,-0.579538596597674038335413,0.476535039298962237452884,1.00114758108575307993249,0.0254627145817673053440622,-0.001104760587437722367532,0.0160585847750986943083262,-0.00209310293504989027718599,-0.00517448751254460763415732,0.859382935305331052688871,0.511301954547599524225632,-0.0512955489545669635065295,-0.0535465264426679132814257,10.2854477917136932774156,-0.015622562227773523560459,0.0250122985308409082061409,0.183445682093791140321315,7.2174356118236220325457,-3.35293863478702780511753,4.61165343569185193217663,1160.31415828823128322256,1150.82183568524033034919,1155.30100546708945330465,1155.51362143350479527726,-656.985775305320657935226,-994.305197084023120623897,-809.094230394925830296415,-879.557497436467428997275,156.292726997398403909756
57.8350000000000008526513,-0.740399493909859707230225,0.498452160204245042773863,0.835315961727384759250015,0.0235882609864842170133148,-0.000418553414813423792662644,0.018577313649418322749618,-0.0020823179906150450502178,-0.00515396879297108558709573,0.85938998305531455468298,0.511290376898289933293995,-0.0514787428214472653209555,-0.0539955304053360285454488,10.2630960075099242345686,-0.0156871415636042413344065,0.0252961611347080617129279,0.184681040315657324368814,7.2173915507934029989201,-3.35300848294552977790772,4.61210945558025908752597,1158.71894983928700639808,1148.63991239144161227159,1153.80697811970367183676,1153.44080420640671036381,-654.677879160821817094984,-856.690663664409612465533,-487.817050696947092092159,-867.784122428172622676357,156.298816958785209862981
57.8374999999999985789145,-0.854900609001179700996431,0.531886151574084586890478,0.609666669515604442430856,0.0209755838733855157207664,0.00029568978030298088792438,0.0200854560448359593938239,-0.00207092473508762881656553,-0.00513679702023341067107509,0.85939824277901377680422,0.511276706508774214654522,-0.051590759378771625098814,-0.0546454318594797455732603,10.2403345457401560025801,-0.015745430456264575963532,0.0255653620674592581274442,0.185853630066280112176358,7.21734672890346118379057,-3.35308059895300125674567,4.61257006564522598068834,1157.04076889243015102693,1146.53838236692217833479,1152.86192021360693615861,1151.17470082136787823401,-723.042470916328284147312,-903.453257657876520170248,-332.986768449393537139258,-1040.45828971817604724492,156.304802458040455803712
57.8400000000000034106051,-0.933973417610213907380512,0.576453535653973281327467,0.299139987024019227135341,0.0175090767088199768253265,0.0015562369595710934949695,0.0209919250543438747069747,-0.00205768521144274272455243,-0.00511783149815869461973783,0.859405775420467032965632,0.511264269238281277019098,-0.0516868917173275849163971,-0.0553674078394455482232672,10.2171733827361048696503,-0.0157962907556931445030024,0.0258205618426850525004568,0.186960047809914348126981,7.21730044459022401781567,-3.35315440859083579994149,4.61303730209917972615585,1155.10373748470351529249,1144.12264610314991841733,1152.14204427745585235243,1148.23851275781316871871,-673.625375004822785740544,-852.910189068343470353284,-230.47631215305986529529,-1100.79974890484731986362,156.311863546345591657882
57.8425000000000011368684,-0.958010124872039070531571,0.605273581948378214256934,0.0249025649884748491447173,0.0148563259490702061910161,0.00316733462506698162930441,0.0211828394559061654323084,-0.00204445254056999804054273,-0.0050986465381148583092541,0.859412831358874029774597,0.511252623988834087320754,-0.0518119827292836537813159,-0.0561798009695098007898473,10.193632081616357254461,-0.0158384148996050140578706,0.0260607404853518895282427,0.187997336187709557231429,7.21725375792645618133747,-3.3532291186277549677186,4.61351072423812968992252,1153.6726420174043141742,1142.27383142157827933261,1151.70953865284104722377,1145.67070207684082561173,-515.07419953460623673891,-678.136178332422900894016,-172.984326853132159840243,-1027.84837439819762039406,156.317646901082895283253
57.8449999999999988631316,-0.956234083004710466724418,0.61065061154721611558216,-0.249137659866244642881128,0.0128331952810927310548728,0.00541670349686287043444732,0.0208932756125360420684789,-0.00203292842958756585919344,-0.005083144424119436996512,0.859419805494760824515765,0.511241063565115338995781,-0.0519886009771997961714796,-0.0571378463341121606289263,10.1697384150095082588905,-0.0158704147854478831713987,0.0262851424508895800680186,0.188963258093580999119609,7.21720746463465534503712,-3.35330391355674217734872,4.61398879710386733421501,1152.52836648703282662609,1140.73196521149088766833,1151.27712264319097812404,1143.09927088582685428264,-431.522637450604861442116,-576.252850768674647952139,-211.111460702323938676273,-1098.69450058384427393321,156.323326833877615626989
57.8475000000000036948222,-0.946097647804046593122962,0.583507963795428907793905,-0.56128996096223149336879,0.010843366372312276610379,0.00835763295570710745829857,0.0199274693362686793063343,-0.00202539113141827868680434,-0.00507467273821004573319815,0.859428025476024037843104,0.511227317299819850049403,-0.0522583342634368314127968,-0.0582922489055232306842669,10.1455266857766517318851,-0.0158915755238906095114793,0.0264940543107116364962561,0.189856540812928326067421,7.21716248670569893164384,-3.35337852333685315642242,4.61446931402434312730065,1151.5150288301501859678,1139.392567167733432143,1150.65398134932888751791,1140.17722957391879390343,-319.451027047144009429758,-390.564529640396642662381,-246.332884805280116324866,-1021.65077626366417007375,156.330025659713385266514
57.8500000000000014210855,-0.940689600991419738740262,0.54111449703104586017588,-0.79428075419978949600619,0.00892341232013905624742556,0.0101834309086254546500294,0.0184730356485367785968066,-0.00202397475141047030258723,-0.00507478745668057864420808,0.859437967525070289909195,0.511210566201331539915031,-0.0526804515152899666130537,-0.0596617710878856455369856,10.1210358363403845061157,-0.0159021033458961180695468,0.0266890358642052662185851,0.190676961970938280144239,7.21711960187123402477027,-3.3534523344479931772355,4.6149499368844670854628,1150.9311113517962894548,1138.77914256328790543193,1150.04545821916394743312,1137.99101700450592034031,-201.549166627775377946818,-136.54463118604010674062,-247.284541864698695690095,-803.447329645090121630346,156.335512859143562991449
57.8524999999999991473487,-0.94199252671058142372118,0.500624394048188814387856,-0.980801589275400731438026,0.00650662107241878687191594,0.0106686444901193597245559,0.0161983127318157497931406,-0.00203114459914930387332554,-0.00508167415082574729090492,0.859449690549997979971408,0.511190727349998486062077,-0.0533543929135012612308131,-0.0612123370581507675325383,10.0963075691477897066761,-0.0159035973201128166820695,0.0268730454293672170462681,0.191425109590611514098768,7.21707903859281163505557,-3.35352492417603365026935,4.61542959618521919651357,1150.50728299701222567819,1138.70984401180385248153,1149.4175586400065185444,1136.15999292569699719024,-166.397611369126394720297,54.1870013769035026029997,-235.842354720141287316437,-666.197856937265214583022,156.340904888448676501866
57.8550000000000039790393,-0.950213950797935802405902,0.477623194682110729925029,-1.11487772767190285172489,0.00414165895976070699141536,0.0103845459669374556854748,0.0132851749022031093844243,-0.00204602335365078368337177,-0.00508985017437388418543032,0.859460785339833055473946,0.511171916312863516829168,-0.0543571522114901645172935,-0.0628155374822155498915066,10.071384596800008637274,-0.0158981479546595368124162,0.0270507266991949421597319,0.192102010415835383616567,7.21703930765328660612568,-3.35359616563656182108843,4.61590936426106424050886,1150.0991232949502318661,1139.05007757017256153631,1148.86624644556263774575,1134.66002771981789010169,-190.648263991527301186579,211.957149978234866694038,-177.592035437101088746203,-519.788106214089225431962,156.346221196281561560681
57.8575000000000017053026,-0.970280868184173805879311,0.478539271131199706044157,-1.17314384857989573163195,0.00220267468716686589530473,0.0103516741993817853323412,0.00987374848323583666209746,-0.00206119329669513743491516,-0.0050930842806006949158304,0.859467959141477777507134,0.511159759773044841679734,-0.0556562738073771434699211,-0.064267852166763062005117,10.0463090434300355013875,-0.0158864669421267118432084,0.0272278405610568083328182,0.192708985958752132550131,7.21699896187994305307711,-3.35366660913578407132718,4.61639147620516165915205,1149.55404167705410145572,1139.76962976169556895911,1148.52959846282055877964,1133.56105239462522149552,-306.917394166482097261905,363.545095188886591586197,-73.5952359079634277350124,-399.064463553712869270385,156.351450663145243424879
57.8599999999999994315658,-1.009675645999242643569,0.485699899702742299290037,-1.1501500608369747968851,0.00022786012579946663195174,0.0115661998714702441565239,0.00570477778744136500288509,-0.00207334433671548272123952,-0.00509226032077472832299003,0.859470260250195461360079,0.511155853723342934458174,-0.057212006188216195379237,-0.0655362201769888463864788,10.0211206946977320342285,-0.0158693645901071440917907,0.0274065899929745518392998,0.193248067526796490911423,7.21695828304890696358598,-3.3537373770483069890247,4.61687622145028253584087,1148.56453632411921716994,1140.8678030461153412034,1148.49827026602315527271,1132.66470540205114048149,-436.490645001008033432299,408.677014801078371419862,59.2620182897159466506309,-268.71784724576070857438,156.357632113662958772693
57.8625000000000042632564,-1.0489363021167861234062,0.47180180243676311802048,-1.05932874904684681816036,-0.001469279692369814026634,0.0136066137211093510922533,0.00263894145891799747002948,-0.00208292919285995832903713,-0.0050909745100017472774212,0.859466648686392220568564,0.511161901576142163605709,-0.0590152854889844646901764,-0.0666764921030941759561017,9.99585619954764936778702,-0.0158487145085994644844174,0.0275869064582827117071417,0.193721831663265009471075,7.21691689470268205042203,-3.35380841531166540292475,4.61736204164410324324308,1147.37158845204794488382,1141.81301483570200616668,1148.82590855426929010719,1132.21746315839573071571,-561.540133172806349648454,346.779074149303539797984,199.602725443253547155109,-132.060164592372274228183,156.362710173833164617463
57.8650000000000019895197,-1.07504879380871409821907,0.413946148423892490431086,-0.910266845676937941256313,-0.00367329830826589173384256,0.0159392888886699876649367,0.000273347779980689529946009,-0.00209325970489856148792907,-0.0050930063025454667263725,0.859457984702896138351491,0.511176400518884910262329,-0.0610961278388552006535228,-0.0677792078053691959826921,9.97054861548264170778566,-0.0158274352800504246319147,0.0277675937975406135482803,0.194133287878190896602604,7.21687473671811829945,-3.35387947166539079901781,4.61784633221862339524932,1145.7568356582537489885,1142.60169841686274594394,1149.49628389323993360449,1132.00440457908894131833,-798.323031320340646743716,274.488724392471794999437,347.138435140820661217731,-58.4262157118322917881414,156.367718619121859546794
57.8674999999999997157829,-1.05693023064542890310236,0.289422532996327863674679,-0.687438444610987020588766,-0.00715829958180020774899388,0.0181318159266968190190816,-0.00185159258039280672641924,-0.00210600508743785533663506,-0.00509993463229548634613186,0.859445760471426289939245,0.511196817693226446266408,-0.0634695099901823878152385,-0.0688819856987040457507732,9.94522750772486574533104,-0.0158085777746693953438317,0.0279479697341860761072851,0.194485493540621334762619,7.21683177227776440076923,-3.35394978080240679929602,4.61832682755950774122766,1143.37997329544987223926,1143.1854584576631168602,1150.56160072997181487153,1131.92533207983683496423,-925.729020348743915747036,132.70261518252968357956,401.463735851370245200087,-12.6485524322951139453153,156.373655769893048272934
57.8700000000000045474735,-0.97580777118351968990595,0.152545998982972413893222,-0.481343878846570760732249,-0.0105403758352760733990605,0.0191567546520796661013719,-0.00312356027530245362877626,-0.0021205840359441287604203,-0.00510911646003500783536078,0.859431892954401810413856,0.511219960335140610752092,-0.0661449713364727076569949,-0.0699288767643708175647532,9.91991944831213956490501,-0.0157954468071622930458453,0.0281286790572073536198516,0.194780874815241505926267,7.21678780418430854126655,-3.35401923110102107017383,4.61880349129261791318868,1141.12819055650766131293,1143.26521149277573385916,1151.50360257249781170685,1131.94116181692743339227,-924.1494424394023781133,-70.9906855234385716357792,340.32206965512938268148,9.63819089174155863020133,156.378548142194830461449
57.8725000000000022737368,-0.807513237386363158520908,0.00882917408450649421336465,-0.270880917652252806160362,-0.0137885712878847415535644,0.0192783886048910578503435,-0.00377024752701831354639861,-0.00213662175226198708388736,-0.00511371724331722166817515,0.859417379736118869359984,0.511244225772614746539091,-0.0691678938065083542818812,-0.070796390770917233536963,9.89464870724577494343066,-0.0157924039294131159094636,0.0283111368210422036095775,0.195020550869336978250246,7.21674182388479046323937,-3.35408773320980646559519,4.61927864325289139202368,1138.7592260832504962309,1142.8305050300457423873,1152.2632110782483323419,1131.97352303429556741321,-1027.4233294984037456743,-322.872780273176317678008,237.779377556796845283316,6.78028641464768977442645,156.383389895557002091664
57.875,-0.505011458695454162892702,-0.13511535643532560091451,-0.028596062829902658963821,-0.0168530132203545783553533,0.0184759600589891118116448,-0.00356601523976605733895484,-0.00215324990129425655055462,-0.00510750672659006366149725,0.8594027799240105958134,0.511268745047220973809488,-0.0725586920206303387370639,-0.0713682296158219264814448,9.86943808481756690298425,-0.0158034006301396787175229,0.0284961799588533681859559,0.195204157478946843662371,7.21669276050013230872082,-3.35415610442658040923902,4.6197561431721876346046,1135.99107390902031511359,1141.65084759141132053628,1152.69249946028071462933,1131.97506324900064100802,-975.771569000131194115966,-544.815337910763332729402,46.051695876982243760267,-9.11792448419793544189815,156.389149377260878281959
57.8774999999999977262632,-0.184169491401781765249623,-0.208745245032790682770951,0.158991774673906877124452,-0.0182791900856505845629485,0.0171847781236657941306145,-0.00286494342860479228596304,-0.00217406369376621760175494,-0.00509293302312878882337488,0.859390154750135026873181,0.511290012392500159421616,-0.0763159010183160901874544,-0.0717213665951062090408996,9.84430944895093062996239,-0.0158315566367224179467055,0.0286807088513672571450375,0.195330358166732886981976,7.21664116158504320708289,-3.3542253915925344109894,4.62023808618477271892289,1133.8803682382542774576,1140.10642834049440352828,1152.49346955763303412823,1131.92793341187461919617,-780.988541627321637861314,-728.327992125141804535815,-214.590393302959711263611,-26.2881251727642073490188,156.393912561839471209169
57.8800000000000025579538,0.17727952118603304554334,-0.21917466481266956179752,0.334066674219350434604792,-0.0182560213774692892130247,0.0156565133125679267767083,-0.00211327044736402732544311,-0.00220445168601496061661082,-0.00507526579275321444717495,0.859380463022659024652228,0.511306340937841108384987,-0.0804311070848110487574445,-0.0719981537852080744066541,9.81928514017024767213115,-0.0158795819550934212693871,0.028860330898400558818917,0.195396890239361575858368,7.21658731448096713023688,-3.35429624237732681990565,4.62072511158852705648314,1132.08613120088170944655,1138.00920763078374875477,1151.6195474937653671077,1131.84362262313675273617,-655.788422334336360108864,-918.395669383956715137174,-459.78680557035784204345,-33.848613871742564640499,156.398644835904178762576
57.8825000000000002842171,0.545485260018526041392306,-0.177727553845012486988253,0.505259380252692680279836,-0.0170229577690953724766754,0.0144662734189521524630351,-0.00144376697276923753043842,-0.00224978107630306213560178,-0.00505850209955267283989944,0.85937502320669489908056,0.511315452282637861181058,-0.0849003631351022969298015,-0.072318665651264629756767,9.79438894202938215016729,-0.015949798340392569440116,0.0290315265001892496010694,0.195400961532124883834882,7.21653220517907190156848,-3.35436919898904895021019,4.6212168333736771685949,1130.60142612658091820776,1135.5144499935722706141,1150.19453552978006882768,1131.75869034251581979333,-515.396348403569731999596,-1069.03644516229996952461,-681.505372935936520661926,-25.3379611868470782098939,156.403356074433105504795
57.8849999999999980104803,0.892443873775635054812483,-0.0872589999900037216473692,0.678298198091312309898626,-0.0145557908235425664811302,0.0140434812110070555979391,-0.000761051153054275093291781,-0.00230667757918340743036878,-0.00504295480010323766972835,0.859373441808176430356525,0.511318014362653894266941,-0.0896032113970138544001287,-0.0726542515827338780676214,9.76964708294054062776013,-0.0160420336041160287166019,0.0291943619126916950601291,0.195339777456413454803652,7.2164766205817523214705,-3.354443474598099328432,4.62171163589186395626029,1129.50914945886620444071,1132.66402540497711015632,1148.21202062908878360759,1131.71693281720263257739,-393.307591927149360344629,-1292.62367339613138028653,-956.099035575436801082105,-0.117803384910015421227492,156.408046111096155073028
57.8875000000000028421709,1.25773013968141134100165,0.0531656739406716136175923,0.885560229397208908963535,-0.0107096863892213421676214,0.013933109365169180429711,0.000436716499258694198625647,-0.00237022273631891811779271,-0.00502680037629705568635874,0.859375387972853066465007,0.511314621656766998825105,-0.0944105374863093427251215,-0.0729277672558778233824484,9.74508759035118288238664,-0.0161556528961994474991037,0.0293508080765366476116984,0.195211238189888336425071,7.21642144748317626579137,-3.35451803950878035820438,4.62220728415309434211622,1128.63488816694416527753,1129.05133162658830769942,1145.41404035190043941839,1131.75810132559126941487,-256.981556726491760400677,-1318.57744462982577715593,-1057.65143615126817167038,32.1713368772470005296782,156.413653027701627706847
57.8900000000000005684342,1.5098033927566909540019,0.177516140471171951498164,1.04467749463977210844234,-0.00715133062735396392989307,0.0140053614296170771819083,0.0020898511095352599771513,-0.00243357373599740285305404,-0.00500653936140565015283643,0.859379516378484642480373,0.511307603798830223595928,-0.0991753613726944760475845,-0.0730191714502054362023742,9.72073967886720780029464,-0.0162895389998644751772261,0.0295045828615474181599865,0.19501428937380640982191,7.21636682007879404210371,-3.35459123001279380105188,4.62270150387959333215804,1128.22424167523308824457,1126.07113818182460818207,1142.9237634483297370025,1131.87778950158894986089,-119.084416620825393806626,-1139.0522406808840969461,-986.943114004213384760078,62.3537902074188892243001,156.418308866866937023588
57.8924999999999982946974,1.70365514030556330915545,0.28476428551911081576975,1.16125611911542292453703,-0.00337954897518950728510512,0.0146923091372533620724283,0.00476492697420673617242359,-0.00248593294948994038978674,-0.0049793391172161562130416,0.859384665977550255000494,0.511298992055234435838429,-0.103677514328427949896749,-0.0727856591191157753506502,9.69663300761266100380453,-0.0164407444811515597582474,0.0296606780796652251541712,0.19474909713564952928877,7.21631288231000667110493,-3.3546629798229821162181,4.62319337984261036211819,1128.03946608384057981311,1123.35607042318906678702,1140.47932478188386085094,1132.06987027662808031891,-67.0464874007959963364556,-1087.6587639215251783753,-1029.66124771721365505073,90.502991837001076191882,156.422946950382566910775
57.895000000000003126388,1.86658881774081697457746,0.364588208010026060268416,1.21277589541342045720285,0.00154603325755991310996862,0.0163292546092028249826722,0.00915668581068300978242913,-0.00252192604048751206971546,-0.00494870771394381389618466,0.859391274816004191450247,0.511288037843897424927775,-0.107725911523817441395323,-0.0722493452075729375438939,9.67279559636192587390724,-0.016606187721114360617003,0.0298214400659933716319916,0.194417258976032014672342,7.21626069510606082957338,-3.35473466151741295249167,4.62368214643571029398572,1127.88900923822893673787,1120.63284436221420037327,1137.77545720974103460321,1132.33030446077418673667,-78.2157976852031424641609,-887.488802469216125246021,-940.396433865290418907534,87.3675902194471376560614,156.428489273831843320295
57.8975000000000008526513,1.94079725753185350356489,0.374270616600805350326908,1.15943224149397328126554,0.00615571741669646271127858,0.0178385277562902351544682,0.0132699770081590798231908,-0.00254132621252765693309339,-0.00491963580867797733997548,0.859398288154987199938262,0.51127646149270966624556,-0.111203524137186482434458,-0.0715127856718440757521904,9.64925274027030077661493,-0.0167838472414430089907356,0.0299877967339218683140434,0.19402115919164050761303,7.21620993544199329505773,-3.35480708545900485617608,4.62416716198151256378424,1127.64838709541436401196,1118.91862641084071583464,1135.77734261255500314292,1132.50670822772553947289,-163.338498494716390041503,-561.474721166097424429609,-747.883211521318912673451,39.8376763946451646347668,156.433084824561689174516
57.8999999999999985789145,1.94614151771168053528527,0.315924907661464748898084,0.996687041578586452317268,0.0112994003319266296536671,0.0190425240445417469359324,0.0168852022061907608430076,-0.00254589630885432337617513,-0.00489201976861405353480539,0.859405133905855600495727,0.511265213276143826170994,-0.114080514035735797184756,-0.0706177374408725744281412,9.62602636383025611621633,-0.0169728555782293726028609,0.0301619681573739931157441,0.193563119018054646813809,7.21616057537930899457024,-3.35488016269842947991719,4.62464905889985988807211,1127.07231674575609758904,1117.8254707563862666575,1134.0360411521378409816,1132.52949284274723140697,-370.216932734676220206893,-349.196327485427502779203,-726.233951138639440614497,-57.1821221803182524467957,156.43765042058529957103
57.9025000000000034106051,1.87324084583947803039905,0.167333823328765979310262,0.688312558528319407002982,0.0174596229191259222357502,0.0199756898595155503450815,0.020106357640468388442434,-0.00253820668013416371466828,-0.00486180880281874595871816,0.859410963518946413586264,0.511255745394401106551641,-0.11638409535227731139706,-0.0695529416566171843072652,9.60313433840322439039028,-0.0171730791008516750495438,0.0303470527099309501928293,0.193045111634281951751291,7.21611226703252839342895,-3.35495378166901980776515,4.62512992595843108745157,1125.79730243174003589957,1117.17264477341268502641,1132.14617285685994829691,1132.22079761682380194543,-578.466208182930699877033,-151.051693526246737064866,-679.789810511299606332614,-192.157987037527988150032,156.443085799477955788461
57.9050000000000011368684,1.75418478520240195273061,-0.0179580894042233908669548,0.358880365396510636610827,0.0221674033324154029500619,0.0203203041982383918184762,0.0218017163358097815217818,-0.00252043390237106619891638,-0.004824953403609285630671,0.859415308872844563303772,0.511248874760419025342628,-0.118140859983468002325502,-0.0683070633288187512022205,9.58059015527249258070697,-0.0173839520777254209760176,0.0305458035184780866966303,0.192468895529986805392753,7.21606492836955215608441,-3.35502832394605565724532,4.62561169385655102104238,1124.17998570483996445546,1117.07021228875464657904,1130.63709209957960410975,1131.56870290755909991276,-756.082474230112097757228,14.6958912149008895653424,-612.136767340200208309398,-363.507578003931030252716,156.447572400727466401804
57.9074999999999988631316,1.59173538756268340144118,-0.259598789460778522908413,-0.0109881613446373704867653,0.0262494013689894556407012,0.0202247441295953477025105,0.0224272126621066318630238,-0.00249492912884691610611587,-0.00478414790785603848827234,0.859417812727248153770176,0.511245166111100379779941,-0.119321626392984908582307,-0.0669839303441778638470439,9.55840273651968175272486,-0.0176034592797071932912534,0.0307581170157550584653983,0.191836640464364244218487,7.21601834269248776365657,-3.35510294198284109157271,4.6260932780231804883897,1122.01689006059291386919,1117.2461242294871226477,1129.08548902016173087759,1130.40325972680579980079,-935.019238554763433057815,86.4287815701585628858084,-637.224131235772347281454,-557.579887558755558529811,156.452006250888899785423
57.9100000000000036948222,1.40928027316824278081242,-0.540059023961007689251801,-0.384235142364543202919691,0.0297345977271686184861821,0.0197481463236403344263525,0.0220066618042916960218403,-0.00246541233189807472078736,-0.00474312045478946734539116,0.859418046803046453696595,0.511245288332263014829948,-0.119918573438815054266193,-0.0657178971849148585437916,9.53657629153294550405917,-0.0178297149043448732719241,0.0309825474099034194053193,0.191150762405593699355677,7.2159716610808235515151,-3.3551764633180289898462,4.6265722779287727917108,1119.5048895120637553191,1117.50235619660566044331,1127.45097144339911210409,1128.78080346976389591873,-1048.91968442885627155192,87.3902130669656287409452,-672.387909907021594335674,-752.684789865476545855927,156.456390071624099391556
57.9125000000000014210855,1.22199729677503343694411,-0.852436545315857108207069,-0.723296345151577479981597,0.0325968894717558466123108,0.0187673354331004578476882,0.020212974994134193240658,-0.00243506883608207323407835,-0.00470238845053872877438605,0.859417873576325819229282,0.511246091193224949655871,-0.119955964092387762365277,-0.0645834352317080639949154,9.51511065480424456097808,-0.0180607524884006387377866,0.0312181025652289514948912,0.190413651232418379422029,7.21592459934693053469346,-3.3552496723903355579921,4.62704783139645670075879,1116.77229163844594950206,1117.68307529482217432815,1125.72354947062490282406,1126.63983577747649178491,-1192.36496771440420161525,25.7535082514784825491461,-763.70720334613338309282,-1036.97580314591232308885,156.46070578452912513967
57.9149999999999991473487,1.0128054512123070285412,-1.23343524771624535318892,-1.04605740231693422614967,0.0354460864344993686891883,0.0167337941567703187006888,0.0166468020297873484092399,-0.00240451485375603370847619,-0.0046572362932999072926421,0.859418081415896817354394,0.51124629104676599933299,-0.119477374683431891710939,-0.063542240066477406745804,9.49400182419854843374196,-0.0182944919869722465166628,0.0314649642075325031154165,0.189627352717732566844688,7.21587667203723981401708,-3.35532408296812967307687,4.62752101803230253551646,1113.54306467349715603632,1117.63112373786293574085,1123.63243542667191832152,1123.59592445403905003332,-1131.72459347444009836181,-82.0575655775008669934323,-749.180691982272605855542,-1168.77557147558263750398,156.465795605732182593783
57.9175000000000039790393,0.863077397439738103201989,-1.52296083716186747558652,-1.22145360039585093581138,0.037178288579475991804113,0.013810797234505267291893,0.0127297774948468417344216,-0.00237277337269586408377564,-0.00460452629198347587052842,0.859419555113289823644607,0.511244436340293928466849,-0.11849590852187535938711,-0.0625629851841762174569084,9.47324251147771079217819,-0.0185275254851703548297781,0.0317221757487248165463534,0.188793917861718757444933,7.2158273059373794211524,-3.35540189461296511908017,4.62799322344122110450826,1111.11366867107085454336,1117.27278746693446009886,1121.97764601071162360313,1120.79595792009558863356,-873.905098572102701837139,-219.354647704746298586542,-618.120172119190328885452,-1139.55801189682370022638,156.469955224910108881886
57.9200000000000017053026,0.746040243828245408508337,-1.73458208599119867443505,-1.28910852486068372435568,0.0382121995219801141585592,0.00923004572661581534909203,0.00850950889509492595930151,-0.00233766263547831093169704,-0.00455046779144341589223854,0.859422740733239098886997,0.511239728503793955383117,-0.116926111970192397881974,-0.0617499521976940177192539,9.45282304271934137318567,-0.0187539658732279942987553,0.0319852580892394863787409,0.187916004066458530719075,7.21577647221178963832244,-3.35548402172867010762047,4.62846328787130989468324,1109.17353918063440687547,1116.53435049933864320337,1120.54183456607438529318,1117.89813439455201660166,-709.546283465360374975717,-411.270584488612485074555,-560.877373808590050430212,-1259.69874198090997197141,156.474020423313305627744
57.9224999999999994315658,0.63718317155667480999881,-1.84550094702093225862427,-1.25893425917702828087386,0.0395972582810029116728856,0.00232128318375306261917013,0.00419499928314795867551057,-0.00229786960230616427169892,-0.00450090730002800608333668,0.859427006803464510475976,0.511233180228457317895163,-0.114712308188571976419468,-0.0612031863291795097392622,9.43273190906179870296455,-0.0189684096462844863084651,0.032249321040002880411901,0.186996220452773420639403,7.21572424269970547072717,-3.35556956419819529813253,4.62892901925101707405474,1107.56593725374727910093,1115.21643454449326782196,1119.17325914167122391518,1114.49746421019676745345,-463.201440363026847535366,-546.181221636691361709381,-439.117007134021150704939,-1211.43413675619603964151,156.478778832651670427367
57.9250000000000042632564,0.558681046709660011906351,-1.79523026624315806820675,-1.16288807498969570808356,0.0415616926243653483918905,-0.00386539812699817535504576,0.00154932775834494703380562,-0.0022535384780019143344254,-0.00445690927224014817736863,0.859433109035599440694853,0.511223509311532930965427,-0.111879612512642612198732,-0.0609514301435038902132746,9.41295680823131064585141,-0.0191669611568330011674988,0.0325109276077704401064494,0.186036639512517143479897,7.21567113172706253720889,-3.35565742422524682098128,4.62938972501641998746891,1106.85753197881808773673,1113.80344439115378918359,1118.3462495304031563137,1111.84096371076793730026,-165.715047882355776209806,-613.510290133358353159565,-275.521772430552118748892,-1006.71044923936619852611,156.482637416561743748389
57.9275000000000019895197,0.476405581796526311766371,-1.59654672333559721764118,-1.02160101880045028899247,0.0441637198196893482338155,-0.00965732777855186734494719,-0.000319737093598043437686629,-0.00220392389930163141997799,-0.00441442183789530952914282,0.859440865162978129276894,0.511211061309619241299629,-0.108497776484951541364765,-0.0609251233245028528395792,9.39348634419355832392284,-0.0193470440545262210851885,0.0327687300689692290189825,0.185038429509302715381125,7.21561698519441119259454,-3.35574708386490261347035,4.629846742926915226235,1106.73736201433507631009,1112.14888309382490660937,1117.79565027951775846304,1109.46391196399736145395,44.2305688684375439834184,-761.700674415953244533739,-203.167606440186460758923,-970.664289370980100102315,156.486378325532086819294
57.9299999999999997157829,0.374296245377512326601988,-1.22395494226610446197867,-0.822315494533983559755086,0.0467432028119436765445371,-0.0149712852794339421058645,-0.00220046510154343422441259,-0.00214937624713027342765459,-0.00436868926892105147868905,0.859449367051956625296327,0.511197403421902785147779,-0.10466919114288972258997,-0.0610474485680779846430433,9.37431149034783040008278,-0.019507296080579016039902,0.0330218666455162485062758,0.184001916832971512683059,7.21556249549521577790756,-3.35583827651184751772462,4.63030273481208887176308,1107.078684823160074302,1109.99494101907748699887,1117.33041149820314785757,1106.98764226391745069122,166.879317904755339441181,-803.950966341879166066064,-160.558218292598837706464,-845.312224466965290048392,156.490725131218397336852
57.9325000000000045474735,0.304911828795795702973237,-0.848726238215267159148425,-0.638247913857785120761434,0.0476935470078483012001946,-0.0174517116994093723914006,-0.0038126391890609782897581,-0.00208983099324731901383356,-0.00432110301192166566114361,0.859459367310748234558559,0.51118125655233526138943,-0.10043702673367002620175,-0.0613299438525965398549822,9.35542742233633717319208,-0.019645598123024771153311,0.0332683859053483424461639,0.182927123011871889390889,7.21550899368457976379432,-3.35593087539535295249493,4.63075796740526879347044,1107.57175860385927990137,1108.12912826211345418415,1116.99285918805435358081,1105.23735084166037268005,189.215876276960955237882,-750.630798293311954694218,-151.475807302963204392654,-643.741785372901972550608,156.494225469222783431178
57.9350000000000022737368,0.284565510920434916464217,-0.470719675293140515925927,-0.436955382487009713621262,0.0471023505321599839090752,-0.0178674773486747866246827,-0.00559890645362548858288143,-0.00202728232638747221314168,-0.00427562683380136501071211,0.859470119292437995106582,0.51116383151902922143961,-0.0958582870801288067230672,-0.0618389457120429864023237,9.33683470506296764312992,-0.0197611046853348806817685,0.0335056942302879579020924,0.181813711895197627210763,7.2154564450252314244949,-3.35602314797555401071349,4.63121073572319996713986,1108.0247642045453630999,1106.24178702760900705471,1116.5730324616879443056,1103.76893333705129407463,139.354884028888903912957,-755.845388831590639711067,-198.164604380961606011624,-552.205499682533854866051,156.497596399571108349846
57.9375,0.323216992506916100946768,-0.132034653193865342268865,-0.224278930085232364177728,0.0458141636225784729119503,-0.0168485651096136473947595,-0.00724758882750372885467316,-0.00196494469985922974933357,-0.00423379246532686395743106,0.859481316754558966053423,0.511145615918139561983935,-0.0910359712750754973553668,-0.062607129796694152568115,9.31854075988443142364304,-0.0198547107135321546089735,0.0337322762701555145525845,0.180660743962272773988076,7.21540498762847537506104,-3.35611321454572042455311,4.63165927550514044952479,1108.26853302400309075892,1104.34990131795893830713,1116.00203616615044666105,1102.47632334325021474797,16.2722498717050925165495,-758.183504676442794334434,-276.548991360438378706021,-491.681316423629766632075,156.500858917848745477386
57.9399999999999977262632,0.430593227938343314775693,0.130932247453470512743579,-0.0114343638507529848924449,0.0451772132465711115378859,-0.0147261936538920380074247,-0.00787078992942428883050621,-0.00190409906282874700524099,-0.0041935061477398451537657,0.859491321838897204266061,0.511129376069373919655447,-0.0860779539192726844687442,-0.0635856539688032518231608,9.30056132245985622830631,-0.0199283711288651757542745,0.0339481956152170374907406,0.1794665075098284545696,7.21535354542628493135226,-3.35620047266448517930826,4.63210374619258136164035,1108.10612545390381455945,1102.45086950423024063639,1115.19028750488701007271,1101.31052675493538117735,-183.595249187371081234232,-836.832433603494109775056,-414.162124224519232029706,-504.271865385104661072546,156.503990528768582635166
57.9425000000000025579538,0.601771247476033721568456,0.360494343745951351110079,0.215592638622764537492671,0.0461919280038572063751268,-0.0122140571589946025921058,-0.00680175800728567789971146,-0.00184575077231990459548927,-0.00415094833385213930060376,0.859498455917038439721978,0.511117963504435501853607,-0.0811036454720429622611277,-0.0646913640624423857961034,9.28292114500770892959736,-0.0199847598982128248079615,0.0341539596763707070659066,0.178228500181298515903094,7.21530075636295364915895,-3.35628548070544363568501,4.63254541061323532602501,1107.350556778065765684,1100.1657391499393270351,1113.93122554502679122379,1099.95496401632340166543,-367.538752295234417033498,-835.635950027226499514654,-500.596956592715685019357,-500.860691297310268055298,156.507598062204522193497
57.9450000000000002842171,0.739118329109720306746567,0.506682386373816573410522,0.362369977206388915735857,0.0485371356952176494226059,-0.0112241730016346893950008,-0.00495395116058066145581229,-0.00179294830739676206224353,-0.00410293873562060044252187,0.859503684217240659926063,0.511109769058860741175465,-0.0762568907845128096667509,-0.0658671391261183014620428,9.26565423100912255449657,-0.0200267638440097886509683,0.0343494049819575500426261,0.176943553019319715913227,7.215246604486856618621,-3.35636953944862304055619,4.63298510633149973614309,1106.26843169242670228414,1098.27268975409197082627,1112.6873027219221512496,1098.80622329844754858641,-507.08137690981590139927,-746.715529239915440484765,-520.017157289130409481004,-469.920939373350790901895,156.510480174423832977482
57.9474999999999980104803,0.825885437610274220077144,0.649919308342327251004633,0.458081649788742162332511,0.051768342594990489347051,-0.0116628567446925117401246,-0.00308530882972557918969558,-0.00174650631484050684709419,-0.00404353439852914772062453,0.859508151835246425598314,0.511102911866821663089411,-0.0716690215870675190190653,-0.0669881553877526986218172,9.24880403669303419178505,-0.0200567931773040428189425,0.0345353046565965993153213,0.175607682483275934215428,7.21519135337566730470371,-3.35645449635927217713061,4.63342519623263093819787,1104.81514989351899203029,1096.43216150374314565852,1111.33113975858350386261,1097.60535931945878473925,-689.061144219215179873572,-783.63133479107023049437,-598.299286773602489120094,-540.047821828644600827829,156.513235189788019852131
57.9500000000000028421709,0.841480765829719978832202,0.849522969972895003465396,0.52712907379364970505975,0.0557452982302966554284396,-0.0124273724909331768212484,-0.00131424993873073764696913,-0.00170561289461564459871146,-0.00396736833100709822969021,0.859513646045111934235194,0.51109443202309401410588,-0.0674362033975118707607166,-0.0679219265333799726569453,9.23242248482811511678392,-0.0200761943677213831882522,0.0347123441727889281427366,0.174216743176181743102404,7.2151353978252688037287,-3.35654177905413009241897,4.63386728827625482551866,1102.82312597132886367035,1094.35453308013461537485,1109.69580628805260857916,1096.10598418930294428719,-742.164218941691160580376,-727.453095908222849175218,-584.77062290764581575786,-555.871486546982282561657,156.516396812097895008264
57.9525000000000005684342,0.777609340537109949842431,1.03144458496214586062933,0.564393413203504556996393,0.0586674189866634651635557,-0.0118249832835208151804451,-0.000247349683514897519896053,-0.0016705949915638332835266,-0.00387692031804896374697078,0.859520458480893090325026,0.511083814468657804397367,-0.0635944256118839146285637,-0.0686705560564186689997968,9.21656788667536019943327,-0.0200852235508262276508784,0.0348784745184761713066024,0.172767684148452366210691,7.21507856830097171751959,-3.35663205383867957465327,4.63431048022357661153592,1101.1043287988086376572,1092.79489602420017035911,1108.40728664404377923347,1094.82600188672245167254,-667.31583071174770793732,-572.231777819908757010126,-486.369449372829308231303,-512.160130294853047416836,156.518913321414004258259
57.9549999999999982946974,0.649439275912819247160712,1.18654305140344940028285,0.602403207104134086335989,0.0606837837709822275344962,-0.00897496461731031765218791,0.000572797072856167602955546,-0.00164155792649040683205131,-0.00377826223408338386644534,0.859527288801425259912037,0.511073193005989190318417,-0.0601378171788760976235189,-0.0692903958570253025728292,9.20130278146078950385345,-0.020083724710190972717605,0.0350307434478672533040289,0.171258951343027376879036,7.21502041414124928309093,-3.35672477368669941455437,4.6347524328976081875453,1099.4865468177731600008,1091.49337419103767388151,1107.26395904119067381544,1093.54518353783100792498,-660.414045011956204689341,-496.543419581276509688905,-464.88167523901984168333,-554.869033795864993408031,156.521310082114638362327
57.957500000000003126388,0.452903667188105318874847,1.27682149848435200212293,0.665618093724810289124605,0.0617744635146949133686078,-0.0032715481231579308929458,0.00152864849462396338794501,-0.0016179413685946748748673,-0.00367723102303514582864241,0.859533339469678137056974,0.511063859588122948451883,-0.0570472033254344340624797,-0.0698281377481118903371993,9.18669126404871860813728,-0.0200716756396357338954051,0.0351669874063461895818961,0.169690709088004432203434,7.21496124086088208571255,-3.35681841752867349271128,4.63519018819405737019679,1097.80225857374716724735,1090.31217892629251764447,1106.08287826784749086073,1092.05165671774170732533,-561.644090119974976005324,-361.427476020887013419269,-407.271317544765167895093,-532.377638352455051062861,156.524051556734690393569
57.9600000000000008526513,0.275907171193657430041668,1.23899929066425951162955,0.736068526348365725908707,0.0615468479148743100037855,0.00234401309982463059225499,0.00242703139398139011370659,-0.00159755265009434849199366,-0.00357676913884994547229712,0.859537263653696204102062,0.511058055912841924239842,-0.05429937155896615713635,-0.0702713383715032335885553,9.1727959542645471913147,-0.020049659507842987338222,0.0352869143809371385578366,0.168064791448837791421056,7.21490092199735499889357,-3.35691115984408705585906,4.63562208854772617172557,1096.67832636717184868758,1089.68623681093231425621,1105.22760245346580632031,1090.88329534606737070135,-383.185030962052394443162,-172.414564338143833310824,-333.159337696300269726635,-440.124636150712944981933,156.52622696433999749388
57.9624999999999985789145,0.0990014075172473972941134,1.08142420392824578634361,0.816272665620850323975333,0.0607377841202296556155638,0.00741647678477417530290561,0.0036679230058760513982774,-0.00157697521514697943344208,-0.00348020961773801802349726,0.859538810404686937083341,0.511056180134607629383936,-0.0518422738965506474384526,-0.0706058939824433240417534,9.1596744469500350760427,-0.0200181222082677738594025,0.0353912976277424087823142,0.166384824709107287388221,7.21483937814707942948189,-3.35700158435324169658998,4.63604792568167578536986,1095.88633341893864781014,1089.45010610460258249077,1104.41708157936750467343,1089.8510335369901440572,-259.769694696027613645128,-32.3445541324706979935399,-334.63376107621274968551,-381.395074802490341880912,156.528293013159583324523
57.9650000000000034106051,-0.082319935545052166925295,0.853867364794778871406322,0.889243246395199027354295,0.0602249202410344852687274,0.0109535890199534604455556,0.00555296105228655998559129,-0.00155600609288828817602934,-0.00339090250659224287307913,0.859539970922104545891784,0.511054845480876096530665,-0.0496681976155447929555109,-0.0708531618854252170924823,9.14737600671887918224456,-0.0199782851878414213775415,0.0354814369942920218581328,0.164655916646760214216982,7.21477769466566343226077,-3.35708981671245476618992,4.63646703594653963875771,1095.37947789369104611978,1089.52451404026987802354,1103.55443364808388650999,1088.97631997205394327466,-136.136704713292999713303,95.3886817047044530681887,-377.275345109444799618359,-303.0041616454396375957,156.530271541587325145883
57.9675000000000011368684,-0.287792600489957917098138,0.603699808912790070181131,0.929397650274318420926534,0.0602540610949641036730995,0.0119063060106634581447604,0.00834259424543048674904888,-0.00153581580132484724239561,-0.00331097916189780931348063,0.859542370442643366423852,0.511051283742389950148777,-0.0477960242667628751322972,-0.0710343526099501132442526,9.13593880554127402149334,-0.0199318493958377217223354,0.0355595400041260334411675,0.162884202821070578348639,7.2147169961761150602797,-3.35717667217738302554153,4.63687903362952003050168,1095.20564989537183464563,1089.92704951312634875649,1102.5307048538193157583,1088.3360127287621708092,-8.46943857182711212772119,234.291087392997980032305,-501.867284500851269513078,-221.789384338600740420588,156.532148625703257494024
57.9699999999999988631316,-0.585900552896733151087005,0.358748137752923246246439,0.914170481441877402772889,0.0603943684704175212663024,0.0104739451328453754552772,0.0122774438570860729841305,-0.00151756006923002258537925,-0.00324102755121251839484642,0.859547562317602875658906,0.511042857482553403158931,-0.0462523582966251553538761,-0.071153413573402879421792,9.12538756921800064958461,-0.0198804126133782267660255,0.0356288523461245273948883,0.161076420018089749852663,7.21465879860456471561747,-3.3572631629767872851744,4.63728431783138272948008,1095.33713070083194907056,1090.69596947723380253592,1101.0450972255819124257,1087.86737305036194811692,93.3319041207573718565982,312.247424833025775114947,-587.085946692941206492833,-123.030568009863415568361,156.534289462156777972268
57.9725000000000036948222,-0.883014933787875988535632,0.238092407373855424745912,0.841995784958224025018581,0.060236515066734601375753,0.00833088245505822500014403,0.0154241781483850787237699,-0.00150057349178644126863613,-0.00317933034497064640963582,0.859554926858277390522289,0.511030604341330407791588,-0.0450504737258024257062772,-0.0711687699097886955490466,9.11573186462281981334854,-0.0198254097873818216357655,0.0356936646088111195207482,0.159239470304731067784587,7.21460340674050204512469,-3.35735000573925512767914,4.63768439656193898201764,1095.67230941597586024727,1091.4882866372922762821,1099.59527512035310792271,1087.72085988871253903199,161.080869737642757399954,324.599563156486908610532,-610.737597610165266814874,-15.4432347248451264931646,156.535984762429819738827
57.9750000000000014210855,-1.21487741994450892946134,0.204964233101293219485584,0.717947852558501242725697,0.0589479773117990921149634,0.00697347345515617663552765,0.0177760468287533474063267,-0.00148442086843127651028806,-0.00312568655552716758577736,0.859563450916379534483269,0.511016218015425405241103,-0.044187186987921379943689,-0.0710725819181422108217205,9.10696473605054634958833,-0.0197679985682997771956337,0.0357576764525455031984436,0.157380510971933174069193,7.21455009610540098918818,-3.35743693777004192924096,4.63807993915996252809464,1096.14253504952057483024,1092.31896729301706727711,1097.99140923752952403447,1087.79015687673768297827,208.983473670795291354807,344.244597749088143245899,-713.669414131357939368172,66.0288517779154346953874,156.537593382750770842904
57.9774999999999991473487,-1.60563235272628102023873,0.217772313703440745236151,0.536782935647035719384235,0.0551930196320865179560045,0.00738041410363530700489143,0.0195332081692061315658648,-0.00146828183595016292448121,-0.00308082694179523690000688,0.859573517617575721949663,0.510999047186473376314098,-0.0436390687140513766628658,-0.0708754001651737269851239,9.09906242325729230913112,-0.019708960349910674414442,0.0358240871701690291595277,0.155506820343313950649744,7.21449816633007845467773,-3.35752346350928121410107,4.63846949341105663222606,1096.71722678432888642419,1093.20950962603615153057,1096.02692804969956341665,1088.0510041476018159301,189.38464048482589419109,286.943456093639383652771,-702.31886849433522002073,112.836456865340124977592,156.539430123951831319573
57.9800000000000039790393,-1.8799145310114593332429,0.222460944272075217265083,0.382347628631087566031255,0.0503356023840314456552214,0.00942708756285384232020963,0.0202573643324034900758956,-0.00145357984402682237357052,-0.0030444166560785607122952,0.859584407837222563841806,0.510980309570805868446541,-0.0434225164931610618790359,-0.0705983293469659711760755,9.09198495823756047684583,-0.0196502002573408461605364,0.0358952699151494150631159,0.153625512124588858853258,7.2144462261400157387925,-3.35760892070535943432219,4.63885140664213047045905,1097.08945825194518874923,1093.75368457348599804391,1094.47981489505605168233,1088.35433916106467222562,101.559377588721758911561,154.594850596243333029634,-571.482774847371274518082,124.235652144834716636979,156.5408877634505131482
57.9825000000000017053026,-2.05136792843007587094917,0.173200308100788263887537,0.248648059502197760206599,0.0443452097887951854349176,0.0122867061832984819647052,0.0204761920210549397403099,-0.00144030697834543908869565,-0.00301660544929930815594155,0.859595733725592614504762,0.510960692052324860767953,-0.0435221904807771772794034,-0.0702619689015753223770844,9.08567729253215716767045,-0.0195932722529423425372741,0.0359728910259522888237527,0.151743326340388146045157,7.21439340633553971571246,-3.35769279882339777287825,4.63922487081728007751735,1097.22502367227275499317,1093.98248387901776368381,1093.16951417546124503133,1088.672182408326307268,-14.3182095295417806113392,13.0264342748551165129811,-497.155911127444710473355,128.717760326188653152713,156.542275810494317056509
57.9849999999999994315658,-2.10185707317212155942343,0.0374678016005692768319868,0.130853499164021835898808,0.0367934249275699773451542,0.0149085118886918555070054,0.0204331231274119499985442,-0.00142796979661615874163116,-0.00299815409992898853144827,0.859609416018891181465733,0.510937029659151997762478,-0.0439051894062884029423799,-0.0698958607782568103194976,9.08007126167228051372149,-0.0195391818042021450652079,0.0360578143914977444772774,0.149866143819800012870758,7.21433990288063142770625,-3.35777577413862493571628,4.63959016482270580894465,1097.01786720429754495854,1093.81881674486021438497,1091.99403533942108879273,1088.99792796269503014628,-141.084470061533124862763,-134.339392846617954546673,-356.578258802027846741112,103.724850611790003540591,156.543868077325697640845
57.9875000000000042632564,-2.00634059522153274102152,-0.119403667779313757413284,0.0748086981849177962144992,0.0306889585034786360751013,0.0155781702831661230529425,0.0202951808624949013581951,-0.00141558344939532692978446,-0.00298696263657983627701209,0.859626682719725421222279,0.510907387742183805023899,-0.044553732937175315187428,-0.0694825035010717406702696,9.07508847515008731932085,-0.0194891653924935299990739,0.0361507533605234521179028,0.147998162495913382352697,7.21428560836924415156091,-3.35785868170298584800548,4.63994846863458132446567,1096.51960132196472841315,1093.3107869147843302926,1091.38662288145019374497,1089.19080666138552260236,-257.183582155089709431195,-270.340852976094481618929,-169.376937723795634838098,60.5965648313175861972013,156.545138804640004082103
57.9900000000000019895197,-1.77920816060044106876603,-0.275372989978659776788561,0.0630731386100900209834563,0.0251415767023688944969972,0.014394265152607372756921,0.0201753818175192112249761,-0.00140367255480285655667994,-0.00297988969733518514401704,0.859646923667488627174293,0.510872986032361642294575,-0.0454800708968308015078819,-0.0690027876723442734618885,9.07064332249270499630711,-0.0194449614973099815795621,0.0362514280056400184371057,0.146141614344193870866917,7.21423000222641075396268,-3.35794218835954305646396,4.64030112083078716267437,1095.73194929352143844881,1092.46711247997905047669,1091.14715065080167732958,1089.30091078685177308216,-347.334498109373555507773,-378.097347396740701697126,-46.9298727920403777602587,36.4059134936145767369453,156.546356995465202999185
57.9924999999999997157829,-1.46545374166462938347877,-0.39454823523209131552747,0.0842889840595964640046489,0.020434618155807004330482,0.0119464190072458772973185,0.0201317719588101247396583,-0.00139411082536024656490514,-0.00297624695258224582217199,0.85966786362752423134026,0.510837897583021338654419,-0.0466922340725152845708479,-0.0684876140515309067557936,9.06664615553827246685614,-0.0194081719924359651086032,0.0363578768927197634730497,0.144296805477794443106632,7.21417241557117350225781,-3.35802701661400382349143,4.6406500711656821778206,1094.78292883141944003,1091.42030017780234629754,1091.15197351749020526768,1089.37283622885342992959,-394.171741020980562097975,-443.47248830404220143464,38.6279314715268569102591,33.0576716520967295309674,156.547535763742416747846
57.9950000000000045474735,-1.08841628783030852645197,-0.443549066645423872845555,0.136921920796619162041807,0.017083524502661404792514,0.0089700184711429507833369,0.0202306156361406197508046,-0.00138706323558320204596128,-0.00297236702854233826240349,0.859686628196865698647855,0.510807300063482738750054,-0.0481974143739974797417958,-0.0679037883863031488385076,9.06300709809470994571257,-0.0193801756807124303527701,0.0364686270109106855374925,0.142461674233407387113459,7.2141122102810433247555,-3.35811320093770460104565,4.64099815295705120377079,1093.76109058841552723607,1090.24975003845770515909,1091.3402903081594104151,1089.4661991451123412844,-434.873320569254588008334,-510.692795911211533166352,95.3210897542670636539697,66.8277793304354474912543,156.548671812509098799637
57.9975000000000022737368,-0.626304172997443453496658,-0.423644159444817480775214,0.222059085976278297591691,0.0150148172783603223862103,0.00637523310885384185409119,0.0205536546095646914522614,-0.00138349175609661233406211,-0.0029649437533198885058594,0.859701366898742325162175,0.510784714017643803884994,-0.0500107440671842679025261,-0.0672286797751482229079656,9.05963895814105235615443,-0.0193620314997121172051475,0.0365819431542983505845079,0.140632431443694361217212,7.21404978526935636296002,-3.35819990441832549876722,4.64134668077073442304936,1092.60856222857205466426,1088.86683619824498236994,1091.62857896626178444421,1089.70697512550577812362,-391.005679450282514153514,-482.585093414975347059226,99.7294224805498146224636,123.325536027799287808193,156.549991656065202505488
58,-0.279643169186167106499141,-0.364980196479101681727997,0.29860913571616559680777,0.0150471295153447367359822,0.00559736413161821422940223,0.0209967396325486943542415,-0.00138574616924721475026694,-0.00295517549834319222246126,0.859713131401232621975339,0.510768793948291333073541,-0.0521267285696196680522263,-0.0665197950137817600735346,9.0564595967183407765333,-0.0193537098216889809354502,0.0366952433836957095381059,0.138804545594311434797419,7.21398671042664130226285,-3.35828659566940945779834,4.64169482968868152283903,1091.80606219116589272744,1087.83682457138502286398,1091.83893742056170594878,1090.08282682525077689206,-273.220903211743689098512,-369.669773792902276454697,71.7770365197082185204636,194.683416653419669728464,156.551059519556844179533
58.0024999999999977262632,-0.0159661247687789276117343,-0.298523039633630804523534,0.363153585207874773921333,0.0162984247251286608337839,0.00604527695078478123635879,0.0216999261052078055989067,-0.00139333762273803033089614,-0.00293997110452592870163957,0.859722611643691791982747,0.510758853775154619825116,-0.0545353198685225304398472,-0.0657384303406753772724969,9.05339440423961860915369,-0.0193547704114210399051199,0.0368077759555301003979721,0.136972696833733420529455,7.21392351523004293767372,-3.35837385945620336968886,4.64204218028178861032984,1091.2424577125145788159,1087.01848732928215213178,1091.98746414885999911348,1090.68039220877199113602,-187.999679809394592666649,-303.803542769700584358361,63.5177648987467122765338,306.074204680296872993495,156.552098990821093593695
58.0050000000000025579538,0.183116214779471236928643,-0.236727276130435371204186,0.403416865167776639289343,0.0181736739240339825740556,0.00680388965731158670141587,0.0230959326262733313783748,-0.00140384468221797244734395,-0.00291529382013376841403796,0.85973172300629085995638,0.510752111153729870807183,-0.0572054255629820818107589,-0.0648105114532233628210633,9.05037717162050903141335,-0.0193639070413610635268409,0.0369197997605737807114146,0.135131693951717896107212,7.21386085424196110693629,-3.35846303219244379789643,4.64238924491979787489981,1090.86606379211843886878,1086.31780685753574289265,1092.15652624505560197576,1091.61319784865304427512,-93.0071703346563367631461,-212.630396926879626562368,79.5407706062681114644874,359.38113816282373136346,156.553319213814432941945
58.0075000000000002842171,0.256143266906367794710775,-0.202089860427227430150765,0.390038277172411518289863,0.0195707422764974971196583,0.00658877957395306596694029,0.0247544471946941901929762,-0.00141505376104597742348279,-0.00288503618093291632970554,0.859743027604447762612949,0.510744510187551958857455,-0.0600363697428217685247986,-0.0637848982105160555722279,9.04734995073593495362729,-0.0193785051513885551999206,0.0370302015788034691312625,0.133277839399903091921473,7.21379954143684543055315,-3.35855408941971944614124,4.64273447295819963187569,1090.77742186084105924238,1085.95533534464721014956,1092.38516800189154309919,1092.47729789958702895092,-2.3939801857999500889207,-109.880320798274510707415,135.941296273618661416549,330.664348693135877965688,156.554317742079007302891
58.0099999999999980104803,0.257149619148410002456018,-0.173796981597976657463178,0.316914482377304851379307,0.0204961872642447084924555,0.00537486512372992858432852,0.026579085355763341219637,-0.00142432162958866927009172,-0.00285503392657365101525713,0.859758025508405743231322,0.510733519337172703345118,-0.0629033782355770398897477,-0.0627347953872806340935853,9.04426307986746813583068,-0.0193959216873873033226694,0.0371378964914000422870011,0.131408947469910164507212,7.2137400497716841485385,-3.35864624446990944761637,4.64307536330201209295865,1090.85409389118945000519,1085.76840525354486999277,1092.83623272642307711067,1093.26651959211721987231,44.9448012703894335118093,-58.1043695746460002737876,232.671000677436609294091,275.994709595574704508181,156.555302554867694198037
58.0125000000000028421709,0.224467500845041550983083,-0.144519401623315196792063,0.196426193399957010887746,0.0209490561767850073937591,0.00405449681673388743347042,0.0280749381508904848059327,-0.00142981683686756243061022,-0.00282827548443599164143536,0.859777218006690047147345,0.510717840331865291503277,-0.0657209365762611852357367,-0.0616954396375168356847496,9.04107445798456765828632,-0.0194147149952987839449658,0.0372426352925870132737352,0.129524184844068246391657,7.21368231978425189510062,-3.35873931400652914192051,4.64340990453466773146829,1091.00214586719312137575,1085.66481349677383150265,1093.54852300527932129626,1093.85727144756560846872,60.3225784341394231091726,-39.7794102434796741363243,353.674334141988822466374,160.362651234581591097594,156.556280087446708648713
58.0150000000000005684342,0.183964753858340324121912,-0.119101758866405477155226,0.0353894633448579715162552,0.0209506172399356524471692,0.00331235696204186394822622,0.0287917649775025034919462,-0.00142672575899934969689831,-0.00280522173749070055648325,0.859798027130401099071833,0.510700731765174609222413,-0.0683805066210893819356187,-0.0606349313306167175818828,9.03774839525744688728537,-0.0194342860193814671865287,0.0373450575510427956738013,0.127623981491001736721103,7.21362478472605239687709,-3.35883262501815105238734,4.64373648423955032171762,1091.15570678336030141509,1085.56950820232736987236,1094.60460439713392588601,1094.06833284829053809517,49.6588983519810938105365,-65.2043419855228449932838,530.330328818518296429829,-15.8817365977628295325985,156.557253949084667965508
58.0174999999999982946974,0.162089322410800484863813,-0.112330572735829095631921,-0.171029146426207145914589,0.0205732450005589387331817,0.00337398135089100577668764,0.0285634977635101580673016,-0.0014124027281780513788656,-0.00278527760652959787898708,0.859817192568044896816559,0.510685674323743343805404,-0.0708165490879123643574999,-0.0595254606282295123387271,9.03425416507448630909494,-0.0194555824870739149656806,0.0374457168077493088298446,0.125709811305714708185022,7.21356626815300128185982,-3.35892470490614147848873,4.64405447616427657919758,1091.25044035895280103432,1085.33879178684651378717,1096.20017464936950091214,1093.77786276457686653885,7.41095751095220389714768,-120.288127144324192840941,615.04985241126996697858,-197.734163923031502463346,156.558425131460154489105
58.020000000000003126388,0.183697543039503474737728,-0.141306510364097831500274,-0.326451959025453486429313,0.0200594157617796121917397,0.00403752951222178298879006,0.0274806768159035520737721,-0.00138800620602907271404491,-0.00276774633420503969258308,0.859834013102560579255851,0.510670679656318182715324,-0.0730226114577361556934321,-0.0583736799073331993903402,9.03056483608214222158495,-0.0194806869734751343659074,0.0375449023366508927157525,0.123783752847061653823424,7.21350644090887094250775,-3.35901479090466992261099,4.64436403392118180022408,1091.19276157091508139274,1084.96806756660544124315,1097.67985365919184914674,1093.07966202867487481853,-63.1721417524335890902876,-197.251533611587575478552,582.435780298985605440976,-356.774795563250620489271,156.559408331359890098611
58.0225000000000008526513,0.253866168652615020739916,-0.213161292119486867058242,-0.436360655282245157859933,0.0198776728862982837719997,0.00466477806087965685133412,0.0256953078796875455935833,-0.00135259531149019350364238,-0.00274954792694570918087926,0.859846042874263472022278,0.510655204084301983513683,-0.0749805940172615092986774,-0.0571315136657820771270977,9.02665682430351168363813,-0.0195121127586522676022884,0.0376435808103605731855801,0.12184771053597201473373,7.21344450125917813210208,-3.35910245413070063236205,4.64466648668603188099269,1090.93457965019047151145,1084.35253411878807128232,1099.11235355086591880536,1091.99398878675970081531,-167.050807879574733760819,-326.741365540216747831437,570.804687405616959949839,-529.401446747423847227765,156.560405158437021100326
58.0249999999999985789145,0.38549877313401992307007,-0.33603176263009926216796,-0.497232555148261534672116,0.020531301657761222290155,0.00441641258129045130575996,0.0233574016950524945834822,-0.00130575636594570227387579,-0.00272661860264669826670048,0.859851975591462869275006,0.5106384116311407650457,-0.0766887734794850645103637,-0.0557425952063250393364591,9.02250946061522540730948,-0.0195525278347774660037128,0.0377428936794187222525387,0.119903103555355050602316,7.213379812570794413773,-3.35918795013338078447873,4.64496366957646955597738,1090.35750753151796743623,1083.33436073890584339097,1100.53387709621733847598,1090.43265479494016290118,-255.610048548311368676877,-409.609964810506085086672,442.933448205713716561149,-581.722098813063666966627,156.561623612348796541482
58.0275000000000034106051,0.521997141530081254501283,-0.44904157355638879556281,-0.487277120971515931291407,0.0217794661875735685863109,0.00338488326884176654596459,0.0217086826142554416285702,-0.00125107104371432065886838,-0.0026978834615712572221613,0.859854927704830407364511,0.510619352923405545041646,-0.0781794782910375241069545,-0.0542361007314556831104824,9.01810488733341308886793,-0.0196043573068844234619235,0.0378431042270231735025199,0.117950993732760411880633,7.21331334165319937312688,-3.3592720472400019460224,4.64525574810433283801103,1089.65652940744826082664,1082.30448429473449323268,1101.3270207918956202775,1089.08537829269289431977,-318.894092814044256556372,-430.763403655607987730036,214.200593057584683265304,-509.047737835602390532586,156.562661425882225785244
58.0300000000000011368684,0.671047014767022886871928,-0.546596271800692701248181,-0.423390528358581375023562,0.0235860568158424398210737,0.00198902373213716201355572,0.0205780697757083144705526,-0.00119376608601559977551609,-0.00265927338842174548066977,0.859857983881662568670379,0.510597104665367784726016,-0.0795385466867955248648769,-0.0526128730940021716033783,9.01342866670053766142701,-0.0196697557331646614986465,0.0379451935660488903767629,0.115991506364018615027334,7.21324643436213097658083,-3.3593558193598735961416,4.64554382665399767660119,1088.76303706744693045039,1081.18054372062670154264,1101.60488006150580986287,1087.88741610576084895001,-423.214087570452818454214,-496.432257065768169468356,-6.98971385145977297526088,-457.547384767856385678897,156.563726044582921304027
58.0324999999999988631316,0.852510159210724594025521,-0.618170398730203518589121,-0.300316900863359159679078,0.0259757958649798059713731,8.2142584086584627530922e-05,0.0197521997140309331364438,-0.00114102617217635114721386,-0.00260774302174157776232355,0.85986332915790730790917,0.510570869424338602549085,-0.08087417981691451263071,-0.050910975277868947275195,9.00847037260292538007889,-0.019749971922432274507031,0.0380500398616964510822847,0.114024240063593310101631,7.21318047575476484212231,-3.35944096867130381767197,4.64582955059208480008692,1087.54045896959792116832,1079.82232300940790992172,1101.29207222263835319609,1086.79764136885569314472,-460.382790982194876505673,-491.753222811097089106624,-222.085004232917583522067,-327.746252897637191381364,156.565037241699116066229
58.0350000000000036948222,1.00113901407807426302554,-0.622476930563483632496968,-0.169705363133972220168744,0.0279143225875972018912297,-0.00177366254310488795364886,0.0193899533087109714191154,-0.00109560899970654419474658,-0.00254830338497966579422438,0.859871684964394811245825,0.510541168535961209506979,-0.0821546100824261660289238,-0.0492559606758284779237655,9.00322473461830696805919,-0.0198434457997811418417111,0.0381577504112543750003361,0.112049078765719845041104,7.21311643084019493699088,-3.35952785289540312163581,4.64611194926247517145157,1086.46112311253477855644,1078.72177760656995815225,1100.49445504034065379528,1086.24868484127182455268,-427.521222836557626578724,-432.564653047808576502575,-423.501670774032163535594,-144.834230303621126267899,156.566158955713490286143
58.0375000000000014210855,1.14081009589083293143119,-0.553359447222985578740406,-0.0192227287831296875242337,0.0299453198435057424409145,-0.00401421776144076508652248,0.019249994438013614400651,-0.00105900207943179346797846,-0.00248822232894605225791973,0.859883199465165337649353,0.510508648825628519318798,-0.0833117743202807098379381,-0.0477997049611798147106256,8.99769248265897303440397,-0.0199473516684796868536633,0.0382684432081902628497438,0.110065988455205279739069,7.21305441890619647438143,-3.35961579344405736335943,4.64638862378186967561078,1085.40285285541403936804,1077.65949974416776058206,1099.17456386876710894285,1086.0734702173372170364,-407.383940571851212553156,-420.362751462899154830666,-604.690856085476070802542,-19.6090658051794974880977,156.567310900889651748003
58.0399999999999991473487,1.26363270748801670428918,-0.418699983740791037423179,0.142787988687889222383376,0.0323852317369957357073851,-0.00648264132974587636154551,0.0192635072831234543944134,-0.00103207399144630927040334,-0.00243233065236178646120746,0.859899708370887139174954,0.510470517103750243137483,-0.084295475176927370242197,-0.0466530559006926096032863,8.99188116536043580140358,-0.0200582470655291771055584,0.0383830505410153316470101,0.108074681121053770005425,7.2129947171430721652996,-3.35970467605323097615155,4.64665860411066145019277,1084.42420340967737502069,1076.61996384925737402227,1097.47100075991602352588,1086.15063951224601623835,-358.929005091202384392091,-409.933416891198646681005,-755.313950896038591054094,67.5506180542124639032409,156.568487133729234983548
58.0425000000000039790393,1.34775904747272856631923,-0.215578788658217584961463,0.312395503111541072982504,0.0357127755720982043019518,-0.00862628768212424928973903,0.0195141015472648227113694,-0.00101472278675609822382042,-0.002382235057813050695813,0.859921324029566669366886,0.510426488059139482622584,-0.0850760707352164746719581,-0.0458701480324145705047556,8.98580595769408319029026,-0.0201728702098057550984311,0.0385029396539372237295851,0.106074379218418501924504,7.21293665889254320688906,-3.35979461779851096281391,4.64692222665913945434113,1083.60820782995710942487,1075.60983265971071887179,1095.39799411428498387977,1086.41122330760845215991,-307.947999870272496991674,-429.750603485679903315031,-964.020287790260908877826,120.474036979096339905482,156.569690779672015423785
58.0450000000000017053026,1.37898206316033400398169,0.0674345203205105186983204,0.512195782486080775086634,0.0406508712805941849199876,-0.00954251107809574172780032,0.0202629881528876946983342,-0.00100455991118482803117762,-0.00233705041332171216394986,0.859947356492522851922899,0.510377404506413001605836,-0.0856177489139791358940812,-0.0454467197839078657084499,8.97949052167379591082863,-0.0202879227319911203952785,0.0386297055789268581338369,0.104063649794509105461771,7.21287933235441247603603,-3.35988579189374458877637,4.64718038094481222799459,1082.88446341032522468595,1074.47121083182787515398,1092.65089932096225311398,1086.75300969714180610026,-215.908379327916833290146,-394.575972837169103968336,-1020.17524313989281381509,104.788337657241555689325,156.57116391992281023704
58.0474999999999994315658,1.33621706972194242979413,0.292907188627195835817218,0.661722861478306279003903,0.044809997673562758369048,-0.00848978248544456082225196,0.0214329047838671543635414,-0.000995091130472988997721084,-0.00229443663135019864166009,0.859977766012972710818474,0.510322920103227772870014,-0.0858409573838413986202056,-0.0453182063807669871513539,8.97296785753960612908031,-0.0203996483647390682014677,0.038765095121579482007057,0.102040333527016177650459,7.21282296505876274750335,-3.35997798507290612590737,4.64743289390017011442069,1082.52866593331850708637,1073.63695279552666761447,1090.29711789859015880211,1086.9351649958941834484,-85.7923475296063173800576,-294.778504142445115121518,-915.502708665903810469899,26.920668260968209750672,156.572413414536100617624
58.0500000000000042632564,1.22422673696689709998964,0.456852544481227695882808,0.772290834088479205554734,0.0482138063648459777588151,-0.00603380129650536722873966,0.0233349447416988861614406,-0.000982184403767517562669487,-0.00224892693087344695129781,0.86001155226051750890548,0.510264295524626598776763,-0.085737453106354694076785,-0.0453920332421191702332308,8.96628057369882469629374,-0.0205056009286553805881503,0.0389103497743801540753594,0.100001344453831700342938,7.21276769211686019644958,-3.36007124829222325601563,4.64768094083766758473075,1082.4555016726769736124,1072.99731831111489555042,1088.07338577763039211277,1086.88761303844671601837,36.044360408986655386343,-221.165068837649954502922,-906.053736099138745885284,-94.1405004038615942363322,156.573683249799955774506
58.0525000000000019895197,1.02556516874026559804634,0.54663258177935936110714,0.83488097583574516491467,0.0512320033713645761608291,-0.00244742031311530328085979,0.0263878276670852750240837,-0.000964617814854719585540566,-0.00219645111986323249286812,0.860046550583539071155315,0.51020477291778321138338,-0.0853365879172410107811331,-0.0456207863602838409322615,8.95948126687287427216688,-0.0206044275820239826402247,0.03906523822021479991351,0.0979430869584853452947115,7.21271329490826218489019,-3.36016589563138756702187,4.64792614354331234949314,1082.70888773536353255622,1072.53112745133785210783,1085.76684921809214756649,1086.46446249387463467428,149.897964723277169696303,-113.725110444387354391438,-761.999562716857326449826,-224.867990116967916947033,156.5752279775943804907
58.0549999999999997157829,0.819189642488084790450387,0.52961168097360034057175,0.815971921556948420750643,0.0529773622109145359004856,0.000285058237079927393169826,0.0292352475904668444861567,-0.000938419750126469960800624,-0.00213822797449936437275131,0.860079691002024304680162,0.510149162964079749826851,-0.0845816652876322655485453,-0.0460085198048581917040778,8.95263279693283919868918,-0.0206946715323090869864675,0.0392279521521662968841504,0.0958619821059137761087854,7.2126590256672411527461,-3.36026125585243296001181,4.64816820796942664628659,1083.20499149629267776618,1072.42869275889347591146,1084.26338796404957065533,1085.76327308786289904674,254.485976428310863184379,20.717427788338998340123,-499.811534291228667825635,-354.469526432285988448712,156.576530897695647581713
58.0575000000000045474735,0.580112836753807981082787,0.440985802048895147997598,0.720741978480710310250856,0.0544114530856693173754834,0.00187056109298978315985673,0.03194200382342322896978,-0.000899908017651705987964561,-0.00207268637331153426223151,0.860108030083607255633638,0.510102150620032834815731,-0.0834498166739490315757521,-0.0465122098547639944987608,8.94580746901620749156336,-0.020776106140317558701458,0.0393962294954768449395388,0.0937540916131734125560371,7.21260329749122952591733,-3.36035639330077007258524,4.64840753540979534363942,1083.9813176175057378714,1072.63471459027960008825,1083.26779154663472581888,1084.69211486171229807951,396.157784834465189760522,157.34097257446728690411,-321.798756810693703300785,-544.758473719360722498095,156.577848033550026229932
58.0600000000000022737368,0.259476061498421173290296,0.298959344210267319308372,0.533699567562631482786628,0.0560278590322378922117252,0.00225358967663454989177607,0.0345577519646636244221583,-0.000850156805363771680972285,-0.00199786650522744326646807,0.860129862076097095879845,0.510066400307824019400016,-0.0819976909503246642607621,-0.047117983894864372274025,8.93908577040438778738007,-0.0208499517464873738992193,0.0395666697553601551251568,0.0916157116586256009549416,7.21254442930237615883016,-3.36045096660997355542122,4.64864469846092731586396,1085.18578042046601694892,1073.21539762176621479739,1082.65439417999527904612,1083.03948071926470220205,473.58924604734380636728,260.88992757569110381155,-139.060820127077988672681,-648.267276265413102009916,156.57944281349628568023
58.0625,-0.0318534944533142572176132,0.184120137304614184259322,0.339452163649718141602563,0.0567720913944369520720556,0.00183438761609581156043769,0.035811810206729036143436,-0.000795810135743271643109231,-0.00191781995730468612058883,0.860145660223990748960432,0.510040930643849033110371,-0.0803145428827044538522273,-0.047945528232357779996331,8.93255474484832490134067,-0.0209179324824823077710878,0.0397340173456137493723794,0.0894443700374683986487057,7.21248226747217913157328,-3.36054497284773212584241,4.64887843282113699672209,1086.34926384774030339031,1073.93916422815686928516,1082.57248744599996825855,1081.45077848038818046916,474.806453528594659019291,326.72550295103678763553,36.0738670706596806780908,-647.18759846750549513672,156.580782070330826627469
58.0649999999999977262632,-0.336752094567588089457644,0.0991348291059988423468141,0.139036411863006664768605,0.0566849563861981167733894,0.00122623477790968532681604,0.0358195226969241567460678,-0.000744641305186082556356875,-0.00183476615769986015937187,0.860155599726171837815514,0.510025324389333567509652,-0.078524934735754503556393,-0.0490862585827361586066075,8.92630592043418857883808,-0.0209823153454805136353123,0.0398930334585000864744408,0.0872384927220262451630362,7.21241658164605503600342,-3.36063823844682074692969,4.64910797650575169370768,1087.55981268810683104675,1074.8490251365199128486,1082.83476351534841342072,1079.8035427269301180786,470.05659604254611849683,384.476019201414374037995,145.608423695483082838109,-641.349416986021651609917,156.582129957930902719454
58.0675000000000025579538,-0.639176616189964352798825,0.0461916831827419438472049,-0.0430730732909999081137187,0.0560172517673582226471751,0.000709700783774147429296131,0.0349544194287417439581667,-0.000697728183812703663113641,-0.00174891867170357440293416,0.860160000111783396015142,0.510018977736196754690923,-0.0766697979420073311151995,-0.0505293160126196808090704,8.92043299191835359351899,-0.0210442931264751553754877,0.0400395766727753704694592,0.0849976078553902891776772,7.21234749381431061721059,-3.36073052014057704894867,4.64933259791851494213688,1088.69954682795423650532,1075.86154432416492454649,1083.30052956447775613924,1078.24403139545643171004,411.078590442929225901025,418.356344512189650686196,218.429705473433500628744,-573.139472983373366332671,156.583483252054037393464
58.0700000000000002842171,-0.915625186371299637499988,0.0282837089957103833548491,-0.186450407231872838931253,0.0542034416148872780216728,0.00045020788648093330473407,0.0335987746723748828547862,-0.000658357083036662871569633,-0.00166655066773164161307574,0.860161924617856676889005,0.510016661813343485931682,-0.0747698634369111936326391,-0.052366716071446800517819,8.91502847475576842839473,-0.0211038764904168708869125,0.0401691526422710068477961,0.0827232523058134550097975,7.21227661177245416013193,-3.36082254971804506027411,4.64955082999431024148862,1089.61520564032252877951,1076.94080685908193117939,1083.92691204271613969468,1076.93784536201178525516,319.796820568326268130477,478.142837468411130430468,297.093240642377224958182,-491.540777946367200001987,156.584840639152446328808
58.0724999999999980104803,-1.18302147623700992795648,0.032992387893380908936436,-0.312445615754566918820245,0.0502574553136088467142351,0.000509832764271707329292727,0.0320960352788500907772473,-0.000626774986456501309074751,-0.0015947109876679925813403,0.8601646290965175856158,0.510012849182084559984673,-0.0727936139774463530915938,-0.0546653859521957635747569,8.9101807664588328350419,-0.0211597515618718104435381,0.0402782667603021338198488,0.0804184613845806139931227,7.21220565421832660035761,-3.36091547561395787013794,4.6497618218810279344666,1090.2985309307944135071,1078.25225851150480593788,1084.78599576768829138018,1075.78632750572683107748,165.311416676701810501982,475.797763236489458904543,325.691291218542403385072,-348.245816413104080311314,156.586470700479793549675
58.0750000000000028421709,-1.33232365108104389150867,0.0457588676261533877642762,-0.390222659770952606805849,0.0460327616796580643687697,0.00086670217469008489080684,0.0311569502938100935385268,-0.00060253105449779918549591,-0.00153781831635644650538297,0.860170700683580924383875,0.510003167818815161815849,-0.0707244777194780543938535,-0.0574376054438321403949885,8.90597109229021377529989,-0.0212100276683330930815874,0.0403647261744056393140134,0.0780872979440091208314101,7.21213584010282904301903,-3.36101035752590737715195,4.64996489915507194012889,1090.44176272370646074705,1079.31979567526559549151,1085.5553684988096847519,1075.19661627994537411723,-38.7488081858266042445393,411.835143662136317743716,313.106762101118761165708,-168.789170263885409895011,156.587827210513665932012
58.0775000000000005684342,-1.39858919724807773121711,0.054367673055020715455754,-0.459388925726641417224272,0.0416830521134815210060331,0.00146665004680087990990289,0.0304932059027994521727134,-0.00058335590381141408464899,-0.00149608125494756719758849,0.860181189100202137076678,0.509985863964857122354601,-0.0685580621925756666934504,-0.0606082930531781360894428,8.90247093623607987922242,-0.0212525344262319559884844,0.0404278169850342955493616,0.0757344175391949092635002,7.21206703416093297676071,-3.36110762085225500683805,4.65015973847589325629315,1090.10478688986518136517,1080.31143422981654111936,1086.35152957819468610978,1074.94238165440697230224,-251.52574493877321515356,405.555792433283897935326,350.011882964281539898366,-57.6226520499927801211015,156.589177995566899426194
58.0799999999999982946974,-1.39856382280728341882536,0.0523487514526473352027836,-0.552609419649874311630811,0.0371398304039274457233333,0.00222327821859136937066026,0.029749350438637526400365,-0.000566836164555479951956962,-0.00146822762690114374389827,0.860196425569067724126171,0.509960406229255203136574,-0.0663028688610846073103744,-0.0640737427052483765610447,8.8997397276569785162792,-0.021285023812123014808062,0.0404677842089233089084566,0.0733649766912345818736796,7.21199955952407911752289,-3.36120676888566949358506,4.65034638656346555052323,1089.18413399901373850298,1081.34757463743017069646,1087.30542791362950083567,1074.90850301969567226479,-407.617124821145523583255,344.72017825465275109309,343.045384676685955582798,14.6882004259548359925702,156.590787484407371721318
58.082500000000003126388,-1.35503937661874718223487,0.0418585992154430833189771,-0.646860964708800723066418,0.0343452356102551953354052,0.0026011123676992578025724,0.0289275750137863683908446,-0.00055065720141204250407535,-0.00145198118461504458061306,0.860216381251605710644981,0.509926875370799392861443,-0.0639792950176514829685459,-0.0677128202442142390626856,8.89782307627969792918066,-0.0213054554417110887654108,0.0404857158042395276487113,0.0709843232642552168787375,7.21193437291482375428586,-3.36130740443911513182229,4.65052549231037204435779,1088.06670126575841095473,1082.03503512109068651625,1088.06675650157899326587,1075.01582265653678405215,-491.634994418403437066445,230.305923849000862446701,287.104000450916373665677,55.3705183012142256870902,156.592115429250526403848
58.0850000000000008526513,-1.2930027303556348439173,0.0304805937171389630668816,-0.757965922907738454128435,0.0323166600263705416917759,0.00258485658995319693073678,0.0276362909050401894806015,-0.000533808975221336718709753,-0.00144244899314457334510431,0.860239211140628068363867,0.509888420308808876235673,-0.0616519362207399723718737,-0.0713748744999456452564601,8.89675160929783537255844,-0.0213128188690614069067397,0.0404833779646707261901106,0.0685975645837109959668254,7.21187139234478191696098,-3.36140892430382764999308,4.65069823941767523933777,1086.72595902692046365701,1082.49910425667576419073,1088.74094791588481712097,1075.18535561120188503992,-604.403907723785209782363,150.404484227010840413641,262.86293143399495875201,81.7566524475130336213624,156.593425231235954697695
58.0874999999999985789145,-1.21112807115064402552207,0.0270552823911984902105488,-0.899933587703963477899549,0.0297608946330784086831134,0.00218553063902128617140841,0.0254390098190272161138292,-0.000516047782363389731519199,-0.00143319453127335109769713,0.860262876518769425970845,0.509848518328766875384872,-0.0594106903873195743570612,-0.0748927003447184685969162,8.89654031781962295610811,-0.0213069933748521282701471,0.040463020897094505168301,0.0662095099983791984810111,7.2118101341689309080607,-3.36151085585395081878346,4.65086549519728098545102,1085.04468172714223328512,1082.78705754222505674988,1089.38107115874777264253,1075.4246059187739774643,-603.318960632087168960425,64.1049033859544010738318,198.677143138400651878328,94.3591583551523598316635,156.594971521960246718663
58.0900000000000034106051,-1.13284816268069388200956,0.0373940790650984303256088,-1.01375988716400189382227,0.0270558610179964242892225,0.00178316198367475982344832,0.0231843307538200753270541,-0.000499453541582092611951504,-0.00141952594743763836626638,0.860286702593627494728423,0.509808333502431043626757,-0.0573638410299616360865649,-0.0781482961999974135025582,8.89718812017151883253518,-0.0212886542174798368276534,0.040426813260697434804225,0.06382497078559179470858,7.21175039842573628590117,-3.36161289394974094335566,4.65102724203537931657593,1083.70936422375848451338,1082.81962877360570018936,1089.73433363157732856052,1075.65715140297788821044,-497.691638530222974168282,-22.7427750936269212900243,101.294791470848409176142,103.528814057282730232146,156.596235977967381813869
58.0925000000000011368684,-1.03137106287051061315196,0.0595905028319114737911377,-1.1077203293567869923919,0.0241719114325667505660533,0.0016468751142848254281903,0.0206744354361302097589093,-0.000485801412484838555320282,-0.00140362250117821371619975,0.860309447479090660948486,0.509769961394634041340623,-0.055550059805793867984125,-0.0811286560188488048428468,8.8986777359851600976981,-0.0212591051090857963146163,0.0403761715759502134992509,0.0614492645643050228176918,7.21169189653987530164159,-3.36171389595404024319691,4.65118247327952261116479,1082.55622353448984540591,1082.67334366675686396775,1089.88754511610227382334,1075.94224998906065593474,-421.758785554285850594169,-82.803591844852050485315,32.6628449857095475294955,124.781035886621594954704,156.597472400184301477566
58.0949999999999988631316,-0.902084713225709933226426,0.085506106334687290160268,-1.17356069850453992309269,0.0214949932154418626994996,0.00181870589365236336870657,0.0179663263589258971608675,-0.000475009456541230525288694,-0.00138835303115961128904432,0.860329427970873528153106,0.509736240284830999236476,-0.0539695517749601907930845,-0.0838180634118152467770813,8.90097676000292636899758,-0.0212205938343320611727538,0.0403124255362065780916581,0.0590876197664610691706599,7.21163381682634874181304,-3.36181257489161477991502,4.65133016960571499254229,1081.60057029598897315736,1082.40561081438181645353,1089.89764785650572775921,1076.28105658241042874579,-333.590886381455106857175,-132.690071072488876779971,-18.9848419377897883464357,148.159248844801055611242,156.598683670861646533012
58.0975000000000036948222,-0.733922518721379590900256,0.106588730417709373621271,-1.19119278808348605380729,0.0191467839101133775747687,0.00225908462938338673239858,0.0149738981919633647177381,-0.00046655470397057513054842,-0.00137531040639373943780532,0.860345845543794895959877,0.509708518853398517833853,-0.0526227320433916012643039,-0.0861816917690049200118096,8.90403900028183592496589,-0.0211762453602572578437169,0.0402368271265273816372776,0.0567448340400063672150921,7.21157520509560612254063,-3.36190844627100426933453,4.65146955433694042625348,1080.88826910258171665191,1082.00989331139408022864,1089.79262090641327631602,1076.68304623328504021629,-266.25451175614239218703,-202.508343587111170336357,-55.9911638025082609715355,187.57962761469070755993,156.599862709685140771398
58.1000000000000014210855,-0.487860524929779604264013,0.116574113322323535957281,-1.13993682692470255091166,0.0169185085129684234517278,0.00282898819548146060812166,0.0111964235529823305514974,-0.000459580746840265535156644,-0.00136234133031345994689632,0.860357372741532233639816,0.509689049072361233250206,-0.0515335105217130037824624,-0.088129369182058964193871,8.90780640447589711072851,-0.0211300894978469905316487,0.0401504845095732518234222,0.054424745581505215574758,7.21151449510288511390854,-3.36200098986831319436419,4.65160047788007613434047,1080.26929773720758021227,1081.3930690964457426162,1089.61769203749304324447,1077.21895472048436204204,-198.629152457168515866215,-248.994777238566712185275,-62.0124047008739722741666,200.831228001289531448492,156.601238340039856211661
58.1024999999999991473487,-0.252156138283845976388875,0.107944193027617083013858,-1.02839962872535650717509,0.0157446011659289862583133,0.00333078039932861160940525,0.0080601587596356369380679,-0.000454408418025826360293201,-0.0013462973435190586733029,0.860362841710633929892538,0.509679815255101420490291,-0.0507474296265103957948028,-0.0895720110983743711408067,8.91221084011944242320169,-0.0210864025942041170835761,0.0400540037549396640836896,0.0521301112197407184867259,7.21145045201584888872048,-3.36209009986091711397194,4.65172331840179875683816,1079.89512334029677731451,1080.76491942520237898862,1089.48255888290918846906,1077.6872023732905745419,-134.572460972298642900569,-270.18225506931048585102,-44.092056339400365061465,185.393697533750781758499,156.602350939185299694145
58.1050000000000039790393,0.00240532144530999913989433,0.0803689762242817129500594,-0.842823001197909649206963,0.0153328927721701133157772,0.00381208645727212523321437,0.00511356392847034726956146,-0.000450537679547773398623656,-0.00132646251858808527507305,0.860362957899993063826116,0.509679632435075413710024,-0.0502705345150871452108987,-0.0904567845336224640728773,8.91717609048064829835312,-0.021048442881039939461596,0.0399475807407847910424081,0.0498625398635124394974838,7.21138330676231920079999,-3.36217723304777571513569,4.65183937287342796906842,1079.59643543234574281087,1080.04215782109849897097,1089.3972317557959286205,1078.14592320815359016706,-129.035936868538016142338,-327.587273746772325466736,-22.1215718154667726480511,192.25267529767901919513,156.603427464200365193392
58.1075000000000017053026,0.310484875834817541928601,0.028909278015112373216855,-0.544838733622051485383508,0.0159810890061891260061078,0.00399405694884129996991007,0.0022709678355885241918255,-0.000442697767270821022564387,-0.00130042726427164303040773,0.860357745969030140997802,0.509688473394331542642988,-0.0500465941515884915613555,-0.0906686714985488195761576,8.92262074465758203700716,-0.0210182127481789438050441,0.0398316322611096673700359,0.04762186608665977538557,7.21131317511662039976272,-3.36226423041416211390242,4.65195136376775231212832,1079.24994365595375711564,1079.12698305646767948929,1089.37195102383179801109,1078.64846574977946147555,-133.703903251156333453764,-330.932717083061049834214,4.35146068657954998570858,171.63614062307863150636,156.604676452022147259413
58.1099999999999994315658,0.555597180943162238797584,-0.0247805316950163896649872,-0.251434365380209301488179,0.0173889163870656442145712,0.00389807280740572239738362,0.00087066865001053173403478,-0.000426349755428189803891509,-0.00126396666915366720322644,0.860348082520185353239128,0.509704876222913938477177,-0.0500438946799386802366527,-0.0900795160570932729182658,8.92846031615928481528499,-0.0209963720617547151825466,0.0397069683141016427363468,0.0454062295880212352106042,7.2112408903060440934496,-3.36235270126163632298244,4.65206242981746598275095,1078.92791591609056922607,1078.38749423568469865131,1089.41898905922880658181,1079.00410391126820286445,-141.336065032665374019416,-274.318362923709798906202,32.5138200138387318816058,125.938447548677828535801,156.605680734882611204739
58.1125000000000042632564,0.777036201419955885327795,-0.0850799481787308659042068,0.058372993904130365816485,0.0192961070551193603073159,0.00394301523883957942551159,0.000659820283519639062298767,-0.00040165091942987699198675,-0.0012192646643635134898892,0.860338184192870114586071,0.509721713026942357949167,-0.0502429802714364839855143,-0.0887117512897465654297946,8.93460827470722307452888,-0.0209816678460672152717326,0.0395746091668505231564446,0.043213290605835438795701,7.21116876196576139790295,-3.36244401978753737481043,4.65217328520049200335507,1078.5432633307900687214,1077.75539124184842876275,1089.53452012390107483952,1079.27815798752317277831,-181.732306812907864923545,-235.89521638502202449672,64.4492881406802098354092,103.797624238215220771053,156.606646073163091159586
