t,ang acc x,ang acc y,ang acc z,ang vel x,ang vel y,ang vel z,quat x,quat y,quat z,quat w,acc x,acc y,acc z,vel x,vel y,vel z,pos x,pos y,pos z,mot 1,mot 2,mot 3,mot 4,dmot 1,dmot 2,dmot 3,dmot 4,vbat
24.8775000000000012789769,-1.72279773604758768001943,-0.118084924077259845187626,-0.600191713100447943318727,-0.0219838310361741562370952,0.0242070830775326442663165,-0.138410137229617091758627,-0.0264775680598735019266599,0.0153082626254678055843783,0.992924496087309260694553,0.114738840936790417734947,-0.157872574691518718914551,-0.0834069020036163621956149,9.75472002990604813987829,-0.0366857052888326651274298,0.0260313898629906080584018,0.0105494252136952380155543,3.58497152433800003734632,4.93460460269683309775246,2.04454756799526382593513,1129.4535111467973820254,1141.54383811980551399756,1130.33301184200922762102,1136.60902573106022828142,-458.192656911387757645571,160.895156626143204903201,-173.92504688731426654158,411.321240264842344913632,151.665043883505177291227
24.8799999999999990052402,-1.46330008773160602508767,-0.385611215233956028392015,-0.654028823506148992983356,-0.0280811775291385928854382,0.0232880352298305247360499,-0.142091154068968994472755,-0.0265104480197767729265923,0.0152311665364990213994423,0.992901715602178436270719,0.114938650883883691777854,-0.161069978837596106124863,-0.0846717278429736930345229,9.75315494434493146513887,-0.0359360626431459162510862,0.0254037712232527655709102,0.010459985243157769729816,3.58503886088209000604365,4.93452024037581349347192,2.0445813443039870804796,1128.0506537441970067448,1142.03295067341900903557,1129.87267018326178913412,1137.5108489887745690794,-561.887771257554845760751,176.298041158214402912563,-144.528425947402524798235,238.708224294716472968503,151.665117288420475460953
24.8825000000000002842171,-1.22484219681570238869028,-0.577908311111423489414562,-0.611450915935213834551121,-0.0321453741679399232489267,0.0225132107896014420356234,-0.144914021041352536478541,-0.0265377772293953588522708,0.0151518108378887843279426,0.992879697655140502909887,0.115133096423479991399219,-0.163784092903830946763577,-0.085890692749932120997336,9.75160692880016100048124,-0.0351980572849637657339983,0.0247741901223342067539512,0.0103569759140560452986835,3.58510228839166567027519,4.93443751647582118380342,2.04461373896656839477259,1126.6440722905101665674,1142.42532832559641065018,1129.61036971227235881088,1137.80256685253357318288,-591.281462674503359266964,137.644037087532126406586,-57.3328474867755630839383,17.6292858841316792961607,151.665142163085164384029
24.885000000000001563194,-0.984021061916076522635421,-0.736529801987732990475877,-0.499236765874626786665402,-0.0344043346500922803121725,0.0214513859122354988429038,-0.147126984106995983836441,-0.0265631530798200905796325,0.0150700383876579829811604,0.992858398375705553107196,0.115321744058885372608003,-0.166060126999662216462639,-0.0870753379634990193336463,9.75011932679593762429704,-0.034469783656488096890147,0.0241416997077285901129873,0.010241008364960226331708,3.58516390678796215141233,4.93435692567391637197716,2.04464576150725374503736,1125.09424643082297734509,1142.72117085885702181258,1129.58600594582776466268,1137.59899541819527257758,-622.017349156554814726405,100.790512382329367824241,41.4400321375606495166721,-156.431204203121723139702,151.665135622198476994527
24.8874999999999992894573,-0.760665210227141286303265,-0.860410669244705217373337,-0.359223031785838198270966,-0.0352122623040211982226033,0.0196964166238515446527568,-0.148365877358975301048005,-0.0265870730915672981442555,0.0149904736415884375783092,0.992837610349629140493732,0.115505674510255909592793,-0.167902836447453351897963,-0.0881372395671023156626944,9.7487348604820471820176,-0.033748340361225447059379,0.0235059661435353048353214,0.0101126983298329906069135,3.58522619783165374940381,4.93427849872528945240902,2.04467822082048877874172,1123.5339855447280115186,1142.92928088750795723172,1129.81756987296012084698,1137.02041083151812017604,-597.988043862306540177087,71.6870259045805937603291,157.936612385705814176617,-298.910743609681389898469,151.665107780680131099871
24.8900000000000005684342,-0.569648690629135923124693,-0.929450602013709881177306,-0.229944571157711524778122,-0.0354299382413058375207449,0.0166720494781747372026182,-0.148122340888322906460317,-0.0266049582445465788993477,0.0149203307429641232606521,0.992817220405846301289898,0.115685981245674598949513,-0.169234396837608491726002,-0.0889269719896787352864109,9.7474953266706094723304,-0.0330298326795031294000893,0.0228672826166661027902371,0.00997297638496557302401069,3.58529051562054190682716,4.93420162615468083089354,2.04471150027520920389179,1122.10430621151203922636,1143.07960598837985344289,1130.37568900775613656151,1136.10444170014716291917,-566.897942857741441002872,72.6439754698814255107209,311.335917860719632699329,-435.858310746111612843379,151.665059942534071524278
24.8925000000000018474111,-0.366737150987396898216275,-0.9406072830801545103796,-0.135699106683135450879263,-0.0366083133217413106419436,0.0122152821194580658847872,-0.146760783902108810083931,-0.0266142851853373510473411,0.0148596702104449342185521,0.992796949655047611393854,0.115865620185991016755089,-0.170010293483189967034264,-0.0894395664570844101115554,9.74643723853057331041327,-0.0323099913961801543660357,0.0222261354408440532648417,0.00982328265377303312677615,3.58535664000427667374993,4.93412632970891351646969,2.04474458780297574378437,1120.69949583043785423797,1143.2925007648575501662,1131.37424946226451538678,1134.84111927778644712816,-447.694448099580711186718,97.2821445714282901917613,406.174462653633668196562,-452.925133604957466104679,151.664986477011183296781
24.8949999999999995736744,-0.201221526514044818378935,-0.900862334009133625123411,-0.125623293367049554403181,-0.0383132540239113708602225,0.00902841965184405376154686,-0.145393804133302939618488,-0.0266137111827418476606155,0.0148062731556657008191724,0.992776754785791193391731,0.116045556860707943513944,-0.170214052483666333781542,-0.089719159154952821122464,9.7455908492921405894549,-0.0315844734253184142303006,0.0215835093148617658542765,0.00966542607108550333450125,3.58542387681713181635246,4.93405289672748814666647,2.04477702833282570793472,1119.86583397101458103862,1143.56601671123689811793,1132.40656132102390074579,1133.83981603212282607274,-256.297304695959667242278,138.084762275029987677044,433.594525973235136007133,-350.010243130169840242161,151.664916777423513849499
24.8975000000000008526513,-0.0249542418056227961742355,-0.843663076929230038025764,-0.180527635406175335219814,-0.039591213368450138554433,0.00733981543708353730004479,-0.144547610445982965821088,-0.0266021474512659894529065,0.0147578463373160290866837,0.992756635880241544711566,0.116226348549682167998753,-0.169843090791729545152577,-0.0898147352337110016495814,9.74497953114769188687205,-0.0308493598507106649153631,0.0209407552521782974741527,0.00950152005738536149792584,3.5854916222986266127748,4.9339816381236030196078,2.04480847415397049005037,1119.41800930695831084449,1143.98292457623256268562,1133.54222209213025962526,1133.09106806213594609289,-113.358336642874050426144,212.12933781519558351647,503.137995321792004688177,-240.018447390107212413568,151.664843837328277231791
24.9000000000000021316282,0.194576530123847402098392,-0.799712448149383248185984,-0.284128323125757087375121,-0.0399018324016649494900832,0.00671248609203468297318418,-0.144858637039142673641479,-0.0265814853110999636809364,0.0147138031928961895977714,0.992736417399199932987131,0.116409161715618020283003,-0.168964043518726458881218,-0.0897522780789817564706112,9.74461765704390714404326,-0.0301015869317819463601982,0.0202994624389562193511605,0.00933369012346615609110323,3.58555930389241694911107,4.93391262099199412460848,2.04483870989812777096972,1119.299042287799920814,1144.62666340031341860595,1134.92225129763414770423,1132.63972379517167610175,14.2720846003641064214662,247.404571568589858543419,501.07823144972792306362,-78.7285318098540471964952,151.664758644128426112729
24.9024999999999998578915,0.370478893846845069859341,-0.803480834099118523816685,-0.364032324427791653675968,-0.0390418052400438100879576,0.00635100568219871663283582,-0.146319246291316679142724,-0.0265538273203056694737878,0.0146735100485264873676483,0.992715942903670600649946,0.116594962536022153654081,-0.167653746322122487732997,-0.0895628630184243934575505,9.7445114147496312284602,-0.0293390843122674875587119,0.0196613812814926888772327,0.00916424510864226327111481,3.58562617719441423247417,4.93384608958384518473395,2.0448678464288589928799,1119.48936972996011718351,1145.21994743407526584633,1136.0476132493784007238,1132.69742540308675415872,115.344674963285100943722,227.720946782983276079904,446.941772762600294299773,119.751255890083669441992,151.664693788657274353682
24.9050000000000011368684,0.52048264002141975126392,-0.847688018485738825624765,-0.395625557542994887860743,-0.037385063768078242996129,0.00510043236586743293364821,-0.148522902947304108467463,-0.0265264769697970137496412,0.0146320166455768379404345,0.992695316199299959691871,0.116781843752098227207092,-0.166084863012973038554065,-0.0893769643872569241604964,9.74465630526654358334326,-0.0285608888347511774563614,0.0190283666502309503631984,0.00899552469324528536365193,3.58569126904696400259809,4.93378275847873926096554,2.04489662955586259940333,1119.87576566261623156606,1145.76526813422810846532,1137.15696016144670466019,1133.23848007462197529094,187.154671866156547821447,203.851627579747031404622,497.57183400812107265665,352.809776038454572244518,151.664640019240607671236
24.9074999999999988631316,0.657176341884641246338106,-0.921904784495043871928033,-0.350306427855296587114964,-0.0348723633546537542526877,0.00269788926125564187605277,-0.151121061130557121643392,-0.0265067913164690957539271,0.0145863914697863424063673,0.992674777043849987379076,0.116966474262642852743888,-0.164438239463003843532363,-0.089289855082221147863919,9.74503948573099343377635,-0.0277671129383822989922237,0.0184022791266562589507227,0.00882987678491478980569163,3.58575355745558832509801,4.93372263960944845706535,2.04492530646578485331588,1120.42514308929071376042,1146.23920557197379821446,1138.5354724194185109809,1134.46147428327867601183,196.10188815562915465307,130.11583042246317631907,523.858959096255262011255,543.837016441620107798371,151.664593345374044019991
24.9100000000000001421085,0.734090209919653347014901,-0.976930965638080572865931,-0.24123610246767279718938,-0.0326589130214252967854272,0.000225493774284840674607122,-0.152952690071671532079378,-0.0264972255295270499309002,0.0145386021732880101053897,0.992654440071758070729402,0.117147085699375111400578,-0.162810858047620243826969,-0.0892938118949184456152324,9.74564230297588629525762,-0.0269588200128097962848805,0.0177847301947891105189381,0.00866983791626129915441901,3.58581220092634245233398,4.93366496997348047415244,2.04495257618353365458574,1120.85627510339418222429,1146.41584728634029488603,1139.7762549569274597161,1135.95766515682953468058,148.464532597487504972378,18.0195090519099387904589,520.352257676092676774715,691.011025566523358065751,151.664572428032442985568
24.9125000000000014210855,0.781955425220040245548603,-0.996802254552477395854737,-0.0757411655972084207899542,-0.030830576584730449984928,-0.00271139048333107930688346,-0.154243466552495406274303,-0.0264977228945074139154769,0.0144929226625072939127481,0.99263452062107093709642,0.117321341989755578705257,-0.16125496350581203230945,-0.0893331242338574749162206,9.74643978537013389029653,-0.0261377220926516731780431,0.0171770624892362833158188,0.00851809121542886071853928,3.58586771484690780553706,4.93360943879059199446147,2.0449771611342675292633,1121.16746575227853099932,1146.32930311723339400487,1141.13723370780030563765,1137.91652941111306063249,96.0766595381492294336567,-76.667941836664581956029,558.932310138172624647268,847.157141609828045147879,151.664572819222485122737
24.9149999999999991473487,0.816700461687611678485155,-0.97130762763442979323969,0.110410848226165383967334,-0.0293454036236055378072951,-0.00605039010668672726928063,-0.154621466264863643980121,-0.0265060073743579975580342,0.0144507889334830087746386,0.992615037755886775450165,0.117489428585537097893265,-0.159769600112889709198072,-0.0894030724070681570569974,9.74740156073045049822667,-0.0253060138439866015580559,0.0165800793355221388891696,0.00837743219301666230958148,3.58592118592406183807952,4.93355608112771104600824,2.04499789044593294207175,1121.33665840108483280346,1146.03250757715704821749,1142.5709165076177669107,1140.19345086487783191842,29.8326052378402231113341,-160.20217048843281304471,574.581434484094415893196,958.018382755617153634375,151.664592017972751136767
24.9175000000000004263256,0.845863360022373500513027,-0.883568941641064364844738,0.280101319104334445242444,-0.027971899366005293502413,-0.00956506460568549467249344,-0.153470942529015275113125,-0.0265206703598856730064171,0.014411620756650674393673,0.992595983123084280030923,0.117651829153007536632458,-0.158361577661839614261652,-0.0895401091253706371553278,9.74849169384252611791908,-0.024466161807613830136976,0.0159941669258563991251609,0.00825017117376367244141466,3.58597281500447939706078,4.93350517159926749144461,2.04501552243467443759073,1121.31662877846770243195,1145.52829226479138924333,1144.01014088022020587232,1142.70662132489019313653,-50.0625651877470190243002,-251.235975430798760044127,607.678872368122142688662,1105.65242948621562391054,151.664634251334575765213
24.9200000000000017053026,0.877296194049325572805742,-0.719395474386687938661566,0.415379567177761366281175,-0.0260621537152370547074653,-0.0131182178983901553959157,-0.150598270903690656385976,-0.026537186914565132761501,0.0143753971169706500077279,0.992577504241125341266638,0.117808347539200483633515,-0.156973665116824701026843,-0.0897616811413067955394141,9.74967201949635686730744,-0.0236207105729638565383421,0.0154193475278763657970726,0.00813778661619091701895368,3.5860223204015091447161,4.93345650646919420267977,2.04503198390521978566881,1121.08634557514596963301,1144.77632770000241180242,1145.60931086945993229165,1145.7217130123117385665,-113.294873863173762629231,-283.69811314906843335848,546.503575819014713488286,1058.16881297099052972044,151.664710720882965233614
24.9224999999999994315658,0.895010270921555051160112,-0.559674860012076558213323,0.450939096394145810808851,-0.023987463738125779783017,-0.0149896173096558307097359,-0.147849923169671687572801,-0.0265442416143764486902157,0.014344704476845295676446,0.992559602598338419632285,0.117961209159605992513598,-0.155416964199546536740115,-0.090016388449785406100645,9.75090552539411881127762,-0.022772234813532590824714,0.0148551264321761904152464,0.00804073901399679491497352,3.58606858796638583442018,4.93340947568959276026135,2.04504869659440036144815,1120.75015440915194631089,1144.10980169904632930411,1146.74265875931473601668,1147.99746538974409304501,-155.630683340481510867903,-254.309406049974882080278,395.070958468146670838905,807.005223663078595564002,151.664794387749282122968
24.9250000000000007105427,0.893129664335340134329044,-0.418835933408391480892163,0.409775494507101267771532,-0.0214210686768425140336092,-0.0155096758722831542381959,-0.145963130084130837671452,-0.0265334032931123647847116,0.0143231274690160184648313,0.992542215689638851472409,0.118112402307582839422473,-0.153555276951630736981258,-0.0902362070808320482218079,9.75215387696027491415407,-0.0219232565278520315221744,0.0143005904044334435087915,0.00795809664681729200808036,3.58611115618084630440876,4.93336435134140138814018,2.04506698932433161886024,1120.30819215844371683488,1143.50478066975279034523,1147.5846656618002725736,1149.75673913062632891524,-208.362052948844194588673,-230.786222948218153305788,290.882276665739823329204,609.779773924180517497007,151.664895796765733848588
24.9275000000000019895197,0.859871032918392064203772,-0.317924304221318732022183,0.302494131604794214140952,-0.0182361359176433507345294,-0.0151067123031794758869495,-0.145172740329633259692699,-0.0264977159764985502332646,0.0143143773335705215554725,0.992525113069060105353003,0.118264980908637865053556,-0.151275952282971304363457,-0.0903487035122635812056657,9.75337985436298815500322,-0.0210760181177387651008104,0.0137544007235922659260208,0.00788784687908045643867094,3.58615042005810158443069,4.93332170774474221275341,2.0450870244619423488075,1119.70834414440719228878,1142.95587058430464821868,1148.19707014264417921368,1151.04636425936655541591,-224.427546793912455314057,-160.737084736306456989041,153.384239398368265483441,321.726440763878031248169,151.665033204483563622489
24.9299999999999997157829,0.807257248625692813703836,-0.311374113971665922306897,0.191915613077218188964324,-0.0157962831320735894169438,-0.0147394155088215305510202,-0.145405818904126488133599,-0.0264380099065800143465221,0.0143182127152659908336796,0.992508037725566394371413,0.118420936475024773937292,-0.148604084498232813515983,-0.0903696887095419010282882,9.75454620830326213365424,-0.0202322637383941517086328,0.0132148200449641387010935,0.00782712593660635572168083,3.58618694600989140752745,4.9332816578467291179777,2.04510963949200919032023,1119.18605442447437781084,1142.7010952460714179324,1148.35158685879196127644,1151.36537133444539904303,-205.505398817099347752446,-54.4306889040052794825897,-13.5735223013425354565697,-22.6973509983554002644723,151.665156549676424901918
24.9325000000000009947598,0.738464638776669679565146,-0.390587167769033460906769,0.0828663758233461611446558,-0.0136479298140313159287684,-0.0149599615342710084292532,-0.145674193065044532691132,-0.0263601832900737347020748,0.0143314594454256264560721,0.992490788786244304553463,0.118581011553519632961695,-0.145653376270298562378258,-0.0903763056918068102829622,9.75561813482374518002871,-0.0193930039300700095272756,0.0126796968832291346435115,0.00777272138785967212776251,3.58622169412337932214996,4.93324360825211005732172,2.04513489176213925091474,1118.68081715032190004422,1142.68371713978467596462,1148.1292025311374800367,1150.93287750437480099208,-208.340366426894263440772,43.4463245604325152271485,-181.07594254988558191144,-330.744930607364892694022,151.665283274314191430676
24.9350000000000022737368,0.656429273924354461655639,-0.572604449704789963959684,-0.0337371452666059140623744,-0.0116412628340025262052571,-0.0156678283119543737544888,-0.145567110331374593990006,-0.0262755311904301451508825,0.0143501681620174705716897,0.992473164156928544521463,0.118744841349048002587807,-0.142638772208259656526508,-0.0904652345126500806449243,9.75656401094386893646515,-0.0185584593814152008783847,0.0121464531341688511401067,0.00772145092217613442792112,3.58625517835402618516127,4.93320653646663842550879,2.04516128035914368510362,1118.14435259233937358658,1142.91832686887369163742,1147.44620714604207023513,1149.71164668140772846527,-176.721021339552549989094,120.674842439281192696399,-312.887156938648729465058,-528.77990435410140435124,151.665431669257600333367
24.9375,0.604911447341657693144157,-0.77966908830412906539209,-0.113740533527670009683597,-0.0107105396000364561093221,-0.0166697877881957536028157,-0.145531343840312604731579,-0.0261902120973572169471133,0.0143699176915389817410507,0.992455084474317406062482,0.118912230718789396766155,-0.139674045725551254637509,-0.0907217410984318545219551,9.75736026540353584834975,-0.0177279734135104942438499,0.0116121047179843402130661,0.00767085883308374523459339,3.58628722801519650431601,4.93317019346702156923357,2.04518808655134476381932,1117.79721204362431308255,1143.28709135198096191743,1146.5647667464445476071,1148.28897798260481977195,-107.504837735744800397697,171.010315342698419271983,-404.773221403855643529823,-604.917444261702598851116,151.665546169956456878936
24.9400000000000012789769,0.585775445872717570594546,-1.0146214238519100092617,-0.16762267439434255789088,-0.010170289134236764824748,-0.0186548262106252700498477,-0.146164302072394808318379,-0.0261074027430371266578213,0.0143876010698840671453436,0.992436250074867132298095,0.119085338931176648591403,-0.136818368229423947823875,-0.0911894405993841083990503,9.75799030764146557714867,-0.0169001949548684242408125,0.0110733295271199828901931,0.00761922270182907677288364,3.58631853444957426901851,4.93313455605981676654892,2.04521427348338136198436,1117.60682840366075652128,1143.77337844558701362985,1145.4223410390231947531,1146.68705946009981744282,-43.249140614952430894391,204.975535213993538263821,-488.138263037405295108329,-636.665602778011134432745,151.665643209185589057597
24.9424999999999990052402,0.595746566725495529937007,-1.24561085126457604665973,-0.193884527312106064167452,-0.00929268530252096852661836,-0.0216798832877232623694841,-0.147331613184998322374497,-0.0260305845831521609490267,0.0144028712332195767131804,0.992416581128065633521373,0.119264097454134396225633,-0.134145601766124111797751,-0.0918506062708338150146758,9.75844279281428406136456,-0.0160731647488688324243444,0.0105267954322284511964325,0.00756542034057873860608545,3.58634944125104304646356,4.93309850593852239342141,2.04523890192223456452325,1117.58096634054959395144,1144.31196902805072568299,1144.12407543125800657435,1145.10564996871539733547,33.9762493187731067223467,220.423541419448355327404,-539.915351090047010984563,-594.656355667466527847864,151.665719326016528611945
24.9450000000000002842171,0.633181776357316650205576,-1.44050675704156105894072,-0.187273575517161283698897,-0.00767850704069041479354896,-0.0255276404837118560398057,-0.148421755911607222699899,-0.0259585700702226716829468,0.0144137445284102556908312,0.992396209538789819681881,0.119447898847915942588394,-0.131638015805844998951102,-0.0927002036712609306379207,9.75871324902321113370363,-0.0152445039545078004500356,0.0099692385137807437017754,0.00750906742385121662303193,3.58638071107767997247606,4.93306186369075927444783,2.04526253418357795155202,1117.77670965025458826858,1144.875496152684036133,1142.72276428357349686848,1143.71377768176307654358,136.66855601470444980805,249.343630468920082421391,-616.70575320913769701292,-539.273455606550328411686,151.665761808582374214893
24.947500000000001563194,0.697089441253597730252523,-1.60231633999593414685592,-0.154995372455605545658486,-0.00550518736685802131947121,-0.0308214854415804970222403,-0.148713729693914858964732,-0.0258907391248279009077216,0.014419828442849051686192,0.992375499528395654813551,0.119633904395823539856814,-0.129296176692256459261898,-0.0936967919518695291358767,9.75880136868469527655634,-0.0144117915826483967284277,0.00939781165692789299814791,0.00745009757760972755186168,3.58641230509639852286341,4.93302509545697009940568,2.04528538490413058781314,1118.2643091206234657875,1145.55868718039596387825,1141.04054666521074068442,1142.40928269068126610364,215.376669611029797124502,250.562544846347748261906,-599.252217929171024479729,-406.995364190142026927788,151.665762344187982080257
24.9499999999999992894573,0.759547255515995778374361,-1.66479566227580089154969,-0.120915152024147112830299,-0.00380974262717281028992056,-0.0357304273158112403740994,-0.148319243523798660611135,-0.0258284902116444892161695,0.0144226998420921900118108,0.992355091126409849522361,0.119816314606266210995855,-0.127168247330955941354347,-0.0947602500575727563214556,9.75871001607973198588297,-0.0135729448444985474619973,0.00881033594365453025243351,0.00738860030122864830381957,3.58644325791964879712737,4.93298884329758902111962,2.04530696897563402103515,1118.85359299830952295451,1146.12830887691552561591,1139.72650319392823803355,1141.67880086081277113408,261.98062243316354624767,224.167100853263974613583,-488.206964138459454716212,-220.463001829283001598014,151.665712098868908697114
24.9525000000000005684342,0.825427189671439576201806,-1.65245250936877874359254,-0.0873823993506412377563208,-0.00207588747285262879838097,-0.0405426269152852902788453,-0.147994277663818091239634,-0.0257687333824005541937918,0.0144242017032812468169123,0.992335328661707483099974,0.1199927148627474710052,-0.125217931557723038960006,-0.0957905770055297034470954,9.75844746034593946149016,-0.0127265111865586949546625,0.00820529821140155227188195,0.00732489365514814652624587,3.58647216965425474910489,4.93295369019723040082681,2.04532695904830985611511,1119.57421223278902289167,1146.67952268466206078301,1138.59951184451892913785,1141.30696768153507036914,329.399738908900587830431,226.32352149846400379829,-436.840408086258548792102,-101.805469617231878487473,151.665599019674573355587
24.9550000000000018474111,0.899416949568875079279451,-1.57108913388311366432504,-0.0435813381747859607262541,0.000189172176906332177755143,-0.045502639771482597530472,-0.148150405781190541709691,-0.025709542982430413221584,0.0144263039283089086056711,0.992316345115619724559508,0.120162175887569125376508,-0.123433536438103882981743,-0.0966862210988648079768026,9.75802484256366220449763,-0.011871797311443528857855,0.0075820608224575550271318,0.00725919697038792440663135,3.58649840748724990646679,4.93291992455721572952143,2.04534556442089465733147,1120.50059169285486859735,1147.25992648440842458513,1137.54230115349582774797,1141.16977351272635132773,335.463885033389829004591,185.447021062455462470098,-332.802529334842631669744,-24.8956234916526639722179,151.665379051973786772578
24.9574999999999995736744,0.947971726656970159474724,-1.47029542193985629516817,0.00318473802024014452163869,0.0023323229158118564258162,-0.0489585834987895859859997,-0.148877578715083780380724,-0.0256476725729698172562276,0.0144292750826426775107025,0.992297717707812387821775,0.120328843041384095369217,-0.121773670127093988635458,-0.0973755312695372687858963,9.75745697425941571623298,-0.0110088123684300587951101,0.00694089452152885783009495,0.00719154489784681362485319,3.58652249781182064225504,4.93288823474287241310776,2.04536300949112348490644,1121.25153165795563836582,1147.60675778997415363847,1136.93549919784504709241,1141.18248956407683181169,279.244795790337832386285,90.4995939585840432073383,-184.753995793417203685749,-8.39976938095954928087394,151.665117181643125832124
24.9600000000000008526513,0.970491199848185659426747,-1.3627482825244967568068,0.0638990910604687323282036,0.00484124468371670540339791,-0.0517936448830764173401064,-0.149835468535015225999274,-0.0255810783725034032731749,0.0144351177496530834465371,0.992279178091465152711237,0.120495121040678387913658,-0.120225050299346589155469,-0.0977596007476653067191918,9.75676120764758358916424,-0.0101380950824887725025825,0.0062832640393162162914531,0.00712153285244897498590388,3.58654440320631806571328,4.9328591760747819705557,2.04538029143126198761138,1121.89681567180628007918,1147.7124244542012547754,1136.6185311745289254759,1141.12777466582156193908,230.013022686781027914549,-12.1359932125807734593081,-79.5014891628445923288382,-64.9060673672588421823093,151.66476399455186196974
24.9625000000000021316282,0.962970180263803210429785,-1.26591258874155876412715,0.128105528101114501948743,0.00752180166803276695902669,-0.0541480469206230344281217,-0.150158553399399180561247,-0.0255095294760967448988165,0.0144421630799530156114008,0.992260685331098679640149,0.120661590008142582952644,-0.118800613078470077010884,-0.0978209072952015701307715,9.75595712332686915146951,-0.00926063696200617181286674,0.00561169735000491103071862,0.00704836158636570984242775,3.58656438980410641192975,4.93283404737273745155335,2.04539816886851166799488,1122.40159677139013183478,1147.54607782391121872934,1136.53799175203062077344,1140.85795922724037154694,159.948478607188917521853,-144.88665798742812285127,26.1536738047704808707294,-193.017576318190748452253,151.664327918627350300085
24.9649999999999998578915,0.913467602409570034183162,-1.19155789995807870340627,0.175119182811932116994313,0.0101761757938737869982893,-0.055986800000547953803931,-0.14915079699608768670771,-0.0254321920563162114092837,0.0144473538054253874268751,0.992242072335427494067517,0.120830166463937765941594,-0.117496236223007075039071,-0.0975750773523498815542609,9.75506732715286695167833,-0.00837780944279925901541084,0.00492958994398508612566623,0.00697092240710338404557911,3.58658290964119874644211,4.93281356192854492093147,2.04541723877715542201372,1122.69655806484206550522,1146.98799116426425825921,1136.74929954355275185662,1140.16268678423080018547,80.1645401978635447903798,-341.516812269150875636115,168.238900833727541339613,-429.807135781669785501435,151.663783386549226861462
24.9675000000000011368684,0.805914598818801786173083,-1.1221333512861704218011,0.186417039155302721731289,0.0131698414750383643867515,-0.0582571292638991988788177,-0.147002424441609214067483,-0.0253493903225026108450013,0.0144511596348344956153298,0.992223193548778858996684,0.121001920697475173760438,-0.116336195089854779749494,-0.0969819791361086480652176,9.75411656054947506788722,-0.00749130318657650028091322,0.00424101811705868657342844,0.006887901572627004934124,3.58659972112163627500081,4.93279712414834303757516,2.04543757512774426743363,1122.80241947237936983583,1145.83849376256580399058,1137.37918625619909107627,1138.70892354833245008194,5.1772668099612317860192,-495.113510236167996936274,302.313272184179481882893,-636.407522841672516733524,151.662993836257101065712
24.9699999999999988631316,0.682583795321182518200942,-1.06248747324790993040722,0.153958789901875919836627,0.0151655342231856640061727,-0.060652234569625380899982,-0.145369733395028427613838,-0.0252602634677946899510737,0.0144526166021954494828039,0.992203849002621596220308,0.121178785928612350875078,-0.115314879325220567829469,-0.096037421216850993310743,9.75313218397840664408704,-0.00660304886889133933747242,0.00355033188896823267977076,0.00679813009002891866644491,3.5866141841862915207173,4.9327840942437175542068,2.04545848529932383641494,1122.72244439889186651271,1144.51242361308391082275,1138.26086590447334856435,1136.98064917002307083749,-47.4306430402615433195024,-587.404743732557562907459,433.616077101391852011147,-772.216094595722893245693,151.66221518026259218459
24.9725000000000001421085,0.537427377385439108969933,-0.970170271085165292213048,0.0946119866632167266784492,0.0166599333842626408375143,-0.0636402006327204949887033,-0.144744317327221372337931,-0.02516590161445402679119,0.014453275576069228580689,0.992184046159037880130427,0.121360286318656696025187,-0.114467212970037326980055,-0.0947054670056647479592371,9.75214245412135305457468,-0.00571514981291691183395987,0.00286202561761877971591161,0.00670070866141326410003742,3.5866261490050885818448,4.93277419397349881080572,2.04547964199270726481927,1122.56526625717810929928,1142.90147004390360052639,1139.54726664170561889478,1134.8478430753546035703,-56.1421301435697586157403,-742.535480298040397428849,651.574743229578871250851,-968.762363382579792414617,151.661304109854086163978
24.9750000000000014210855,0.356134419726314987997284,-0.789755990168277688390219,0.0277609304201309609050341,0.0181603200543227379093469,-0.0675804471030929665431586,-0.145288664735225531154938,-0.0250678372008615521493446,0.0144539022878411686778843,0.99216426677637226116957,0.121542064402008126444699,-0.113831626674636629537041,-0.0929793762895439745985726,9.75117637924743263511118,-0.00482973207169933374527382,0.00218053699880622637446992,0.00659521050669765844520764,3.58663565961032748674597,4.93276780934603120698512,2.04550037944783413834671,1122.44173374817387411895,1140.79974621159180969698,1141.51873962062290956965,1132.13683735310769407079,-12.4360607210316818083129,-774.784252385115451033926,771.840237916029650477867,-958.056765519686109655595,151.660051809320947313608
24.9774999999999991473487,0.214167780483283998194111,-0.570498841729360495200751,-0.000347102708999587783889745,0.018923544860802447159509,-0.0705002506336283724097669,-0.146360570350447860565879,-0.0249682343201734074922271,0.0144560792910716443687713,0.992144688228154936204817,0.121722026752359990808827,-0.113455736669784243431103,-0.0908498253383602932808927,9.75026288861741363689362,-0.00394884892726058821937896,0.00151004053167793478827663,0.00648172920320230945556705,3.58664343530778806368176,4.93276477833133686345946,2.04552020334479989216447,1122.50308595357296326256,1139.02754878197879406798,1143.40646783128499919258,1130.05755924775712628616,76.6723656943365909910426,-691.556643158402266635676,758.603151553976204013452,-718.748325315989177397569,151.658872950446237837241
24.9800000000000004263256,0.101760044267636989845371,-0.28725076374467639617194,0.0144790438354464971737467,0.0189763707617000010330344,-0.0720603298148938670175667,-0.147067316629706179575976,-0.0248708222887855691374259,0.0144576151944202230259506,0.992125289422517098181231,0.121899829086206654138458,-0.11340371230975389293949,-0.0883953655584778508202959,9.74942972390031492579965,-0.0030743672267112705752401,0.000854231942674186540964687,0.00636086974318485556811886,3.58664997764307402761119,4.93276533611802658896295,2.04553868821332374139388,1122.82509557664548083267,1137.34196299580048616917,1145.31175537839203570911,1128.54309572652846327401,206.58756684941525350041,-711.185401355442081694491,769.997548960160997921776,-469.429279320716830170568,151.657552247447313220619
24.9825000000000017053026,0.0216910635490638326050572,0.0986632057365753045719003,0.0793840726992685596918875,0.0182878410762632795383276,-0.0723299988184453873651947,-0.147085794018612797673384,-0.0247774152093215745129573,0.0144570744008595351154378,0.992105676692493498869396,0.122078468570167686380046,-0.113699574855190457811638,-0.0856850253848913528953446,9.74870391687170112504646,-0.00220788214790984841859323,0.000216192747934645186549257,0.00623364094975301964718373,3.58665505919801530509972,4.93276955657360716145377,2.04555525422752371156321,1123.53602378782056803175,1135.47162177519976467011,1147.25645557608777380665,1127.71041285115234131808,306.919149612274054561567,-661.765121561797741378541,603.281714298629594850354,-120.675945952849716036326,151.655804116725477115324
24.9849999999999994315658,0.00852025295492775391892337,0.434360352689261042247182,0.165109708102832403175952,0.017269099209193106841953,-0.0715575121978350714435635,-0.146821949340435325970233,-0.0246898092281671310832536,0.0144568346461253025708737,0.992085507579008485379291,0.122260078515473186167029,-0.114372800098221635844986,-0.08272273596431625741765,9.74811029198953526986315,-0.00135070539568348728202973,-0.000401766438719560478945447,0.00610127322612114605243638,3.58665801607341450107924,4.93277642661186188632882,2.04557009284863466902493,1124.35969132470654585632,1134.03313738799215570907,1148.32816394988458341686,1127.93971599676433470449,358.159547416042528311664,-555.889815945439863753563,268.596553470623575776699,268.279186943853972024954,151.654213343977062322665
24.9875000000000007105427,0.0455083066504880021097001,0.757454557131694516947107,0.273641983453551507210477,0.0162373212334900700326568,-0.0699073844743805794532676,-0.146399464183226496460932,-0.0246093836006725380505245,0.0144566289234572282335067,0.992064472655196150085999,0.122446920825542135413677,-0.115435506803998291780466,-0.0795693629725869322477649,9.74767114866088135727296,-0.000503789128487044175937204,-0.000998350734085040429632851,0.00596504021705200181829865,3.58665859703933653790386,4.93278502205685231984944,2.04558352111741115209043,1125.32682152490042426507,1132.6921726954731184378,1148.59943834344062452146,1129.05180878587134429836,392.387514338387802581565,-520.547235958299324920517,-36.6506952136018142596185,553.045656527173264294106,151.652487774779615392617
24.9900000000000019895197,0.106582652578005324106591,1.05208442114693201396847,0.392860060257750609569172,0.0157771944684638558420442,-0.0674966292432540998502688,-0.145813394062186602040398,-0.0245369420109217313552552,0.0144584667969145427152133,0.992042461019845389635918,0.122639496845120418710984,-0.116892211735153531138032,-0.0762452908202522483538388,9.74740576618594545266205,0.000332353412909874390643999,-0.00157322521075946796485778,0.00582608794099053611814654,3.58665688314173092265946,4.93279368579245858228433,2.04559588103667477909653,1126.32162889639948843978,1131.4304012081993278116,1148.14491047381648058945,1130.70494427940161585866,382.385045990562161932758,-474.776014192006073244556,-340.602550427115147613222,724.084618865352581451589,151.650654623202115089953
24.9924999999999997157829,0.162715310827407144689261,1.29438510196703426835541,0.512674076141447665477813,0.0165550571900693853366615,-0.064155976105622736227474,-0.145161772111887826808285,-0.0244729009021984883487377,0.0144624656372389810699008,0.992019807976199041732457,0.122834994206508577030412,-0.118734434498731181162334,-0.0728096231461059367751076,9.74733014796448138383766,0.00115769150722853410295787,-0.00212690945523474287531807,0.00568531458835763031656185,3.58665353458433155964258,4.93280182339237693867062,2.04560806587663579492187,1127.23874675485285479226,1130.31829262451356044039,1146.89642559130538757017,1132.6722318801973869995,361.050604632991053222213,-425.592663699347326655698,-679.059282214755967288511,844.091326083966691840033,151.648697228191451813473
24.9950000000000009947598,0.180045029921449245557952,1.50944936940278995329834,0.634833804368649112781497,0.0184052048771288917494715,-0.0594454830489835744922189,-0.144004540954938642371985,-0.0244164043064824358431064,0.0144696116213362518249097,0.991996795324462610210503,0.123031192022786201034634,-0.120929820102917653934504,-0.0693019705686880593820121,9.74745706785940235761245,0.00197265139615330088035394,-0.00266044953994273337960497,0.00554334908800492142527672,3.58664932549711279463622,4.93280987401803283631807,2.04562125801046468254185,1128.12688191956408445549,1129.30243788970301466179,1144.74961406274337605282,1134.92540090982060974056,277.230642889930152250599,-291.866877293828849815327,-842.907842137606962751306,748.341977212911842798349,151.646212032522697654713
24.9975000000000022737368,0.131643560408926441063215,1.62220089476633355651813,0.696326203312999214567469,0.020047123455185781454313,-0.0554508190128071773439267,-0.142417535863626126824144,-0.0243650390132374959628603,0.0144805054397061493814958,0.991973828219632425273744,0.123225235966023749512033,-0.123414371546851545091705,-0.065764288548845584170266,9.74779606711370583127518,0.00277797543056790838603143,-0.00317513725653292399470073,0.00540066123303414771100739,3.58664466190103325970995,4.93281852716657720492321,2.04563611083943097668225,1128.62489996930321467516,1128.85895823804366955301,1142.68188638061519668554,1136.41394176626386069984,140.35508042455211352717,-62.9096226616309266432836,-823.508703269844886563078,466.250122392968478379771,151.644032937622057488625
25,0.0128850570112587214932631,1.6689478157352071185926,0.686053995849082776103955,0.021189320431993820259553,-0.0517596693087858383819366,-0.13995122346799582224719,-0.0243165461564084674217501,0.0144926355932102172985321,0.991951136152609991292195,0.123416023088741166890969,-0.126118799721478214159731,-0.0622957167071404582792127,9.74835289351492129128474,0.00357451878057407764974207,-0.00367234000311601098756609,0.00525778321955802131759672,3.58663943787174055444211,4.93282945356006763404366,2.04565197740364501655108,1128.82865732168670547253,1128.98788977639492259186,1140.63207054639497073367,1137.25665152178498829016,21.4465779358349131200612,210.355184020951128331944,-845.706199566425311786588,200.610053163512816354341,151.641748410068146313279
25.0025000000000012789769,-0.193336540233208176164936,1.65242389428419311769858,0.564918173104259513372938,0.0214923693223940566465746,-0.0474552515646146644279213,-0.136183342168744836442329,-0.0242675837894150876750121,0.0145045859776548793224071,0.991928765814190316341126,0.123604009860360894434983,-0.128954907759434633796047,-0.0589667499698298958055176,9.74912959835709358458189,0.00436307612398051988117365,-0.00415343096930558940832467,0.0051155791044527176153478,3.58663368068812715705462,4.93284333360506810350898,2.04566799710765057085382,1128.73213285898236790672,1129.91073415814821601089,1138.45335538278391140921,1137.41699203208122526121,-85.0312826535342480838153,466.601038008140733381879,-733.209021768161960608268,-76.2608784578939662424091,151.638893213032389439832
25.0049999999999990052402,-0.395318843120028462490012,1.57632169581577774586378,0.371738064461661910087287,0.020708589600992869522722,-0.0436361244624227304078623,-0.133105018467040897567344,-0.0242167273654850766229085,0.0145146651512026436670055,0.991906882087602359554523,0.123788358162061948308796,-0.131870887345597653794727,-0.0558520268398392250031037,9.7501233221384726590486,0.00514419757181785834709853,-0.00461997546816952323750494,0.00497541149345707978124409,3.5866270571779934606127,4.93285965176675755827773,2.04568279758136872814589,1128.4035009084191187867,1131.32089496643516213226,1136.9660254375548902317,1136.87534712949559434492,-165.969421680243897299079,676.9663968288551814112,-526.360768152349123738531,-329.219135337754778447561,151.6364251959090836408
25.0075000000000002842171,-0.598410797908030422931347,1.42969045274276052026607,0.110807563118698076953805,0.0188474346801920725202883,-0.0394918299203383255102651,-0.13148589285681688831886,-0.0241632196829209625055235,0.0145202306921830854441469,0.991885523672877300604966,0.123969223712824094807416,-0.134824829583878813554776,-0.0530390079820483445471879,9.75132676762669703407482,0.00591813140936873864628165,-0.0050738851244020643713184,0.00483912761608655365985765,3.58661885304733951684852,4.9328771304684693177478,2.04569569691050734405735,1127.90228575058131355036,1133.29556614229181832343,1135.8215515420226893184,1135.77089635539277878706,-234.185306350553474885601,952.540486621286845547729,-442.179692128321448763018,-569.993803068591091687267,151.633872643977980487762
25.010000000000001563194,-0.816703350283528584085957,1.1709078473405558629139,-0.216930753299907325137852,0.0154455613631001593272218,-0.0348709061832932834534837,-0.132054211355318473763987,-0.0241067551575330774049633,0.0145194222073978893711166,0.991864727248671695924997,0.124146598726354959185691,-0.13778466618450530001283,-0.050593125021833884602529,9.75272823275294520328771,0.00668477343635906755964227,-0.00551745943280845807521473,0.00470892261238991041705226,3.58660916473253843506086,4.93289536062322664378144,2.04570644009991386980118,1127.23257437666575242474,1136.08359739954403266893,1134.75512697691215180384,1134.02537811415118085279,-238.15721591227165276905,1046.31491423595343803754,-356.515529356263868976384,-672.854995367422020535741,151.630720689194276928902
25.0124999999999992894573,-0.970762079033901437163934,0.894541976618494438788787,-0.450826456142489340184198,0.0120368010585931942829641,-0.0319278569728425817841888,-0.13410124881718388234475,-0.0240487271207053994459546,0.0145097591068708356432104,0.991844352395627959495528,0.124321630214622252941226,-0.140748339006882605684012,-0.0485871285120565155057903,9.75431155799186022647973,0.00744365611340799902123644,-0.00595331937533034264570242,0.00458710366025197498196508,3.586597812518389272185,4.93291470993022507229853,2.04571479076717199774293,1126.71149967102019218146,1138.52714071347054414218,1134.03897389524172467645,1132.40662137855633773142,-184.647187407054303776022,941.611310418107677833177,-266.369874642403601683327,-636.765044071298007111182,151.628026340661477888716
25.0150000000000005684342,-1.10840756253327121783059,0.575007446093984464496884,-0.596492133772030919125484,0.00906842018771314255232152,-0.0301412836406057121907409,-0.136679938770259828961784,-0.0239910376090132909654429,0.0144912621615577823230847,0.991824202978654922979729,0.124495511020378632482952,-0.143728229792031148015496,-0.0470374861348036160668684,9.75605686013114592469719,0.00819394532903078808006025,-0.00638430130639459740560238,0.00447584369915598155598158,3.58658452797760896046952,4.93293463054337255613291,2.04572086312806344921,1126.30933843963066465221,1140.79165395163363427855,1133.42327760370039868576,1130.84155289379532405292,-136.457757049195834042621,832.86877814528588714893,-235.246997201754936668294,-585.246254412023290569778,151.625269133040774249821
25.0175000000000018474111,-1.25352343987947878467537,0.237977397752590746904389,-0.649610986422137437479307,0.00695247738799013772353907,-0.0292395502076527487311797,-0.139241587541196643051933,-0.0239360664244960517910155,0.0144614296958162739936693,0.991803992053722827115791,0.124670353357314994680038,-0.146737948557977948560449,-0.0460014070010615894190664,9.75794192783224367815365,0.00893449302794094811497327,-0.00681338039367223886194624,0.00437682467337181021344028,3.5865687099221683631356,4.93295546987347321987727,2.04572491608444639865638,1126.02921088577386399265,1142.69148460419910406927,1132.86273890923234830552,1129.48039010649472402292,-86.1026384575951198030452,632.133881880589115098701,-209.592480851548174314303,-462.514931021724976289988,151.622465242098428461759
25.0199999999999995736744,-1.43144085980069579733254,-0.0982685021729611252183645,-0.585867183836534799468154,0.00544670231302022637281945,-0.0292799391211562703984939,-0.141636022288156138149162,-0.0238879583533503567216449,0.0144192394429440325087644,0.991783410898197326233117,0.124847923593447526768863,-0.149827089319500894593062,-0.0455028424743230894278234,9.7599423821079422936009,0.00966390103958479629309153,-0.00724353211994978232052267,0.00429105192065987010863193,3.58655003432645669292356,4.93297765222485118385976,2.04572767924177645326722,1125.8788252473427746736,1143.95232336103595116583,1132.37531519944286628743,1128.52897823868715931894,-48.4668338430406961947483,382.144793122855503497703,-188.291521238571647245408,-295.357830287925594348053,151.619611523992830370844
25.0225000000000008526513,-1.68907100757701633675367,-0.475451656387066767806004,-0.386728348725135562258259,0.00280255710355576705128389,-0.0303532924713763654911425,-0.14422209095823154689775,-0.0238461143188791122038417,0.0143648872204583839817804,0.991762372788367208009674,0.12502898336357817776765,-0.152954699268870286665845,-0.0455222673978245007120336,9.76203569719333508203363,0.0103807326967186950433808,-0.00767764339295085463527046,0.00421855224191178875686736,3.58652819979365045099939,4.93300073046132325771396,2.04572958315722752686838,1125.786876716558708722,1144.60220856981300130428,1131.92128130303967736836,1128.00360095505538993166,-29.5649753820574652252162,99.162657292112470486245,-136.023215668932152766502,-82.6301210684992071264787,151.616137676796085997921
25.0250000000000021316282,-1.92227464218004295837261,-0.751970370079861005763178,-0.141022550559424447724766,-0.00113629388757716131598541,-0.0321184382888028627234256,-0.14587097992963113379794,-0.0238079150760399649300325,0.0142985141089826909427396,0.991740889990790241981244,0.125213901809240579776628,-0.156039057287028937182072,-0.0460287432636152654685802,9.76420162523501034002038,0.0110837089594281890808647,-0.00811840147788793140004593,0.00415827351390221210819531,3.5865033446296212815696,4.93302457807257876964968,2.04573164432876186680232,1125.73100037043241172796,1144.44813664749676718202,1131.69519912109785764187,1128.11582763334445189685,-27.8570617824298949471995,-175.11090226051993568035,-51.3671043111219063348472,150.001489156950640335708,151.613207558707131283882
25.0274999999999998578915,-2.13724652298280437534572,-0.974853384628019514757113,0.144455512864578083931377,-0.00663316146075722951058751,-0.0347528938734400910659517,-0.146223330313046101514018,-0.0237699916627466673046953,0.0142243475222553587833385,0.9917186975202002541252,0.125404918928116587695243,-0.158992569993172183639984,-0.0469038494864738447764907,9.76642247470258872965587,0.0117719390564952983840863,-0.00856806232299586398304392,0.00410819397983776778138232,3.58647635783585005953,4.93304965868721545518838,2.04573540856626978623467,1125.64759140764658695844,1143.72665405851057585096,1131.66444578148411892471,1128.75360840083999391936,-47.5702686338176192748506,-391.925611294150940011605,31.9804153286504480036001,371.870826583455141189916,151.61024782974646996081
25.0300000000000011368684,-2.33365613946379024667976,-1.17288893377288783170798,0.469089028441937783142635,-0.0140720152766282292217115,-0.0385027279305256708852312,-0.144494677147258776539474,-0.0237249215736005554522325,0.0141483078746598486125086,0.991695909126937502620081,0.125601849045393870740739,-0.161653335798716046856072,-0.047981650459694602517402,9.76868584602574330233438,0.0124450279436640939140224,-0.00902843181129495131465035,0.00406540636660311302530424,3.58644713635852019351091,4.93307544886886706336782,2.04574192542374522219006,1125.49314902726337095373,1142.48850859102640242781,1131.85510119774107806734,1129.97518176626135755214,-64.623093943977565345449,-471.306015632811181603756,101.682356851390295560122,493.101814946028639496944,151.606670110622388847332
25.0324999999999988631316,-2.4269790592127953310353,-1.28247577213252128558452,0.680480558930542600570845,-0.0204997319319715799734727,-0.0415698827533212966756082,-0.141605410858585162303669,-0.0236669505774927749208736,0.0140729534039441654680314,0.991672889397186896331959,0.125802589471349424155022,-0.163884404649797477127038,-0.0491623718757389360778376,9.77098328931612947201302,0.0131031185469136068205698,-0.00950076739059620145599894,0.00402650216995580761958351,3.58641623851820989798966,4.93310104434749696622475,2.04575181597832633784151,1125.32447593792676343583,1141.37012398034698890115,1132.17285756574096922122,1131.21911747556964655814,-71.9711733052151885203784,-420.036180620892878323502,147.157519432887227139872,503.742226716040192968649,151.603673200501731344048
25.0350000000000001421085,-2.43823823385288829257433,-1.34337480725755620269979,0.796810899406526718102839,-0.02672357942732766361571,-0.044534894296271311520119,-0.138067117830949048773448,-0.0235917298447026503593893,0.0139988397603436724725423,0.99164992134232698983709,0.126005656542207439274605,-0.165572545589332209559075,-0.0503873296377988569294537,9.77331026554542603435038,0.0137469466879764339733994,-0.00998549082816973729292975,0.00398807700566457257185249,3.58638439754137561266134,4.93312683531765117095347,2.0457643647589951463317,1125.13329316073736663384,1140.38832768792235583533,1132.59088879490536783123,1132.49389289984105744225,-77.5071736321082482845668,-348.124444497674801368703,172.807371790034068226305,486.253921043704849580536,151.600668021575387456323
25.0375000000000014210855,-2.38235678957134133781892,-1.37052435434950048431801,0.829685115110051274456282,-0.0327110569662447878136469,-0.0478604614241165751686857,-0.134626374929348840980836,-0.0235002235388873624566397,0.0139258287310228042604754,0.991627165294909795889566,0.126209624084573424074307,-0.166708328166188912700107,-0.0516253338657429866609405,9.77566368976660626799458,0.0143777216216230147721733,-0.0104819707247252782295055,0.00394733552905034146274232,3.58635248816495044721364,4.93315403348443037856441,2.04577855434271471679608,1124.93694006976602395298,1139.62950175785772444215,1133.03689442469158166205,1133.65038708078941454005,-78.1052375915051726451566,-240.285880415287977029948,173.946144884928855844919,407.459091232466676046897,151.597662093265512339713
25.0399999999999991473487,-2.25170737547360699792875,-1.36447975485230088565913,0.78084152934451089844714,-0.0385606825147335324777131,-0.0514192962851848303640345,-0.132219075267625413294681,-0.0233958737399625298081229,0.0138547807093062028821473,0.991604647516596049428017,0.126413551371271110079775,-0.167336217678469678649122,-0.0528349406812621616436054,9.77804205297679018826784,0.0149969982112390758099973,-0.0109884077339083684882182,0.00390244577292770539189704,3.58632119682002592497838,4.93318392536158079053621,2.04579397135101048732508,1124.74276697277991843293,1139.18689828584615497675,1133.46061951932983902225,1134.5311883560029855289,-84.6763702435678311530864,-127.48811636008930747721,172.417696774744143795033,306.860946810017708230589,151.594663008059796993621
25.0425000000000004263256,-2.02204949644237697015114,-1.33241283861842529923081,0.670029947983475815398435,-0.0452046167585057126481196,-0.0551157675551011971837312,-0.131283478858214730511378,-0.023287437293845171526474,0.0137797169915159466169197,0.991582016221745798922882,0.126619218360557589386772,-0.167590629378155275830409,-0.054125370391068378106425,9.78044364190372661482797,0.0156065181005701873739877,-0.0115019403562954970060561,0.00385267059423816202873292,3.58629045974792681761301,4.93321823722240804244166,2.04580918334828742999321,1124.51355821854826899653,1138.99206117605740473664,1133.898982908565130856,1135.18469181483919783204,-83.9584937257339021243752,-27.3654531000689580366725,147.181339990145005458544,175.173122163370379666958,151.591082496494777842599
25.0450000000000017053026,-1.78531115637012405272799,-1.29592813111708582418657,0.561505529046766316270123,-0.0499565141017874678186494,-0.0577423852863489864284396,-0.13160499918313930955982,-0.0231847184763579947097689,0.0136959712857305706407152,0.99155943217720798887882,0.126824051733412657139155,-0.167635126162657632775677,-0.0555894434906069392909878,9.78286614341622851043212,0.0162078915796503263135886,-0.0120191451333278558760709,0.00379856326479699381998278,3.58625985471688535355383,4.93325753454397908370765,2.04582349180211275907482,1124.32297450415103412524,1139.05007102034574018035,1134.19652621928094049508,1135.40705396682028549549,-76.9510495224192965224574,53.1037533659961056287102,107.833856964065120109808,42.399584234826100725968,151.588122057531023756383
25.0474999999999994315658,-1.52498807088603394177539,-1.2569317209433639170868,0.445468687057079093527534,-0.0535845723082299107975501,-0.0605604041052443670123395,-0.131569144143238725419565,-0.0230910414765477210730094,0.0136023287254620449393538,0.991537523807169751677293,0.127022632534271540105664,-0.167521866811185526913164,-0.0572441242260457450186095,9.785308448106778911324,0.0168025637528288543376398,-0.0125364852370257670588494,0.00374177152828659119465637,3.58622873238542894114289,4.93330101875230653263316,2.04583580358754479888717,1124.12880297093624903937,1139.25757994288733243593,1134.4381521933853491646,1135.39668973601328616496,-87.395086043369815342885,112.968828389761910102607,101.6618544896320912585,-20.1212520251869158016689,151.585195782926405172475
25.0500000000000007105427,-1.21134684919720414519873,-1.20856000703840282817225,0.277554036228353395721058,-0.0567011877229501512487353,-0.0642500431228054252885684,-0.130026565230176749388136,-0.0230064418200880763110128,0.0135018107087719208686538,0.991516656452873346161425,0.127211753412118933059816,-0.167254928238900146819645,-0.0590232568095591797474597,9.78776783707388275956873,0.0173918934773257503889621,-0.0130506115719733178232032,0.00368495741824405743242155,3.58619632056821657783985,4.9333474304333311266646,2.04584477453246860179092,1123.88599907393427201896,1139.614915162294437323,1134.70483549172899984114,1135.30644770669437093602,-92.0783303957689014396237,146.103045729539928743179,101.665571431515502354159,-15.1547982729802921397777,151.581735537194333574007
25.0525000000000019895197,-0.961121696034506367567474,-1.16744428220340323854032,0.0939937295308538728333403,-0.0584755493159796746471812,-0.0671396712659290406666202,-0.127661687304971571688128,-0.0229288676689171494471609,0.0133982188220296283276411,0.991496754492040444084466,0.127391957774013214743647,-0.166804915041882495518877,-0.060847332546488067106516,9.79023875131925969128588,0.0179772561579656757480006,-0.0135586309716094026434074,0.00363137632020149462089287,3.58616304636510152548112,4.93339600794070243239275,2.04585031644437487230448,1123.66841131895716898725,1139.98809517153540582513,1134.94648005054318673501,1135.32091574464834593527,-92.8271666561343522516836,168.930237020083012566829,109.343156240742175100422,55.6997006306684738774493,151.578902954424876270423
25.0549999999999997157829,-0.724390940172083608317166,-1.12780147707251909849901,-0.138987190241984664984543,-0.0598903885677685363098099,-0.0696485100325547057398268,-0.125635139860897165897669,-0.0228572165317841788367836,0.0132910929454883620925987,0.991477694098305994963027,0.127564454348472411382431,-0.166155905899789069213313,-0.0627283505548431458143099,9.79271118162690079600452,0.0185600140834282986701531,-0.0140583995528994875473527,0.00358434317235328293860253,3.58612905090068467828246,4.93344644555951461484256,2.04585301633082439209943,1123.42186324065369262826,1140.45956634739468427142,1135.25155127293260193255,1135.58494620984765788307,-118.790067894748048615838,239.053578340874338437061,153.879732569779349660166,193.344695824809861051108,151.576132290761307785942
25.0575000000000009947598,-0.443568761408345113572693,-1.08286695660847565036988,-0.438936030930813625428044,-0.0619833721996339986892721,-0.0724775341237965942120525,-0.125801517636413867640144,-0.0227913723975416461497989,0.0131786431377263497238816,0.991459082806056990477828,0.12773251199538995792615,-0.16531319383299475367366,-0.0647119395031932331807667,9.79517020957421102878016,0.0191415668286636884987129,-0.0145485292340723840198713,0.00354687419467332280820226,3.5860938248033691344574,4.93349843938881083005299,2.04585398252191996704141,1123.07446097948354690743,1141.18336306323953976971,1135.71587871339193043241,1136.28763922377220296767,-138.058804322620147786438,295.169521327883501271572,184.732458831373236307627,321.959575166937497670006,151.572888561858860612119
25.0600000000000022737368,-0.201817653041826305937434,-1.04480609499934207207161,-0.660423369695839923565472,-0.0639752172254240830673311,-0.074896937364415092086567,-0.12841257656837076761569,-0.0227276940223628265425049,0.0130586370349080847785839,0.991440463289868789686921,0.12790058531532033647693,-0.164217858896527513223873,-0.0668474998344341514444622,9.79759831964192962061588,0.0197233813488367389077371,-0.0150284235943915177313723,0.00352123101354934534001906,3.586056519153418609136,4.93355119903382632884359,2.0458538763069964439012,1122.73156921904023874959,1141.9354139540348569426,1136.17521356708994062501,1137.19474408568316903256,-148.389767400915360440194,325.79986687557834557083,190.680066305450708341596,414.511153648655351844354,151.570259284678428457482
25.0625,0.0473844859963874071029366,-0.99939225561380951035062,-0.804632343186817200475502,-0.0652369117330903747209447,-0.0773388442479780308103088,-0.132150700231983997401386,-0.0226610009753460683867843,0.0129336424222769204306349,0.991421769617042536459905,0.128069865392734988374102,-0.16279911458370693866371,-0.0690897612753249845685133,9.79997484658341200258747,0.0203069111994932695319793,-0.0154983350605461065591095,0.00350896051788124893958121,3.58601699969090592645671,4.93360367072123473519696,2.04585320619893273885737,1122.33251214247911775601,1142.81236239761710749008,1136.66927904491899425921,1138.36019499201506732788,-166.13424144674021931678,357.912036788255420560745,195.924325928165529830949,490.026623059982000540913,151.567713374653123992175
25.0650000000000012789769,0.28783023352377778980582,-0.942103157177250682963177,-0.869203765286032159487206,-0.0652898155161209942098921,-0.0796256698585366962106491,-0.135672120537071255741424,-0.0225892563264330735461893,0.0128083026590851394715953,0.991403177259342904825701,0.128238894778589546108449,-0.16105819862690290422691,-0.0713619333698393282228167,9.80227522650581128971226,0.0208936668125412998431312,-0.0159591472842006212862209,0.0035108709534347544607702,3.58597631184252030323023,4.93365516843974827310149,2.0458519302566320341441,1121.90089801180670292524,1143.72497413797577792138,1137.15483519673057344335,1139.64487720098259160295,-172.597670594302826430066,348.968528995989174745773,186.055852751715690374112,515.503039009547819659929,151.565241072559530266517
25.0674999999999990052402,0.488182817758063603008623,-0.863417841434480970441712,-0.845232714191995304631178,-0.0637424436211498357529592,-0.0820298508901170508877954,-0.138374652051320851109395,-0.0225108550297924668581739,0.0126879961098404440283938,0.991384608562734803705041,0.128408027083548537117252,-0.159011118114573801740619,-0.0735735114846971238744544,9.80447371100293452172991,0.02148537210251333373634,-0.0164118860215109983735626,0.00352682890787977881483228,3.58593552356061850971969,4.93370676830720444883127,2.04585100699771027521479,1121.46952378950777529099,1144.55720504259670633473,1137.59955830867738768575,1140.93771018706229369855,-174.350100327035875125148,313.644928789034224791976,185.344492122331331529494,536.676449336816745017131,151.562862283754412828785
25.0700000000000002842171,0.647038893262057657196351,-0.737702695479175440951281,-0.743949089919146100413627,-0.0605741991703769369626009,-0.0851126307594555903124345,-0.140621862271115866116489,-0.0224260158857361585615919,0.0125759585612062203124895,0.991366092633576112547189,0.12857668395681282058618,-0.156708405215072510419105,-0.0756785477220665858677506,9.80654430422967138269996,0.0220837370286113762740676,-0.0168576018817238847125051,0.00355570803591390063175259,3.58589542385673265556534,4.93376018459451870512567,2.0458521296745435513742,1121.02914751017169692204,1145.29319878192063697497,1138.08155765734204578621,1142.32825944766614156833,-135.631849369677837557902,205.92096563248938423385,171.995862239012467398425,462.584311142736453348334,151.560121155979686591309
25.072500000000001563194,0.698968038054376350487473,-0.60871610254248831317625,-0.625255845823397549132494,-0.0575821183148270618334941,-0.0873157927746684575653902,-0.14181131548904182815285,-0.0223321084798602902121711,0.0124724999620123254417958,0.991347575771605371564021,0.128745708473442521668773,-0.154140979169835490303342,-0.07767799068858717570496,9.80846416026820122624486,0.0226903385906538253291576,-0.017297236759347363321826,0.00359534033435735108849562,3.58585577157430579475772,4.93381627004384792911651,2.04585564163340194454577,1120.79136454265903921623,1145.58680987075968005229,1138.4595376198728899908,1143.25063174277715916105,-55.0458132468175236340358,39.005842497507302368831,152.676021665805279781125,303.572535574554819959303,151.557934682747230681343
25.0749999999999992894573,0.674813989977312567170031,-0.467284721589385165785302,-0.497823386307169490905267,-0.0552102949761236611037063,-0.0887396531221057022209564,-0.14242803180104768312475,-0.0222293360366402452388268,0.0123780870538025295629625,0.991328963554712894179488,0.12891574935101907106727,-0.151357786817083228569913,-0.0795730957644990022359366,9.81021195057754447077514,0.023306297156029682354772,-0.017731828439937723229658,0.00364316465882220550873138,3.58581586054732204260631,4.93387523551522644282841,2.04586144937392511167218,1120.75391844393766405119,1145.48822799440813469118,1138.84493776567092027108,1143.84612212553861354536,36.7152286190121515119245,-127.64744814365069203177,175.349366212902481265701,178.602658091166688336671,151.555852954333232673889
25.0775000000000005684342,0.588596228469076221401224,-0.305660623527363339846374,-0.353512114109653940996481,-0.0535879156547983542813185,-0.0895477089109908974684515,-0.142781795536728040030283,-0.0221195426496196070886846,0.0122917787724158376200245,0.99131031471422192957732,0.129086136065541534634349,-0.148437769597555335732153,-0.081392079711238490835612,9.81176932345991481554393,0.0239320845330958688335077,-0.0181627953798880990843312,0.00369647463777485977415305,3.58577529060983390962747,4.93393616343496432818938,2.04586909933809613093558,1120.9749406857540634519,1144.94857263004155356612,1139.33628445093722802994,1144.14364503323281496705,122.66213871601485152496,-249.828659515751013486806,183.658651079028174990526,40.9509169104939871886017,151.553478867974916965977
25.0800000000000018474111,0.495387363497424126901336,-0.193498641188451142580718,-0.243872601640719194326934,-0.053050068464450372829333,-0.0896195817508063236056515,-0.143138518937577702283548,-0.0220074668967246214745792,0.0122111960116122776620617,0.991291716608532991195091,0.129255628672928335465286,-0.145512823987486994425922,-0.0831932252611108785655958,9.81312087532171339887554,0.0245674501474014810031843,-0.0185920560039800168705693,0.00375278297461196196083133,3.58573290586226001153136,4.9339975510094165045416,2.04587789861317803641327,1121.36722913751805208449,1144.23908469682874056161,1139.76323102106653095689,1144.0508767100911882153,189.593107694955932629455,-305.520508110809544177755,168.776499195643651773935,-97.8426199035506272139173,151.551605337852635102536
25.0824999999999995736744,0.403530652809462875296731,-0.116949421003429199217294,-0.140212655061752927698748,-0.0526838415453707645252912,-0.0893206808662996842862469,-0.143769282413687166100047,-0.021899510391717173091175,0.0121339050329174694825562,0.991272980960952954099241,0.129424834355727630397226,-0.142745622685974182797253,-0.0850342958132719595187865,9.81425482174605967600201,0.0252115091507564836881272,-0.0190218626342587224242742,0.0038100690789536271856075,3.58568760063667602011606,4.93405888643091117273798,2.04588790255917940541508,1121.922906224228654537,1143.4209700894878096733,1140.18016694691527845862,1143.65443193371515917534,267.664796867719417150511,-346.004741749971515218931,173.006650012746689526466,-223.639829460625065848944,151.549841864374798205972
25.0850000000000008526513,0.306849938921965603721986,-0.0678989544191366672931665,-0.0149655055066652900586099,-0.0519558889545037733137534,-0.0889052809312406711050869,-0.144619486787091328094945,-0.0217992632442401863823722,0.0120596495772574089505591,0.991254114608450032086751,0.129593147528747565377927,-0.140247632733243698943681,-0.0869175830167111113100376,9.81516464545375910688563,0.0258627651618235955555125,-0.0194547186446083035515908,0.00386686035287934397677856,3.58563895136138643948698,4.93412018932011431360252,2.04589862435160840803405,1122.70555312185638285882,1142.50906098807922717242,1140.62826427113009231107,1142.93267756278828528593,298.539685723273635176156,-299.699585583658915766136,150.77556433804164726098,-287.071347856625379790785,151.547853509367456581458
25.0875000000000021316282,0.239780802912749085864519,-0.0552937298378185157488041,0.0907531007277891238471668,-0.0512656332381800430852969,-0.088837629077493818208211,-0.145181922728995854710021,-0.0217067000331186109318704,0.0119913565664565915924733,0.991235535487128727183403,0.129757115902560032916213,-0.138065371748717358180158,-0.0887683981635966623535694,9.81584898259342963910967,0.0265192476374305798059172,-0.0198931736798050838588292,0.00392236049736491634853941,3.58558711456629497504878,4.93418156831262333383847,2.04590865428729218322701,1123.41560465284578640421,1141.92247216156874856097,1140.93404476860587237752,1142.21907519443129785941,292.886100115096326135244,-182.234079271065525063023,105.396430673384259080194,-288.324060570824315163918,151.546302947063736610289
25.0899999999999998578915,0.187678731305797708017735,-0.0567231675934748366674221,0.188852150282690672833397,-0.0507245529514236820345374,-0.0891964410545208474800916,-0.145190362355861912746491,-0.0216151760443702087299833,0.0119315626658534849197091,0.991217056336100243996157,0.1299190363367861977828,-0.136110227853301735123637,-0.0904969832353186287576818,9.81631244252445078757319,0.0271791127407558681661204,-0.0203390990025937024032743,0.00397612002960501514231551,3.58553270088543563076655,4.93424326096718957046505,2.04591667780033636958592,1124.16998362243157316698,1141.59789059172408087761,1141.15524642449690873036,1141.49105725993445048516,311.126236547732389681187,-83.1487359185013588103175,75.0859083362833388264335,-282.648190429164799297723,151.544862070467871717483
25.0925000000000011368684,0.149115493694171180605323,-0.0581504323086891664051912,0.267372872118068261038104,-0.0503612261577205955198622,-0.0897284575043997278953611,-0.144331504820058076354883,-0.021520011906115937838635,0.0118796227298404652450436,0.991198544836928596701853,0.130080750565981562161255,-0.134319114916605475418265,-0.0920756935310776958303336,9.81656154797119206989464,0.0278405441631082092857064,-0.0207937710520719604145867,0.00402808805794748099604607,3.58547655690849742526893,4.93430584962810758753449,2.0459227574780811664823,1124.9712358355841388402,1141.50672848197632447409,1141.30947431028721439361,1140.80583424228575495363,337.742431654645656635694,15.062511764520690960012,49.8338519344641994734957,-256.835515261542411735718,151.543511128178494118401
25.0949999999999988631316,0.128223744819395191196776,-0.0501654445003472046482607,0.306101559887445917595983,-0.050184572618238748598074,-0.0902613637438214738706321,-0.142736650402788350922023,-0.0214204640820463004802221,0.0118314253322233543103126,0.991180019599365191851348,0.130242611817106834770641,-0.132691958322638636769142,-0.0935506718101426493205963,9.81660350159786609935963,0.0285018049768925724185564,-0.0212577790501724990523957,0.00407839961319997074823407,3.58541902168650494786561,4.93437038136821293221601,2.04592726815076186852593,1125.85869578070446550555,1141.67320315054666934884,1141.40441568416918016737,1140.20687968362699393765,419.204141358151616714167,121.209048840206847330592,36.4782260878273305593211,-242.402369031790868803,151.542266843949448684725
25.0975000000000001421085,0.123352341122157566077888,-0.0254031172094291990415371,0.29836061140413039360908,-0.05009352075787851937827,-0.0906804860485134339720403,-0.140820437628368932969636,-0.0213172420794395731102888,0.0117841132885449523942656,0.991161233005693365072375,0.130406648679157577408461,-0.131254600559103040691156,-0.0949446203439513192190446,9.81644683616503677114906,0.0291614356096793654604671,-0.0217307869695701483259143,0.00412722102755127585871353,3.58536015609234359757806,4.93443737138832627664442,2.04593109844610543390786,1127.0672565423744799773,1142.11277372617723813164,1141.4918654407263147732,1139.59382239712704176782,471.518489704144258212182,191.346840951830358790176,33.8432178676893826718697,-211.898329192700487055845,151.540893998518924945529
25.1000000000000014210855,0.133359728999608045940661,0.00632043715231341961952038,0.25318608104544654269219,-0.0500274427398349555429213,-0.0907696030075927778879574,-0.139632667642580199363067,-0.0212133769426595258922319,0.0117330923055803306581657,0.99114198807828746140558,0.130574283361252596602498,-0.130068539667594740283363,-0.096318567875450955551031,9.81610093852627052513071,0.0298181995233950287993441,-0.0222117741587115474777292,0.00417448000022891795718349,3.58530052696475243223517,4.93450766311269806152495,2.04593498010856267299573,1128.21628822922639301396,1142.62993735530631056463,1141.57363177350771366036,1139.14738803766294950037,487.8163273935630854794,224.153650824927382245733,39.5457610279742297620942,-176.463022816586629915037,151.539847513240772514109
25.1024999999999991473487,0.150842340861205875812701,0.0449925354059051568755834,0.187125156803729653098856,-0.0498501293649325147305795,-0.0906931083268286419851734,-0.139205671483033754931569,-0.0211114493995619954824772,0.0116761827672450611143029,0.99112233364617052799872,0.130744929253861080775678,-0.129188062253262792022923,-0.0976851277769811981999126,9.81557702156756128886173,0.0304710467839327189820686,-0.0226992980132860559805419,0.00421987721253990876596474,3.58524033526870411492382,4.93458153897696849554677,2.045939207981966045935,1129.50633817934181024611,1143.23354198030165207456,1141.68959424586614659347,1138.7115072830442841223,585.646950890830453317903,262.927671590530280809617,59.7541974144524559164893,-204.816474363355894183769,151.538898487358721922647
25.1050000000000004263256,0.168032772789305118177339,0.0935397237081886656628882,0.110526887679208388193253,-0.0493677979427987051463944,-0.0905156497415095240288707,-0.139579508965787302265937,-0.0210156619853894971461372,0.0116124798317115991014292,0.991102462229212277655677,0.130916533450613992162204,-0.128697775977998030150218,-0.0990369418953812863382069,9.81488729434418161190479,0.0311190976473268848812026,-0.0231917648324300521012198,0.00426297966182857725886413,3.58517992374764293828093,4.93465863042077224065451,2.04594454413670367998179,1131.14452298367996263551,1143.94457571325870048895,1141.87240276057991650305,1138.12330566584637381311,594.926054859493319781905,237.334352845724879443878,71.4093094981852374303344,-234.823764727223448289806,151.537867192066187271848
25.1075000000000017053026,0.16913784073786355954816,0.131434624396613991548222,0.0630406533858105105894154,-0.0486615928442477099769015,-0.0902977935660574521081756,-0.140258901543890424079564,-0.0209276957106496915017591,0.0115398884020896843466408,0.991082126737182211861921,0.131090882829293653433211,-0.128624665001491667037925,-0.100384523427776442550119,9.81404657766063337476226,0.0317618659790543864107626,-0.023687406855367347524588,0.00430297657259790487793705,3.58511926633276711839926,4.93473860971674405107024,2.04595118858682623042,1132.48096845364079854335,1144.42021374453088355949,1142.04664079335725546116,1137.53738845940756618802,494.509233558990842993808,138.434012290627180163938,68.0659479422637474499425,-255.972913678857366903685,151.537093179124354946907
25.1099999999999994315658,0.147307815332213931647232,0.160977733724992078112592,0.0361984426213751223078141,-0.0476318594482328105943481,-0.0899392474370071942635363,-0.140813674698095275816812,-0.0208438861908121012000983,0.0114610215537209545605402,0.991061451403491000533563,0.131267381371861113770194,-0.128899983391136785382258,-0.101635016796211813394635,9.81307329778233672357146,0.0323988924471739492272349,-0.0241848603563837583063645,0.00433898880274546667329405,3.58505806808087745807256,4.93482029553306045244199,2.0459584507751924498109,1133.61706915147442487068,1144.63674577471169868659,1142.21273250029116752557,1136.84344109745234163711,411.327510865239673876204,7.93410260962603874901333,64.0808594899354062590646,-319.82249059466988683198,151.536402551885146294808
25.1125000000000007105427,0.0941313909154850164684447,0.179827629210730116637862,0.0157331074801035260268822,-0.0462542369259745511644866,-0.0892230328877214040605992,-0.140926630568412425414948,-0.0207590259924155702553339,0.0113784082414923291837194,0.99104083304505141693852,0.131443623651098240312507,-0.129421071174449175966714,-0.102695594991697350395476,9.81198789818937910922614,0.0330296365041990655497806,-0.0246833066403383469267219,0.00437015087233582569942181,3.58499661032435046337241,4.93490316582912580400944,2.04596595992918706130581,1134.53760600796658764011,1144.45988425757900586177,1142.36704509080686875677,1135.93827600643453479279,238.58240159239886679643,-148.853520207709408396113,46.7279727109814473351435,-329.138970805356507298711,151.535664643757598923912
25.1150000000000019895197,0.037708879969406486343253,0.177999667072467587791706,-0.00617135988936627199324958,-0.0454333580523037239284889,-0.0883639800239022221717278,-0.140646224868945762809247,-0.0206724705419836958519841,0.0112958746266380999356826,0.991020332821625937747001,0.131618902353513783642924,-0.130173102526360939812378,-0.103462493190499854600617,9.81081025265005202129487,0.0336534658348731433030743,-0.0251822514324525764672913,0.00439612117633043399111958,3.58493481587177642566644,4.93498705385887959096181,2.04597377601508823019572,1134.80998115943702941877,1143.89247817367277093581,1142.44637236384619427554,1135.19774624342471724958,-9.86488597050279913958093,-311.416407909853774071962,25.5112388162211409792235,-271.022755089606391720736,151.535121952738876416333
25.1174999999999997157829,-0.0062897452099151367199692,0.158691580257942443932251,-0.0495573637848998119204147,-0.0456672627637851255566481,-0.0875747172955489844303756,-0.140235737962810441681327,-0.0205869334855398079808797,0.0112155003430790042168175,0.991000192498118104289517,0.131790761013369950305218,-0.131198640217406681252044,-0.103877646750471272496519,9.80955981298629886566687,0.0342693647231694584198713,-0.0256817309231429057037044,0.00441688809115598282617476,3.58487167940680295785683,4.93507185451388519226157,2.0459812572462054980349,1134.48828157811408345879,1142.90280221803004678804,1142.49460128488794907753,1134.58316223098677255621,-226.175076842263905518848,-450.355386989029739197576,23.5491991330992753717055,-208.162669257304088432647,151.534650800463083442082
25.1200000000000009947598,-0.018193166501260533279849,0.130609727072354797616782,-0.118546164194187023110949,-0.0468182501377149631882624,-0.0872582909147460311638511,-0.139857573266106344211934,-0.0205016397007344239322713,0.0111368969386727110354451,0.990980028559549364075565,0.131962193574105934867902,-0.132461044512384495952517,-0.103925133833090863055837,9.80825803832315656904939,0.0348762989109252935504557,-0.0261817188548617608978564,0.00443229613642646524257485,3.58480618459808386688792,4.93515662797955290130858,2.04598780907276855955956,1133.679105775225934849,1141.64070123872807016596,1142.56411835951166722225,1134.15693289713840385957,-423.673398998482014121691,-537.909911304266074694169,50.3513711521661022629814,-108.979150243193274150144,151.534236935169957405378
25.1225000000000022737368,0.0245391965275138929092336,0.101471338328941118600568,-0.219829346860690277853934,-0.0482101139282976876021536,-0.0873981815569326997428234,-0.139657752406147972479289,-0.020415013594164269083997,0.0110620971446635206481002,0.990958943370906508718576,0.132139976279085469279551,-0.133910080499793471275893,-0.103543629818448834623013,9.80692706868516062002072,0.0354731778934302549588509,-0.0266819629451222860294646,0.00444239806400308339523475,3.58473776669853583243253,4.93524050435622996246821,2.04599349387582751802483,1132.3699145831205896684,1140.2132526615073402354,1142.74635814064890837471,1134.03826647977052743954,-651.277752282969686348224,-614.807694519717642833712,129.148078924734591055312,29.1477211219047376289382,151.533890329075148883931
25.125,0.134564466503758389803735,0.0727899641699434329922269,-0.368945237768914968690126,-0.049172201612036732509825,-0.0874522562901594718853815,-0.139824013376268319053253,-0.0203252168657479075075667,0.010990733295906754754534,0.99093635169357086045494,0.132328786764684624976951,-0.135481586637440754028461,-0.10272244688556746161634,9.80558917059131829319085,0.036058707777119121395959,-0.027182069096657334589251,0.00444706289417678892611496,3.58466579294478693284987,4.93532369676177573580844,2.04599836702548776301569,1130.42271701381173443224,1138.56666276613009358698,1143.2098587541352117114,1134.30267150274789855757,-738.587745019832823345496,-555.778567362741910073964,221.623263766149165121533,161.928022900279216855779,151.533550626499533109381
25.1275000000000012789769,0.255248005267212585422953,0.0549552136305805072336028,-0.500785270305728280604285,-0.0491161344433654958874236,-0.0871470657802739939734593,-0.140479848439227644751881,-0.0202319875420048644887316,0.0109222057681176831084313,0.990912083784563968436032,0.132529971203433544202355,-0.137139600784732085259066,-0.101464881035157050703788,9.80426572570274679208069,0.0366315182888944587680236,-0.0276811734617173933747925,0.00444610563252426180952392,3.58459072676059253836911,4.93540764954364075123294,2.0460030915046809596447,1128.67697585802216053708,1137.4343598246941837715,1143.85447445947943378997,1134.84790659427176251484,-675.426547907088888678118,-370.410225319193159521092,311.586581396084682182845,269.026117176425827892672,151.533330533190195410498
25.1299999999999990052402,0.370768179820932852752691,0.0435774650856329756609675,-0.614411158115470090734789,-0.0480163015475411972254882,-0.0865251557410074423337676,-0.141901415130548713694481,-0.0201369203103903583740308,0.0108535703604214599227173,0.990886367097732367881235,0.132741817694427527429823,-0.138876820246169818684479,-0.0998307956657956963031353,9.80297682402554748648527,0.0371904214111942119092014,-0.0281776566264897027069836,0.0044391086331464126718549,3.58451415963229402805723,4.93549429068690148625365,2.04600743514785454735261,1127.04558427427696187806,1136.71461163953449613473,1144.76779166111532504146,1135.64780208862975996453,-641.466610912121154797205,-208.97506508112721235193,446.2826022025616339306,378.038365714139843021258,151.533175741907484734838
25.1325000000000002842171,0.462136746317115543192244,0.0444408027574809474935513,-0.696606601360981736448252,-0.0455022331325275614100079,-0.0859448357046302263695381,-0.144646712547699951567637,-0.0200398122931809592739416,0.0107845016519208230371119,0.990859648832143391494753,0.132961045041615794071177,-0.140656885869767100949446,-0.0978313443882943278850917,9.80174245832074930717681,0.0377346916724588740676971,-0.0286689715445462428577983,0.00442547436911449806884455,3.58443694397913592553095,4.93558472111780144331306,2.04601165721163624766632,1125.46964280346219311468,1136.38948449928875561454,1146.08588747049179801252,1136.73809842284208571073,-488.073750035278351333545,-40.6579108193246909763729,498.154551395118517120864,392.292513481542584941053,151.533065307825040690659
25.135000000000001563194,0.478959767927577217960788,0.068745318519102080467853,-0.701456219559747462533039,-0.0426758443154283337306332,-0.0861134932361330984740277,-0.14766788831215152399956,-0.019939598340988205771307,0.0107133455228487304428109,0.990832548455985118174283,0.133183347024305981376457,-0.142422995223074444481881,-0.0955086762862634025550435,9.80058175696996691783625,0.0382641732461222530692346,-0.0291518674613690589869641,0.00440423080802242530862323,3.58436021517822966941935,4.9356798436629834014866,2.04601740120426311975166,1124.6052155240993215557,1136.51132208543776869192,1147.2585644180921917723,1137.6092646560384764598,-238.854693683881350807496,96.4575043467185366807826,452.444592931168699578848,305.347973517897855799674,151.533035479412660606613
25.1374999999999992894573,0.43395532832016930901986,0.132004246676165282181614,-0.635507027973003402188112,-0.0399787706588655908368501,-0.0869184891623762112544682,-0.150699089412978881608041,-0.0198353164609974819132532,0.0106376779785398653532802,0.990805352847686671147187,0.133406960077045555479458,-0.144118219789638735139903,-0.0929278235630024845859154,9.79951210001379813263611,0.0387794442417153731317292,-0.0296225317500314611063317,0.00437426536259202629330911,3.58428513355853262112305,4.93577966122863376341456,2.04602567083173436657262,1124.27536933504302396614,1136.87177202102225237468,1148.34811043514719131053,1138.26483829043127116165,-47.8218573488088267708918,149.503535383048728135691,397.693831997218694596086,204.286219832278845842666,151.533068982897447085634
25.1400000000000005684342,0.358407385751472185031474,0.230465312480190448463091,-0.524783484239582986852213,-0.0383927687236593415121,-0.087651221960139233391196,-0.152801379002727028000308,-0.0197255223193953943550127,0.0105618782452619550810136,0.990778653877350756751241,0.133627372256091919711096,-0.145695825008368529118741,-0.0900278679669783143957318,9.79854849996178778326339,0.0392813248176444307357968,-0.0300774625203287064578728,0.00433511414094661217538684,3.584211403392557393488,4.93588313410487256049919,2.04603599849913964092707,1124.36610623735532499268,1137.25883976235286354495,1149.24703357807788961509,1138.63069575519966747379,115.468839964737568948294,119.795297354978728776587,288.3678212603061297159,61.173302691591374014024,151.533153669120821405158
25.1425000000000018474111,0.287638770249819764046606,0.358430810490093065823203,-0.392749070811559242155653,-0.0387521815817318676655745,-0.0876662995941119016496401,-0.15313993393316688296224,-0.01961219916438195973174,0.0104873450078731608042792,0.990753077207443655360919,0.133839554503318275413548,-0.147169772072700322240735,-0.0868216434978902190655603,9.79770120987542902923906,0.0397707561554510452550559,-0.0305138513056188061256524,0.00428691818880441548322846,3.5841380656724686204484,4.93598936270510257884325,2.046046877030030852751,1124.85271353486700718349,1137.47074850779745247564,1149.78994954144945950247,1138.57070480388938449323,262.577782666455675553152,13.5894137212316969964832,134.270780577780328712834,-122.747130345057342992732,151.533297953140845493181
25.1449999999999995736744,0.254911091364471154019355,0.511631387185440544840276,-0.249604029562314422285851,-0.0406035234082176010872445,-0.0864254602422257489635626,-0.152108198043491682494022,-0.0194987663301211984479,0.0104188040581941320644743,0.990728850535376737163062,0.13404096264412898587004,-0.14859246130435588284513,-0.0832670302593800926160839,9.79697547315648087362661,0.0402488015843747368172068,-0.0309296314541330184810786,0.00423094789900461606957371,3.58406445272134099866435,4.93609776939100530768201,2.04605707169265649270073,1125.67899515068734217493,1137.32678683095900851185,1149.91838748096665767662,1138.01696010347450283007,308.545482605193228664575,-129.550422694890897901132,-47.3929672742636896032309,-264.10048813282423907367,151.53353660857490581293
25.1475000000000008526513,0.281690815454842258258594,0.608688196664571967708923,-0.155292371221015385041042,-0.0419234012966766059204993,-0.0843169036843007119186311,-0.15136803932479855894222,-0.0193913499606173794775899,0.0103547138711837967417484,0.990705744659927556305945,0.134232527163756470978129,-0.150054407987939175672665,-0.0794554030584080084320675,9.79637037605754912306111,0.0407166383044777410726844,-0.0313236559303711678547977,0.00416904104826378799769637,3.58399027590124141795513,4.93620780736683872902404,2.04606612066593296361816,1126.39544094789266637235,1136.82299639432312687859,1149.55298470507818819897,1137.25020236322552591446,255.972951601284876232967,-267.689458214044350370386,-242.146937529345251505219,-330.434162148334621633694,151.533787149910011748943
25.1500000000000021316282,0.342301890626302951492477,0.644423539430662328797439,-0.0773301686122746245732884,-0.041760269893284768238928,-0.0815279684067782561829318,-0.151718318824748399364921,-0.0192953906786005394136119,0.0102961919039741833792334,0.990683447796201432922203,0.134415699587215525800943,-0.151642540770346945233626,-0.075427783186079483401798,9.79587924021929978835033,0.0411753513115391892029926,-0.03169595164830454891991,0.00410389353915411626838594,3.58391510179976302552518,4.93631765365975194725934,2.04607412168554780862451,1126.95885990869442139228,1135.98833953988810208102,1148.70765279331931196793,1136.36478929273198446026,186.68680825179839644079,-400.565519459530719359464,-466.509855260257666031976,-364.475284932750355437747,151.534087369665485311998
25.1524999999999998578915,0.401755495951195751302976,0.603961413912917355339971,0.0204636332201586501611246,-0.0396532108338077393661081,-0.0782282705191167382352546,-0.152960984717027737023187,-0.0192119791798798580928498,0.0102458154001093190710314,0.990661792927518769502626,0.134591388925249827446251,-0.153366139482306207408868,-0.0711868763532629567070131,9.79549063616975068669035,0.0416258730592889564237069,-0.0320477237433256165188844,0.0040385622702983660359255,3.58383849587979508299895,4.93642585519808552163568,2.04608067571367868708876,1127.32887498915147261869,1134.82016879702587175416,1147.22043542877736399532,1135.42782593856213679828,80.6738278850094872041154,-415.643741435306708353892,-602.205723776643708333722,-291.91477332625606777583,151.534500447873512030128
25.1550000000000011368684,0.404031852214877584827946,0.50958005912880011134547,0.114930002288206115079738,-0.0367353206044280164443983,-0.0760490999561306418863538,-0.154013708681597388805429,-0.0191412025101525690162774,0.0102001484318365708697796,0.990640166444252456834363,0.134764384868271608342027,-0.155201378324286709542434,-0.0668497339451065430981913,9.79518724979904398253439,0.0420692471018830338458372,-0.0323807134092595066965359,0.00397595819434105185452566,3.58375994973819622657629,4.93653210484961491033573,2.04608486403426237387748,1127.36222904811938860803,1133.91012083271198207512,1145.6966241744366925559,1134.90521542610099459125,-31.3551717100443596564219,-305.961309124601882558636,-631.200768098677258421958,-137.762406233905608132773,151.534885539115691699408
25.1574999999999988631316,0.337793571899933753321932,0.380149265568163696737969,0.215760040602742120263713,-0.0339113516951355456474637,-0.0750296425810689227020589,-0.154439751137646685830163,-0.0190784859385484568961022,0.0101575794951459571352492,0.990618313528340510565329,0.134937352386189951536366,-0.157041715474340537461728,-0.062484546273365942914424,9.79494730327872886732621,0.0425062714873162411644003,-0.0326971918081653406540354,0.00391886726331732403172392,3.58367950668657098134418,4.93663697706194337655461,2.04608659424975192209217,1127.17209913060128201323,1133.29036225140316673787,1144.06443158828460582299,1134.73901390739274575026,-106.321894021014728082264,-171.926789127417208646875,-691.436932999569080493529,5.04405447154668173936898,151.535309551889639578803
25.1600000000000001421085,0.197196299453370360588167,0.225047856958682179762121,0.314515279618645948733757,-0.0325464234120362849722596,-0.0751321735523471923023919,-0.153689372853734296242578,-0.0190188236160315979339508,0.010116561230645833638353,0.990596321150201131189306,0.13511050126169121821107,-0.158775103254979121913948,-0.0581551357734628529549958,9.79474347247113108494432,0.0429375038037917433619839,-0.0329995618117933792179386,0.00386979599189718687438089,3.58359706147341716686583,4.93674100164642926102943,2.04608649653058582984499,1126.83061957801442076743,1133.05048688707506698847,1142.2394395094395349588,1134.93043569845872298174,-120.270013801093540450893,3.91165593455098115072133,-610.163758508139608238707,121.002092769032913111005,151.535859658920003312232
25.1625000000000014210855,0.0593744340800056238927063,0.119714855382955440155079,0.350660610778904813233936,-0.0331386789419834335013171,-0.076074890653473489776637,-0.151896663048220997849214,-0.0189577676223921902376457,0.0100750065331139879165612,0.990573987117589926931771,0.135286122487245946688361,-0.160300720647459093992637,-0.0539351248634292387840183,9.79454361212028956629183,0.043363635222022349491322,-0.0332895980550492326388579,0.00383070470967779991289248,3.58351341127564415600659,4.93684428730016566788663,2.04608531435841323187219,1126.57074906159550664597,1133.30992053107593164896,1141.01361279574234686152,1135.34402437123821982823,-76.2959446796382394495595,189.597476409736799496386,-394.916346701608176772424,194.860277099944710244017,151.536350024062187458185
25.1649999999999991473487,-0.0673370092540074710596443,0.0491662789323283333509096,0.314270665400302573466718,-0.0341157089753254261221826,-0.0773954627837099423670608,-0.149508815431228514469808,-0.018888982298081280486457,0.0100298554880074216461017,0.99055156189804527411269,0.135463518777360680811483,-0.161480643765412157364381,-0.0499095038614342095817378,9.79431337320452222172662,0.0437852118212365692961896,-0.0335685894842672194471334,0.00380256779970688163147741,3.58342945036095006372534,4.9369476567057208882261,2.04608309874923488536069,1126.44913985461630545615,1133.99847426912356240791,1140.26485777593188686296,1135.9047370839582526969,-18.4310505726480471366813,328.116247610861819339334,-206.622566869050558580057,229.491652606702871253219,151.536870880848766773852
25.1675000000000004263256,-0.172128575857007054539238,-0.00313517034861602239201317,0.215153103013261071119189,-0.0347741079919547044219108,-0.0782017085483757284913864,-0.147470524702814159700992,-0.01880638258166112547487,0.0099815043211073945644829,0.990529605747239583202202,0.135639415339531915760674,-0.162192666481517644427868,-0.0460943952064299528048608,9.79401655749855670762827,0.0442025833296097250824097,-0.0338371133270587709507282,0.00378572111038909383737283,3.5833457852937082854794,4.93705304515032494805382,2.04607968643026616462066,1126.47859380873228474229,1134.95050176912991446443,1139.98049996139729955758,1136.49148263427150595817,42.2232292339469950093189,413.117344188838274021691,-2.96146428295135955011119,217.345600095793770378805,151.537415241097249918312
25.1700000000000017053026,-0.245341456749738812126438,-0.0638908863121197823087272,0.0596385543207048549052551,-0.0354772572941756819675518,-0.0775913540735217871491258,-0.146623638644486742332873,-0.0187061050612434658091399,0.00993325265091755775503923,0.990508090470134106020339,0.13581428218207722280475,-0.162366241610325257038738,-0.0424536457351229468137888,9.79361615151797870737482,0.0446162195442230818942519,-0.0340945253736470582639484,0.00377984304602392616814766,3.58326270518761846872735,4.93716151226009269947781,2.04607616044544471378686,1126.66025600078614843369,1136.06406099006881049718,1140.25005045451712248905,1136.99146508443777747743,91.5595208713239401276951,483.368735710342434686027,221.975844030838345588563,171.240337931510538282964,151.537985997348187083844
25.1724999999999994315658,-0.295536931566461213982677,-0.185576112814960669794573,-0.149655148890391664906474,-0.0368420419920361189025648,-0.0757466485132166633675865,-0.147051923105059517693505,-0.0185900039461149614583579,0.00988158764268374373296311,0.9904866004410720625728,0.135991079026928418649334,-0.162024427937833559454361,-0.0390968526305252514485566,9.79307600086282725726505,0.0450265293796435067674722,-0.0343393850128197314353073,0.00378339041769399199791057,3.58317938936856528187036,4.93727356173407638806339,2.04607327562604845994088,1126.93639141308881335135,1137.36734544768114574254,1141.09037918155127044884,1137.34768432392888826143,88.8949680615218795765031,443.446678694996990088839,362.298072412503870509681,72.5388088773487424987252,151.538698930716236645821
25.1750000000000007105427,-0.310064123756815079868687,-0.338121542128095253776365,-0.310029464960612732848944,-0.0381672619356189027350901,-0.0744504226879602742927844,-0.14826061441236515481279,-0.0184635815709665099260128,0.00982195975938579546316021,0.990464907711464226380826,0.136170938143057612679243,-0.161259104590454394045906,-0.0361613667591465376416338,9.79236318166590535838623,0.0454335265578703351163625,-0.0345701986773004760200578,0.00379394579307590178174348,3.58309537740244632431086,4.93738966218550334730253,2.04607199953138119141727,1127.104730841093669369,1138.28129438354335434269,1142.06154081657928145432,1137.35415912882444899878,33.2585707516784978565738,305.085064227322050101066,396.566342671782820161752,-71.3395632452010204360704,151.539314469378638250419
25.1775000000000019895197,-0.310220170515609128258916,-0.524817206349795561948213,-0.424533834192807213447907,-0.0390782751952584439525396,-0.0745196966167594176955191,-0.149992477879539620744254,-0.0183342982044580743439255,0.00975134318455057012842158,0.990443311952942107012632,0.136350720747429876578138,-0.160204823161019249688763,-0.0337575081338947202702627,9.79145020395174370264613,0.0458367147651814951792026,-0.0347860834244777053503306,0.00380848118289839115621631,3.58301042808040781650902,4.93750964614677290143163,2.04607284552707469060806,1127.10268426684729092813,1138.89277076881853645318,1143.07321089491119892045,1136.99098650770270069188,-48.0352717888859004347069,186.482809009967951396902,396.319354425929020635522,-248.18640344724761348516,151.53994979410424548405
25.1799999999999997157829,-0.318026386639243652254549,-0.736213173364881345861477,-0.488703377992092624637621,-0.0397112242648112387377601,-0.0766928958045959702216621,-0.152353869421692211805208,-0.0182026300862113965539635,0.00967130217290406400676428,0.990422058123360149473058,0.136528234909254031492765,-0.158872989527130581421943,-0.0318848244960907023504149,9.79031983860713417300303,0.0462356140052460964917636,-0.0349867191517599512851078,0.00382317921006944828193896,3.58292437453689860404893,4.93763219082934057269085,2.04607580721859561023734,1126.86455448214928765083,1139.21370842859300864802,1144.04313758870853234839,1136.11322711158845777391,-118.133353854842283681137,50.6255040360529875442808,277.942571663480350707687,-386.889572973209055817279,151.540732010195199563896
25.1825000000000009947598,-0.348183421427274264470242,-0.859070812765587610293494,-0.47857003790853697156038,-0.040065322522696324158975,-0.0800670086471937936245524,-0.154124025119971891362169,-0.0180656349454905856832809,0.00958656800748134904632813,0.990401108970745180926087,0.136703509386607441333794,-0.157217348922695954183126,-0.0304683268258898881652996,9.7889645063282788584047,0.0466299504676087536725326,-0.0351725595448540706566831,0.00383393243381388885634986,3.5828371839261681230937,4.93775563597172784113809,2.04608122844962769804056,1126.51201749757319703349,1139.14589828899875101342,1144.46292375322832413076,1135.05653864283704024274,-148.752207236626702524518,-83.5883422815213492640396,57.7213867855039381993265,-466.053002613796593323059,151.54139802043854956537
25.1850000000000022737368,-0.418020991869959113174104,-0.890638292485914861984497,-0.411874286406698542073457,-0.0404400347123798770132552,-0.0840187677033654711777899,-0.155637979409185250867509,-0.0179281146421302883808835,0.00949535692794583469078518,0.990379969421647077254534,0.136879236889436373125761,-0.155324781595448324633679,-0.0295751491389664583619989,9.78738323028882462040201,0.0470197158447146559834273,-0.0353449611985731174113035,0.00383681726196395504746572,3.58274884526473025303517,4.93787864412234256406009,2.04608856465527688683892,1126.12079344596577357152,1138.79576671718518809939,1144.33174452263619969017,1133.7829620985182828008,-145.105802796962734646513,-195.898893188262121611842,-191.974663347757086739875,-567.073318353253853274509,151.542075755536870929063
25.1875,-0.554864531281809125751181,-0.816186708081555911675764,-0.28876575598431430957902,-0.0410178576006549541754787,-0.0878205652955004190118871,-0.157125414486535691649394,-0.0177974862588301946386693,0.00939605199715515607139515,0.990358159450158592740365,0.137057591305005499471292,-0.153333965481494749472091,-0.0292698815401894740784172,9.7855828158525337556739,0.0474049839787181667705163,-0.0355063492188028850815584,0.00382855157179911274878403,3.58265956720843670169074,4.93800012832987267330509,2.04609713506070400867998,1125.78648848358852774254,1138.16640382305763523618,1143.50305043648972969095,1132.22117205107133486308,-77.3605534868847115603785,-248.128327861972394430268,-399.509351018093525453878,-540.866393727872832641879,151.542898935673918003886
25.1900000000000012789769,-0.709827895325329305542539,-0.67647446601151617340264,-0.172682530325334759879752,-0.0417245983049323587721346,-0.0897786721027036965780965,-0.15772784261649966386365,-0.0176744206631725894740548,0.00928779635838285037852113,0.990335102147693824292674,0.137242260659894088625776,-0.151255638232751288274613,-0.0295771592849786713053106,9.7835810066303405818644,0.0477860833061539772015358,-0.0356597666404356028468925,0.00380600423276795420124419,3.58256942904849218223262,4.93812000930614924953943,2.04610678832730075171753,1125.73399067853142696549,1137.55512507787557296979,1142.3341977675461293984,1131.07863012987945694476,39.6394292928186331437246,-245.774743662881292038946,-524.926269531638240550819,-383.109998842868492374691,151.543590454417000046305
25.1924999999999990052402,-0.891411165191577259392375,-0.485739292603717287555298,-0.0729113006935984964140829,-0.0433895695916069606967724,-0.0907066343521869405952529,-0.157454539519860714502641,-0.0175566456108216494003127,0.00917268331575061234006707,0.990310303109196099491385,0.13743656454773681141468,-0.149052823591663163860233,-0.030448598529165787907047,9.7814032653340383660634,0.0481633711069454767406128,-0.0358087008173472928773684,0.00376686534696941185268448,3.58247734400726658421377,4.93823816908523571811429,2.04611747507488983544022,1125.98468563005258147314,1136.93753010474347320269,1140.87841908883206087921,1130.30562205685737353633,147.496109201012814082787,-239.660834561257104269316,-588.254026678194918531517,-229.289286786206645274433,151.544284843866165601867
25.1950000000000002842171,-1.07634819470867459934027,-0.273475123882879311842942,-0.0064752887290288425534146,-0.0461466169907834011798542,-0.0910445965151025909944948,-0.156541118000996376524725,-0.0174415053270916588223916,0.00905295799104511959842778,0.990283905272880016212866,0.137639396541571756849009,-0.146683648301172198102904,-0.0318234533249327905535253,9.77908058111569999937274,0.0485369235762746348283869,-0.035957128486164266489844,0.00370977864854920820827933,3.58238324233175697841602,4.93835503460737346159704,2.04612813065000231915747,1126.47147122453634437989,1136.35682090506952590658,1139.39292763415573972452,1129.93218369594865180261,232.966150988221642137432,-217.428654334869577269274,-551.156411459069204283878,-54.2065550465572485450139,151.544979940179047162019
25.197500000000001563194,-1.24403813190194156845791,-0.0525578185892359994735301,0.00775076849801757672420166,-0.0496677293822348556173729,-0.0909147920100318723823918,-0.155284831844239190612456,-0.0173309387749125201616529,0.00892964863781342717274914,0.990256490174813874816095,0.137846207570137158082701,-0.144194621291057756273801,-0.0336688768420292661165405,9.77664592904348950241911,0.0489066443119845900566744,-0.0361090791838240068867272,0.00363473444532905589146599,3.58228765714916086437825,4.93847101915069952582371,2.04613771672755362374119,1127.14951638499428554496,1135.85038683306856910349,1138.12263703153530514101,1130.03458928162444863119,307.567346751072591359843,-202.303094025177642834024,-460.845861929420436808869,122.067633056919206069324,151.545674468706010884489
25.1999999999999992894573,-1.40967511803761169630889,0.210823019047627735478301,-0.0287218448409763335571476,-0.0539724753827683090268152,-0.090380504975475881024316,-0.154247665487543733631171,-0.0172311190017071062807741,0.00880472983862001790100749,0.990228621911347750561561,0.138052344205005866895064,-0.141719847561025069637708,-0.0359379868654398568206254,9.77413243192472513953817,0.04927258269786276984048,-0.0362680077621415977717767,0.00354317731589193999491849,3.58219081205376177479138,4.93858699199644846089541,2.04614560938154177449633,1128.00930795829140151909,1135.34530543494383891812,1137.08869832450909598265,1130.5425218612331264012,297.052274017792115046177,-169.052957527662300662996,-281.460903732078406846995,209.861506065813870236525,151.546506177665776249341
25.2025000000000005684342,-1.51481356788025300907918,0.425687714655044568967668,-0.0837194997935117868337329,-0.0573128859555117400881308,-0.0896417234087439340761705,-0.154108823791107546474777,-0.0171432036911087978814372,0.00867826529294288967486537,0.990200589773434280971287,0.138256500696304712727525,-0.139294626148279532262819,-0.0386014764888142486443101,9.77157581790077323091737,0.0496353221790626561449322,-0.0364362779767169395195303,0.00343677500989294105321337,3.58209240031184661390284,4.93870375152766261095394,2.04615082448590301922309,1128.63477775508295053442,1135.00512204543042571458,1136.71533251287519306061,1131.08389681195330922492,208.014527647113027342129,-126.087604319972413691175,-54.6991533437169294984415,187.324498499260357675666,151.547197599834959191867
25.2050000000000018474111,-1.58443791451345017406993,0.634146744817388308135264,-0.130830650181536944920424,-0.0606754432688735440004635,-0.0885737700906699121361498,-0.154710663375134782615561,-0.0170651415420585324256297,0.00855259364118661491449558,0.990172559717573563808912,0.138459347387223791203681,-0.136902505660677464849329,-0.0415724969748901412858189,9.76901152994332022672097,0.0499959632864154304709992,-0.0366151926448170100814039,0.00331762049656622419468999,3.58199252039321081042544,4.93882169261356640532767,2.04615320439166081811777,1129.0493805965274987102,1134.71486741334365433431,1136.81520255779037142929,1131.4791443537299073796,120.156241355404091564196,-132.739941732033031485116,118.749734440212677100135,91.5721637207025480620359,151.547887662151026688662
25.2074999999999995736744,-1.62051057734290115952547,0.872739261606425786865771,-0.140288800522122447667073,-0.0651842396036640403522711,-0.0868897738116222728699256,-0.156087700397132711493953,-0.0169965107829356670832155,0.00842901226185059290751944,0.990144963414776313470611,0.138660569755223506138719,-0.134560720561166080599946,-0.0447851768267811950474666,9.76647199866736848150595,0.0503560130261516136762623,-0.0368053223080143723788815,0.00318800369619503653345616,3.58189221427636050876231,4.93894136125435778694737,2.04615319713509968835297,1129.23555896185985147895,1134.341422336770392576,1137.30908118507613835391,1131.54175763055673087365,14.4109437937032929255565,-157.822644972688550524254,208.43310346130746779636,-60.9773274516222372199081,151.548715410040784945522
25.2100000000000008526513,-1.60345364572079751575018,1.05456016754582315719801,-0.0894285089469189636846025,-0.0693867589113327104533013,-0.0849562504350982600209718,-0.157463362381298654923967,-0.0169376054678568241373959,0.00830782776718826977691013,0.990118321802713752255443,0.138860493716679966880179,-0.132302905286937944051573,-0.0481926959596383139294851,9.76398608774239207264145,0.0507175818563543462369481,-0.0370064449311668583475488,0.00305000233855695461471225,3.58179231067415271283494,4.9390628898345640962475,2.04615240581318280632672,1129.12143531549600083963,1133.92575418848036861164,1137.8573680750967014319,1131.17425771647185683833,-96.9594180358812565145854,-207.427422872372801521124,206.366428190116408813992,-223.254118561566798462081,151.5494063549797374435
25.2125000000000021316282,-1.53086733062544100292257,1.20371460421770937188057,0.0296210507881957199605161,-0.0738107872827727246045626,-0.0821660465877716988947199,-0.158524797683544493853702,-0.0168903725718968396318775,0.00819049302682200996983397,0.990093100133568326803868,0.139058608933876004520869,-0.130203354525789682938353,-0.051729746598593487338924,9.76157789509382212145283,0.051083219863688480999464,-0.0372178641318755970557319,0.00290556934936739806596417,3.58169371060418351149224,4.93918642698426868520301,2.04615217472973576207096,1128.75076187168019714591,1133.30428522240799793508,1138.34091332602724833123,1130.42548703774832574709,-183.062018760974780207107,-290.952975591848030489928,159.547698101809970694376,-335.134027399838771543727,151.550100653122456151323
25.2149999999999998578915,-1.41358418520855089184352,1.3126057796254364529176,0.197424754728994483743421,-0.0780212649929007406868209,-0.0786771635177767464375265,-0.159025612757467738056505,-0.0168511382148813157466627,0.00807879798509115489013599,0.990068959185781083398581,0.13925410998782300486809,-0.128234287106767430586274,-0.0553096187643430520219923,9.75926930857284524734041,0.0514558218775160516877953,-0.0374385823958646793419014,0.0027558192533450103986481,3.58159705727552557519289,4.93931144239156960651371,2.04615254104865007533931,1128.20612522169130897964,1132.47098931052141779219,1138.65510656560559255013,1129.49858757947299636726,-245.480174124944539926219,-380.782990311702917551884,72.2333084578765891592411,-365.914840407667782073986,151.550799533745845337762
25.2175000000000011368684,-1.25423284819490854502533,1.36137077374163584231326,0.401342237238574595092899,-0.0812785990399037677756056,-0.0747247885523194266266245,-0.158677962452018234129625,-0.01681212320218975972419,0.00797492496458332596198648,0.990045542416991164458295,0.13944649463884015161419,-0.126294543514938129025182,-0.0588283112151757672791952,9.75707921406077183235084,0.0518383488395149638616743,-0.0376674753954033963987413,0.00260127660792909033704579,3.5815021262475283947424,4.93943699218449516763485,2.04615355669371234981213,1127.52336100105571858876,1131.40037027084986220871,1138.70207986831655944115,1128.59591283571035091882,-308.953466899054149052972,-502.94396999234777467791,-36.2157498348623647643763,-327.230774852315846601414,151.551506305256680207094
25.2199999999999988631316,-1.03643326300112237348117,1.34787279802255666183441,0.647966244417923387111102,-0.0838273564945790916613788,-0.0703295471760666951466234,-0.157234571463154226833581,-0.0167656601912723780822834,0.00788134235792901580164305,0.990022447101923441792337,0.13963682174625008380886,-0.12428970027184986502089,-0.0621788708440761811457875,9.75502187510394591640761,0.0522335351448111814831599,-0.0379032913946734453802812,0.00244238157440492594657533,3.58140857782512922469209,4.93956235997853543295832,2.04615453891785126216973,1126.66135788719634547306,1129.95626946056017914088,1138.47402781643131675082,1127.86243370521174256282,-305.108333333479777138564,-528.80037681731266729912,-113.999909305198286801897,-171.785466823791978185909,151.552366840419324489631
25.2225000000000001421085,-0.845071939831587015667935,1.28304354036919954218376,0.82299874781532589285149,-0.0854025955859660929059274,-0.0671861208752316113601566,-0.155227363008532431853936,-0.0167103636926393649131395,0.00779896799720364991559407,0.989999344855767127171475,0.139825953735496055774234,-0.122244935511463162502999,-0.0653041956776579807231187,9.75310486726853831385142,0.0526433734385261600796646,-0.0381448421392574094079819,0.00227999281180067724442151,3.58131589338703459901581,4.93968751110906900692044,2.04615519169908832708416,1125.99781933438862324692,1128.75636838676382467384,1138.13208032179068140977,1127.73698550159156184236,-235.972054509117953102759,-440.251974817967834496812,-136.746811513397091175648,78.2932709476026076345079,151.553096856121129576422
25.2250000000000014210855,-0.647028199606470622029519,1.17382623536184138579586,0.930167570398590437541486,-0.086879114902356682770268,-0.0642104184623015772359622,-0.152298904715819583000069,-0.0166476792333788495281688,0.00772524096147965844832983,0.989976261069273277826142,0.140012850125315307936447,-0.120231328401067996680673,-0.0682252244326362611293035,9.7513306948209486080259,0.0530686999860095071079868,-0.038391123914030884922699,0.00211492907043671395442286,3.58122271484814058695179,4.93981317449571477595782,2.04615505926507346146082,1125.48149761465015217254,1127.75500958646921390027,1137.79029375886398156581,1128.25390005994995590299,-181.545051073262328600322,-351.70822809320901569663,-108.487832140757504362227,378.478800430259809672862,151.553843512746880151099
25.2274999999999991473487,-0.395458856819835113949324,1.00525278405949136661945,0.950048259889449964177288,-0.0881821379089167134424088,-0.060633073336776595330111,-0.148002067754773397600943,-0.0165813105767117323352533,0.00765699179335046099109663,0.989953356542438100973413,0.14019582594772103667502,-0.118360427533144033085399,-0.070984163633342117760705,9.74969705430682509472717,0.0535091200140487693870384,-0.0386411167020832210794445,0.00194815409574335758786934,3.58112844267699914624359,4.93994005311827955040371,2.04615417029699742101911,1125.09009407902249222388,1126.9978272462981294666,1137.5896411610870018194,1129.62937950374248430307,-104.483700064859348799473,-181.508707468119354189184,-12.4770392717916625002772,611.898290400935252364434,151.55476274408357539869
25.2300000000000004263256,-0.16649222839102520432597,0.84671595031964186350848,0.869173042741891221929507,-0.088894794421993286737127,-0.058065780734079107394674,-0.144540112842619500321817,-0.0165138553412893206162604,0.00759196361615677942774605,0.98993054318155870863194,0.140375391431690449417502,-0.116721003314736879175051,-0.0736060231532594533288005,9.74819836882401524746911,0.0539632219845011112946409,-0.0388934730816859336455238,0.00178056421948706404545515,3.58103309085199361661012,4.94006877241773079134646,2.04615319859700850457784,1124.95907911432595938095,1126.84746604912879774929,1137.72790856250503566116,1131.3133915119540233718,-18.6767110976593322391182,47.8685292096752803558957,134.282446886504175154187,742.939332117186609139026,151.555551198087641751044
25.2325000000000017053026,0.0929231993490862440143729,0.691215791695414139006459,0.700869035377714499901458,-0.0894521461286283403602226,-0.0564796811482735777731889,-0.141959690841173546971277,-0.0164446689320361175146168,0.00752564660840432560207081,0.989907732062425438357423,0.14055275546294446198381,-0.115327201518133345969908,-0.0761536377909597939073194,9.74682716361908951796522,0.0544285391166579590738195,-0.0391467529951257178777446,0.00161249049649806732928403,3.58093590643784320803888,4.94019950598872092939473,2.04615212090599740690777,1124.99671052353414779645,1127.23716989234662833042,1138.26105339551986617153,1133.34407616433031762426,40.8021107322919505122627,281.563594903183513906697,313.736190346452190169657,908.57044235576609025884,151.556366576074736940427
25.2349999999999994315658,0.445943132455467683428196,0.534413239248567872863305,0.434722805091592889858987,-0.0897190396102166415337464,-0.0554964852460870655681546,-0.140074743964793801964674,-0.0163748744424842170019918,0.00745240293377159163101808,0.98988523819985685392453,0.140726255720541759686171,-0.114216840655864307341183,-0.0787191848997379484131898,9.74557265098174063666647,0.0549013864351644009786924,-0.039399925616260191019169,0.00144432409453852531391882,3.58083634478737522499614,4.94033266151867156423805,2.04615121846188552368062,1125.16308966798737856152,1128.25528402364443536499,1139.29658951423698454164,1135.85624372373195001273,69.4591370770151002034254,441.84490441861873932794,414.949600163245804651524,885.182871500495480177051,151.557380130653569949573
25.2375000000000007105427,0.770073008881198783903699,0.441643619126290964960191,0.192877461675636352467222,-0.0893092942753890284279805,-0.0550382210322387308010228,-0.139428710704983832568971,-0.0163096154103184384775993,0.00736742819213980718734414,0.989863328619966398314034,0.140894076226027648024441,-0.113498467432711455660233,-0.0813921051452567156925255,9.74442045120538935520926,0.0553773013051995777189518,-0.0396522112715885291511775,0.0012770058553295503527697,3.58073384989934462296901,4.94046850172076812413025,2.04614997384262187196668,1125.34400620891915423272,1129.44639441443928262743,1140.33580139633568251156,1137.76999052183191452059,71.4356637376202456835017,513.365282219193659329903,396.150544017043273470335,681.564643694779647375981,151.558256701279958633677
25.2400000000000019895197,1.1038807918255137963115,0.392446123662084200844902,-0.0293963446922689830564934,-0.0879356822053177639153532,-0.054586772491533486206805,-0.139602815738685825941445,-0.016252518906560552841567,0.00727110142578855228601142,0.989841846772620770344986,0.141057250393543609501279,-0.113255083985792773249024,-0.0841594492445531389135382,9.74335516097650611300196,0.0558516202844695427986998,-0.0399028976645393745892321,0.00111196424316907169216329,3.58062801182883694295356,4.94060654356973305567635,2.0461475457915203612913,1125.52026798667566254153,1130.82211043474171674461,1141.27734223432321414293,1139.26406694220759163727,68.7982430955481021328524,556.743282468298048115685,313.409435305282897843426,507.746911198420150412858,151.559169385743217617346
25.2424999999999997157829,1.4176933462820653364389,0.374629939528106692403497,-0.208101270234204355213947,-0.0856155142579304584415922,-0.0541998378569100644486234,-0.140393080023951122292658,-0.0162057446543617915402091,0.00716613660164844030325826,0.989820783937380155315111,0.141215771459438227397598,-0.113537305444465899673112,-0.0869602083792336416623314,9.74236131318133935508286,0.0563195639604380862697219,-0.0401518934346696346193717,0.000950813482665236343188697,3.58051888377791405204675,4.94074602715434618716017,2.04614309525258564192995,1125.68799742439682631812,1132.23011082678021921311,1141.90284857286178521463,1140.30872507782351021888,72.0759642605260211212226,548.996606657210691082582,126.529299273286298443963,304.187717227493124028115,151.560114037331032932343
25.2450000000000009947598,1.66165732292777357237412,0.380777391925170571873593,-0.30790716833063713764318,-0.0822311490880505285838709,-0.0537266237618686040566907,-0.14188557745757987560431,-0.0161676226169882586436444,0.00705503068285324823338822,0.989799875166748166499531,0.141371819426108796813324,-0.114310560250230772161295,-0.0897274260647416554981248,9.74142527738663055458801,0.056776890563156615088225,-0.0403993903092583692138184,0.000794700789854171181156306,3.58040722450030113321873,4.9408858223410545562615,2.04613575042482676025202,1125.88064780797822095337,1133.56709346802722393477,1141.90998873068951979803,1140.78500552834475456621,104.766756872951248169556,553.35521856853915778629,-172.475804555463554379457,89.8565180110831107640479,151.561099444914589184918
25.2475000000000022737368,1.80547313180439239488351,0.388958802904607048311902,-0.316426157676569563825808,-0.0771117945321967285243758,-0.0524739448861286303382734,-0.144339225012735800079966,-0.0161358712517758913496113,0.00693916378898155189469676,0.989778842359452126764552,0.141527725484940386513344,-0.115515643603679982187593,-0.0924137287842614063571034,9.74053520684515206085052,0.057220028949003021168096,-0.0406459926973153432006036,0.000644237848847940375134058,3.58029385584528503372326,4.94102532073590161587617,2.04612629772606302580584,1126.21183120876185057568,1134.99688691962433040317,1141.04046955008402619569,1140.75800766787915563327,146.845206859763607099012,486.663334549990793220786,-462.64536225248883738459,-93.7990184375126005988932,151.562331599376818758174
25.25,1.74976978915893011112814,0.37476990926031783502026,-0.231333204275139259209482,-0.0715087944289521243446117,-0.0508556791983446263016866,-0.146590198169316149323649,-0.0161034717957096451534937,0.00682024593178968702861242,0.989757491872706118840597,0.14168568876488285557258,-0.116994385358810668029683,-0.0949515771558595844670236,9.73968373048580637885152,0.0576462210452874518340494,-0.0408925724161624676300519,0.000498920405019063887587516,3.58017904717560542238175,4.94116453314304404642598,2.04611646719507778158231,1126.61487384227689290128,1136.00041014077669387916,1139.59676191942753575859,1140.31601043615728485747,189.833437471490043435551,355.312157592359426416806,-692.189552145602078780939,-242.08568805661613509983,151.563401418606844117676
25.2525000000000012789769,1.46277799604444824765892,0.320023064440914772887936,-0.0750930610120265490392555,-0.0642245743814766067991684,-0.0490635203479338477539073,-0.14814887062064296952002,-0.0160654889480670026724596,0.00669771267884733054187585,0.989735788075063016577815,0.141846631780970483527327,-0.118615781865656341742543,-0.0973220235445099585147588,9.73886676127355066512337,0.0580534935795670586911044,-0.0411401891964498223064339,0.000357425837492979779110025,3.58006325384622892116226,4.94130371018356129297899,2.04610700447045879002417,1127.1609983961191119306,1136.77344770758577396919,1137.57952178935670417559,1139.54757922759631583176,261.424462137672151129664,281.492173137177417174826,-947.678792021731396744144,-385.626468426912083486968,151.564517579012829173735
25.2549999999999990052402,0.845298662642020914859131,0.203334341562383780210865,0.137200243643888886158066,-0.0553757496596706533242838,-0.0471771254166314588096576,-0.147964592839563369164324,-0.0160203213667178684387338,0.00657071918583428549870407,0.989713987925765259490163,0.142009029659292018710204,-0.120307624679545324686281,-0.099519693109887980009276,9.73808409588063383921508,0.0584405694437233752536187,-0.0413900493318237680528959,0.00021797547652043278544956,3.57994689652742748009473,4.94144280921154965824371,2.04609805251413545690298,1127.92199615296499359829,1137.4078710064623010112,1134.85836795931982123875,1138.38787809402310813311,279.135166551542226898164,182.664283205112923269553,-983.053183075630840903614,-440.816272608796168697154,151.56591215440425912675
