t,ang acc x,ang acc y,ang acc z,ang vel x,ang vel y,ang vel z,quat x,quat y,quat z,quat w,acc x,acc y,acc z,vel x,vel y,vel z,pos x,pos y,pos z,mot 1,mot 2,mot 3,mot 4,dmot 1,dmot 2,dmot 3,dmot 4,vbat
50.4025000000000034106051,0.0885371693544355492511144,-0.0631638385573154298446852,0.386099931142131758132763,-0.079171341549978666018994,0.025960562148679627164638,0.000558111585443670562417529,0.00294238245255034605238342,-0.00337888145599598904364469,-0.946005996480162703043959,0.324164788831113104272674,-0.0358991448891399500542576,-0.0513774155043560526445745,9.81492178440336715539161,-0.0164135173295874708943032,-0.050782237153796885853474,0.00114814156715275280523647,0.23581810037256761836133,-5.15455907370296362302042,2.11080583586336034684905,1134.95001060230765688175,1142.53487254011542972876,1136.47340406473631446715,1137.31196302123771602055,85.7269472488513031294133,-131.435741994142574640136,86.3955387676482189363014,-270.24938218055285688024,159.216612968734352762112
50.4050000000000011368684,0.301733011548282636926643,0.0812157710758778239590328,0.23704254770718269362817,-0.0798134037731305090446199,0.0261469430299476751633492,0.000711250357126801515186831,0.00291860667641238467548415,-0.00326974434326569168840493,-0.946013521711535521063752,0.324143242690865474031625,-0.0398597126073968882620235,-0.056444969281560522511576,9.81114488123266426100599,-0.0163576693367285981584036,-0.0510198057064361401580221,0.00114920490993779570929045,0.235767821951339856534346,-5.1544370694884786843204,2.11080981653607979708909,1135.09650055720317141095,1142.04579107065092102857,1136.81945399622463810374,1136.68955897307705527055,40.1467760021570470030383,-278.696395540490527764632,207.682290559667023899237,-215.519470968834440327555,159.218461517806957772336
50.4074999999999988631316,0.628170898284770906627728,0.272046902526545730793828,0.0613084935866921448832656,-0.0793599447103652128054918,0.02722389940511673461776,0.000700125900570503596417882,0.00288411580895704547713998,-0.00315302871756054352986309,-0.946023183848928361783237,0.324122761902600808880948,-0.0439162015044042980393968,-0.0610266050340668581020154,9.80734537968300479349182,-0.0163340804920775635455943,-0.0512659106670583994413981,0.00113185998798569047163465,0.235713809132368612431208,-5.15431647411163140759527,2.11081229743914544627614,1135.15074448231825954281,1141.14139056241424441396,1137.51181551753370513325,1136.23436566639452394156,9.36073616716815593008505,-366.868536231134953595756,294.743014316904179850098,-105.599003283660380247966,159.220694897457804017904
50.4100000000000036948222,0.925021022218161292904881,0.426166240244646277179896,-0.0774688004323696999264826,-0.0776365959868254712494817,0.0284847947501152241878142,0.000620738955107815013230443,0.00284601918426335195183574,-0.00303146122568471185557137,-0.946032610012842889446461,0.324105666957767823976866,-0.048069558048097135727339,-0.0649845182659072040376458,9.80358963743178257743693,-0.0163486909448183961868217,-0.0515145165097424667655091,0.0010973662747763466510792,0.235656762938411229457714,-5.15419666058066194835874,2.11081336790770146549789,1135.14330423803903613589,1140.21144838949430777575,1138.29316906780991303094,1136.16156395665848322096,0.112188815319256618430188,-379.624107931464493503881,344.047698947776098066242,30.3166821446056431454963,159.222562540146071796698
50.4125000000000014210855,1.20019901126724803930301,0.559823942514695804817393,-0.205990824461080801466295,-0.0744344015786218976549193,0.0299700991761081073083695,0.000483327654660084093506817,0.00281056911960011384168934,-0.00291004524323990824280495,-0.946039684534148550554278,0.324094183943325675478775,-0.0522812146472534378105479,-0.0681630406044669845400108,9.79994308309992945282829,-0.0164057337963311074269246,-0.0517597213602229225259954,0.00104723640660598325824449,0.235597232216676777394326,-5.15407686125230135587572,2.11081401058335060838544,1135.15130542639485611289,1139.24327002275595077663,1139.2320540122734655597,1136.38594907711762971303,23.3730689364832642240799,-400.099921033552277549461,430.056145214284754274559,140.939828443962085202656,159.224429570601216710202
50.4149999999999991473487,1.45608773148290771004554,0.686698838138446898682332,-0.344185313671639070420838,-0.0695122037423447358683859,0.0320867014390640789556208,0.000162815996934298642083438,0.00278251571876035174585295,-0.00279422834007759472024768,-0.946043797210864956248599,0.324089146911194503353215,-0.0564772841259698760163488,-0.0704263804588169534115494,9.79646926135093742971094,-0.016507178039425366572468,-0.0519959378463448820828496,0.000982918582726718384132147,0.235535813776376751205177,-5.15395621196253106433005,2.1108154274331165645151,1135.26016958272134615981,1138.21094878432836594584,1140.44344979387938110449,1136.86626309887765273743,66.6784405183648232195992,-336.390130532582361411187,440.727875194308637674112,184.358254566765310755727,159.226660678199436915747
50.4175000000000039790393,1.58244211220497033032473,0.761322703963257296777556,-0.43856249483193493476918,-0.064873129896709055830506,0.0341698992926235331490936,-0.000350435060785892719004836,0.00276767577664059367253957,-0.00268865942094593038391714,-0.946045007678632532410745,0.324088547754544598067383,-0.060609088267450469955655,-0.0716642320087048922960804,9.79322842724167585970463,-0.0166523615674036284950432,-0.052218093841554465150967,0.000905702275082042522307002,0.235473359751674882200945,-5.15383410580856082816581,2.11081816146869005734743,1135.48469762898685075925,1137.56131937009217836021,1141.43569338824613623729,1137.30774034995192778297,126.187350177750900570572,-201.423828624398709052912,370.31591104904845224155,155.194436185513694681504,159.228505802529156198943
50.4200000000000017053026,1.60520654755903957600083,0.805138514357276013910791,-0.495619351550835418596108,-0.0601422740330487537452342,0.0363586063094051836763754,-0.00127798393748460676830336,0.0027708341617420574783115,-0.0025959072358895446050453,-0.946043488623797390602022,0.324089325981436970902649,-0.0646276340115601588554028,-0.0718269535107192019784961,9.79027678565689640777236,-0.0168380757782640826103471,-0.0524217641639609724379945,0.000816734692416943176135335,0.235411141142310514906555,-5.15370949853925086614481,2.11082228150346384865088,1135.89110633361042346223,1137.20382964120585711498,1142.29502934912557066127,1137.64223527980561812001,195.38593343954323700018,-91.7295296833724336238447,303.413358761102642802143,102.361919427632855672528,159.23032858341485962228
50.4224999999999994315658,1.54434572154647331565513,0.828772130403657159014585,-0.505866443577804414388766,-0.0558965635932960683285309,0.0381432439389040242594398,-0.00262877244762124533117298,0.00278761614639611021715382,-0.00251470013487244559852174,-0.946040455650603573367619,0.324088902595442929222003,-0.0683493557097357290475159,-0.0710074032065650950773517,9.78766686215958259253966,-0.0170587681095683320331435,-0.0526033379015520205501666,0.000717010132557325814521565,0.235350364372505921339851,-5.15358123910195153882796,2.11082611370621808788428,1136.46162729618367848161,1137.10267172167573335173,1142.9527601820502695773,1137.81954994708962658478,265.094659547367768936965,16.5185336703786624923396,190.415370415978856044603,31.6807002534753152644953,159.232127031439176789718
50.4250000000000042632564,1.39576499931384701014281,0.835303513302263045403606,-0.440149815843078884292083,-0.0525133496287763096299628,0.0391417252932021730860157,-0.00441759569543426211524206,0.00280791473951418242560596,-0.00244016458749102228484307,-0.946036806381432060497616,0.324087770126252061597683,-0.0715229120548271368740245,-0.0694116198736715039885325,9.78544645305644422705882,-0.0173071760170217421592742,-0.0527601212149757664571226,0.000607498633682305457480444,0.235292265908382730588144,-5.15344938349487335926824,2.11082795959409752484248,1137.2165796313479404489,1137.28642230955779268697,1143.24710620120595194749,1137.80063878107307573373,363.011740566522178141895,135.285143680834067936303,12.5135606308440046063879,-38.5561571526325792547141,159.233889019919672591641
50.4275000000000019895197,1.13561139717390968684185,0.820337472033491832412722,-0.256790124035116251732802,-0.0490267360911172192516894,0.0404042928719957755712144,-0.0065975147640338679261296,0.00282869868023844124593769,-0.00236798545015959576581777,-0.946031789406300172018405,0.324090264389043647419442,-0.0740436918682109562750426,-0.0671974220744063766019849,9.78365597553248278472893,-0.0175749681595897128127959,-0.0528904387381366886122791,0.00048951485588392257535667,0.235237852612064035628947,-5.15331461676960422835236,2.11082819764007023621843,1138.27668599901721790957,1137.77909744008024972572,1143.01532798520452161029,1137.62676916132636506518,400.289446850229353458417,218.012312356875554542057,-204.800373987159048283502,-71.4346997151746450072096,159.235951929988914343994
50.4299999999999997157829,0.862960595332501800847069,0.772813135439548659633147,-0.0162941434301511200999357,-0.0463598949904596921434141,0.0423647287947248665784805,-0.00811256785021698817450542,0.00285310584589740538416502,-0.0022940522649868605627177,-0.946024660134463846183905,0.324099846382139955558443,-0.0759416284202314856299765,-0.0644845813018234403912743,9.78232781109612758996263,-0.0178528045351836403553669,-0.0529938447124333536497609,0.000364459947106809945254619,0.235187271374819623082075,-5.15317738937106373242614,2.11082759013074605647375,1139.21802686559726680571,1138.37648387134117911046,1142.22310433127108808549,1137.44346528249752736883,367.454579573034891382122,271.884105888963915731438,-458.15933304324272512531,-61.1619359041156656076055,159.23762122113581085614
50.4325000000000045474735,0.547840461295471259361989,0.662134363090631006265596,0.297971715913166290690128,-0.0442558217512109691726963,0.0451488940534383320635214,-0.00911211338662615798200672,0.00288853526249725810551294,-0.00221593389908766088408631,-0.9460147998017349735278,0.324118971520731435909113,-0.077338006153708435674865,-0.0613370009040233449271184,9.78148604521472719852682,-0.0181309197855062421977923,-0.0530710653976441334989111,0.000233833740766675453152945,0.235140631761548229983205,-5.15303798621175346283962,2.11082731805913326184054,1140.11395889688333227241,1139.13851796952576478361,1140.72453131998713615758,1137.32095948180563027563,358.222540095401654980378,371.070786770079621419427,-819.346912100890335750591,-25.6018140290376301493325,159.239230456838697591593
50.4350000000000022737368,0.145583883183289686247264,0.437048844048141926776907,0.713620438216726493685371,-0.0432159120328264659272044,0.0483372551699252223089687,-0.00873204691941776266206343,0.00293669305955453338249916,-0.0021333704497425460405724,-0.946002413058102842313701,0.324147296343021806830365,-0.0782584627879397282113061,-0.05781452896797597412748,9.78114788192513273656914,-0.0183995137274507204738772,-0.0531239428775915900615701,9.92872810196777021932851e-05,0.235098869946803817887471,-5.15289700111222970235758,2.11082788759836192937769,1141.00913956607519139652,1140.23183780519252650265,1138.12636977076454058988,1137.31545621235227372381,281.580723441067277690308,429.770825504537924643955,-1064.19973987787147962081,23.386065327143466419102,159.241082237306784463726
50.4375,-0.188105589915042004101053,0.175571703397120054690461,1.04189799789755421777215,-0.0438164938665601064182731,0.0502556872900632237155527,-0.00646610369854958445118287,0.00299766926617148730949136,-0.00204777823038289818677327,-0.945988987896464017524067,0.324180482330181207739628,-0.0787108128939529444467738,-0.0539543068180584547977041,9.78132261186044082990065,-0.0186492341305002917728473,-0.0531552572227064062948543,-3.73008494811128245641219e-05,0.235062552597375268303992,-5.15275574897408450425473,2.11082906846759232877275,1141.52186251408738826285,1141.28737209704650013009,1135.40353262060261840816,1137.43788980844124125724,140.896436063613606393119,448.166034810172448032972,-1157.81865984987030060438,68.6140182407312835266566,159.242551981624643531177
50.4399999999999977262632,-0.499103094031578375933123,-0.138073298705365832272918,1.28569670908434785516761,-0.0453627727493640595102242,0.0509377189128230253856167,-0.00252494056633497309868885,0.00306658772986437505939095,-0.00196014917726831851968461,-0.945975341210422149273995,0.324216035717930728399239,-0.0786343429755836792471868,-0.0498283169658378100042029,9.78201199052415582002595,-0.0188724351149003946592764,-0.0531681181197468655241778,-0.000173912980044659871720764,0.235030451738916928983159,-5.15261501168478108780846,2.11083004686882036438078,1141.71362174639261866105,1142.47266797924135062203,1132.33727647152045392431,1137.65852630355561814213,15.9135975190938996348677,488.262847780538663755578,-1237.6885815317598371621,95.8082562415221303808721,159.243936662901518275248
50.4425000000000025579538,-0.783507316909092588197439,-0.464755952112285930510893,1.41805701063579925325087,-0.0472144512822818829267391,0.0502720233685576001203543,0.00222407169300219620042269,0.00313503622476596658860681,-0.00186967142339280198784501,-0.945962480113430981276679,0.32425088460687079283673,-0.077931900673055679029666,-0.0455590589799559769756954,9.78320984712914132330752,-0.0190633793683328799095644,-0.0531655952711763690743396,-0.000308478360164515449937106,0.235000407703749303323093,-5.15247507207866650702499,2.11082955514989034639939,1141.60143050168289846624,1143.72868633595044229878,1129.21508971294065304392,1137.91693108964909697534,-120.347525851486622627817,504.420649809222823023447,-1203.31343410887097888917,102.127788084401387891376,159.245244300885218535768
50.4450000000000002842171,-1.03426864594590739443447,-0.76555331217615485428496,1.38623597381947072371133,-0.0493176324199863513886299,0.0478619606322322338476383,0.00740357058915259297338096,0.00319600122363277719048091,-0.00177888197134536932449145,-0.9459514718540880107156,0.324281615905376907615931,-0.0765246853426972822864727,-0.0411922483987148188577798,9.78490091866002842380112,-0.0192185099916888160742623,-0.0531503377983529312622579,-0.00043837394964367433795524,0.234970601282099567086448,-5.15233565151751538024882,2.11082756444100283488297,1141.11188411713487766974,1144.99477122828875508276,1126.32070930097302152717,1138.16916524397788634815,-294.453441074569525426341,535.00107553548787109321,-1151.19808314366423473984,101.749934976125359753496,159.246452318144520177157
50.4474999999999980104803,-1.29615434770060944380532,-1.05291564882510191303311,1.15296071458875459825322,-0.0523947749166828041778032,0.0434355939124834861120306,0.0131934244244996563832917,0.00324238869721641623927733,-0.00169129989857904824979151,-0.945943591346067869096714,0.324304163853436078213122,-0.0743356128530097831630385,-0.0367498990972481842653963,9.78706107340343223199852,-0.0193364370567257193300748,-0.0531243898586664653471701,-0.00056086038225959457693276,0.234940319853022439033907,-5.15219661322876731901488,2.11082441314311575197848,1140.12916329631138978584,1146.40369171362544875592,1123.45909929722756714909,1138.42568076452926106867,-411.677850659969806201843,480.462269101398987913853,-907.355937289721282468236,86.7273120949914471111697,159.247780321162338168506
50.4500000000000028421709,-1.47942470755816923855264,-1.21640347730720344010535,0.817597572868357880260248,-0.0556645409161222945448877,0.0391788940260089368905483,0.0168881160852582361264762,0.00327420009802245831967427,-0.00160768034630187671776835,-0.94593948669264249495825,0.324316313384441001765879,-0.0714414803366578421428557,-0.0322540601417074107581939,9.78965621653841999716406,-0.019418091574213675043481,-0.053089039522341091581481,-0.000673677678166320105523912,0.234908471660331658048548,-5.15205793018894198098678,2.1108211133123311320503,1139.0534948638339756144,1147.39708257379697897704,1121.78392961452209419804,1138.60280180445306541515,-457.411283214280672382301,343.156256614890480705071,-493.107279637136002747866,70.4953701089019375558564,159.248782580011862819447
50.4525000000000005684342,-1.62123852411764390879512,-1.30947014329808664179211,0.387383440640502008101009,-0.0596561387842005075299312,0.0354049857722805449977699,0.0188002181328195613896348,0.00329380809679230383835158,-0.00152700333217478949505985,-0.945938640892365900647576,0.324319321554141448693542,-0.0679749823174890938082271,-0.027738947889493006937478,9.79264374502129619770585,-0.0194666871791383845613499,-0.0530448086803637780528575,-0.000774989267057444859536364,0.234873677323271301542462,-5.15191998049559440886469,2.11081806519060055649106,1137.84210688023881630215,1148.11947299670077882183,1120.99356289904062577989,1138.7781576150739510922,-528.038852789793963893317,244.07107518408707846902,-133.519806888883550755054,89.7101271580956591833456,159.249674748463348805672
50.4549999999999982946974,-1.73990619835301196793864,-1.37376227506086046048495,-0.159837414052977494494101,-0.0647349182153786478766122,0.0319128131354922267570728,0.0188288079062908196570358,0.00330121004589269909784699,-0.00144645478078031216109811,-0.945941095059251058074778,0.32431294573003693892943,-0.0640335569987205699415966,-0.0232829368332165553834301,9.79597418177799994509769,-0.0194867979252432120540472,-0.052991798632305735228254,-0.000863336332318310811437256,0.234835260509062948575121,-5.15178401168101718354819,2.11081500865831728219746,1136.41330059988740686094,1148.61743794971630450164,1121.11633058007828367408,1139.05135244024313578848,-494.026254942238779221952,118.32955210196217876728,215.232160015265378660843,119.937265207574938585822,159.250618526021639809187
50.457500000000003126388,-1.79661520194604285016737,-1.4157022102096583626718,-0.582476824397897163798632,-0.0688183836705776735831463,0.0296278864199885638708309,0.016979460187876837390375,0.0032999699992192258433954,-0.00136200110435918909576603,-0.945946834702571570652196,0.324297163329712756496548,-0.0597828513474877587530187,-0.0189608643246908653567928,9.79959085198258783577785,-0.019484000342664585525565,-0.0529297751434508953471969,-0.000937537738542363772650812,0.234793184095422546864285,-5.15165061930254264410678,2.11081149265175582740994,1135.37197560552635877684,1148.71112075721089240687,1122.06972369911750320171,1139.37784394111213259748,-361.793333279089438292431,-27.1659157023666182340094,533.389401804925000760704,159.408858935248957777731,159.251301260826437555806
50.4600000000000008526513,-1.8109865679423240436563,-1.4672139689845835608395,-0.910796200144996292991095,-0.0726909169552947959092037,0.0274107532741480197646666,0.0133953583415504576259458,0.00329483037252864150931653,-0.00126920154692477062975675,-0.94595453520018824011828,0.324275833742349417487816,-0.0554049613501977761265138,-0.0148447228749422482918519,9.80343126037568524111521,-0.0194646336562435857964193,-0.0528581142245240220844948,-0.000996599449907507005386176,0.234747943622063998114768,-5.15151955186629884053673,2.11080676308532044771482,1134.60433393349103425862,1148.48160837120440191939,1123.78327758910427291994,1139.84839673491978828679,-252.452635642932762038981,-140.457480427531180566803,785.86398485107190481358,214.866255136725953889254,159.25188051797658772557
50.4624999999999985789145,-1.78780534506502974956277,-1.52851610647218172367445,-1.1333317695204441211132,-0.0764860171444176201172027,0.0248363306820103650618403,0.00885020975867514998747243,0.00328931556819678965267184,-0.00116924643384799711171018,-0.945962127469568092585916,0.32425490887418889629501,-0.0510145448463245332337834,-0.0109080048968076548376871,9.80742792199401591801688,-0.019434977899029030889988,-0.0527759405250842680845658,-0.00103912022987226872021427,0.234700808015028183906026,-5.15139008498630435184396,2.11080090963910249612923,1134.10971242731284291949,1148.00883335507387528196,1125.99904362336928898003,1140.45217521679478522856,-132.920324463361993139188,-238.825458939177821093836,973.295993407284640852595,271.068827775159206794342,159.25237827583566740941
50.4650000000000034106051,-1.7089506327731203150222,-1.58677393580171921527722,-1.22454873705670341799134,-0.0800632548810524813376333,0.0216169566355163024484742,0.00427521016331127573506521,0.00328513087230150645570714,-0.00106499856645636786604825,-0.945968393129079432313233,0.324237838359001384613833,-0.0466730786478355696988984,-0.00710392366657736085144847,9.81150970040802938854085,-0.0194002474257457362127877,-0.0526823420728828387127329,-0.00106387998271450547049799,0.234652503558029218444503,-5.15126176607772467974655,2.11079448153618676187193,1133.93973231117388422717,1147.28748107650790188927,1128.64975755614318586595,1141.20374087379627781047,-13.9014467393209812939858,-361.995866716366776927316,1223.62018154241172851471,353.144782101891337333655,159.252783362425788027394
50.4675000000000011368684,-1.52540404525434247773319,-1.61975141923259746690178,-1.21465088779707430788335,-0.0841436617701102895772181,0.0169651944769958831771284,6.45479834350990658992098e-05,0.00328658904924123427063187,-0.000961258724802782236681931,-0.945972966293637362866775,0.324225593013093560390558,-0.0424700766829568115978688,-0.00333269659259691208852416,9.81560215926675105890808,-0.0193642670258808644034865,-0.0525763922338614853035921,-0.00106992642452192684987544,0.234603308500173579620451,-5.15113363974782245691131,2.11078874889769751987956,1134.04020519361620245036,1146.19885402149111541803,1132.11714453108447742125,1142.21789912730514515715,71.6493749776160768760747,-427.627167978087186384073,1288.94308419611570570851,377.250103125222494782065,159.253169337111700087917
50.4699999999999988631316,-1.2725009941573546257132,-1.58864873828142627587567,-1.1469833143833136901435,-0.0878751264992036623668881,0.0124042692158102454275115,-0.0019166323659624187169398,0.00329244128651181265643455,-0.000861291382911081779792661,-0.94597629754697531989649,0.324216841091970742194661,-0.0383949400826177761336666,0.0004417199488174899935089,9.81963053338460412078348,-0.01932932530922529257289,-0.0524571876300577305540784,-0.00105692973204402399477198,0.23455341511642283092165,-5.15100491633426127435769,2.11078428046400556894469,1134.29797918606163875666,1145.14934523661941057071,1135.09447297711790270114,1143.08999138942067475,119.128638570494317150406,-440.229237266205359446758,1173.99054304149990457518,336.263404538895770201634,159.253412449082560442548
50.4725000000000036948222,-0.883746184933107525871776,-1.4700143618368926023976,-1.06289824786548425805677,-0.0918851422049870580899267,0.00747472840231037244373979,-0.00275055406960349408188038,0.0032966990912854693580869,-0.00076356109112179137640708,-0.945979870278478740530659,0.324207315180524924258521,-0.0343748207104246777943146,0.00413591738178346879362124,9.82352131372519821184142,-0.0192960339080547604861948,-0.0523239966739520168115263,-0.00102541927525268551472937,0.234503448567228461874024,-5.15087547808413770411562,2.11078049838577763708258,1134.63584838646897878789,1143.99770783515896255267,1137.98709724629497941351,1143.89921615000048404909,148.032839839167280615584,-519.123628004816055181436,1213.48826275736200841493,321.641212340472577579931,159.253579655343258991707
50.4750000000000014210855,-0.242262516174577474670215,-1.21668274933334341625368,-0.967279080078528252784054,-0.0959980023767273427104385,0.00214286940090128302793815,-0.00372020957387229813523311,0.0032960254813252693080472,-0.000666445594449918752959217,-0.945984563741292916461134,0.324194496027355227862898,-0.0303832905120462008763393,0.00768173021994207616547357,9.82720189518261122429976,-0.0192638706650798338659847,-0.0521762326722139402335188,-0.000976142699551115107514665,0.234454448818342653382274,-5.15074518630143352027062,2.11077698027278870540613,1135.03814338525785387901,1142.55372709659400243254,1141.16191429090781639388,1144.69819745112386044639,138.026951037943973688016,-529.738608936013179118163,1088.82571282532694567635,252.449749150175591694278,159.253698746159727761551
50.4774999999999991473487,0.426233143856444673946982,-0.923708180705130055265784,-0.885281466388533444522579,-0.0979402572786627761969314,-0.00127148735851775190885959,-0.00522069764393126144880197,0.003287597727025929218031,-0.000570877692076149551893283,-0.945990291791919069019912,0.324178672312041504799396,-0.0263856443006663422823355,0.0110618197429783321483754,9.8306018009007427593815,-0.0192314410488789375164309,-0.0520135204446119450705233,-0.000909701894620407224348324,0.234406867377631250581871,-5.15061406142415734166207,2.11077375393973332151631,1135.32598314165807096288,1141.34901479048130568117,1143.4312258104166630801,1145.16146489575021405471,101.097939218737451483321,-468.162870457296492077148,807.690041164910894622153,133.842349553492311997616,159.253734340080825404584
50.4800000000000039790393,1.18462304324636935604076,-0.575552934238464097838062,-0.773001989644504505783118,-0.0974098214012970448072437,-0.00328469904012143511934374,-0.0077787840079831379810904,0.00327059696718520927227747,-0.000476103912115501961502956,-0.945995917864868030022762,0.324163170310972137411198,-0.0223953832977314241936551,0.0142404557903081790959376,9.83365437648264872905202,-0.0191967175605664806814499,-0.0518357338543642062744787,-0.000827009777022552931488586,0.234360613031484754653633,-5.15048232478257173028169,2.11077050551048817084165,1135.54363308135179977398,1140.21291274430632256554,1145.20036449673443712527,1145.36740919889166434587,76.2772439536612125721149,-432.083451129807997403987,619.079469287182064363151,36.6161608679516632491868,159.25370877210755793385
50.4825000000000017053026,1.95799132991426971805993,-0.211111287001772396365595,-0.612851120780598002113493,-0.0943645826552697020161986,-0.00393298232290713225406398,-0.0109270376393528698133473,0.0032432128786868646801167,-0.000380505101409834038325708,-0.945999703553873527717144,0.324153063945298802739359,-0.0184149888653675486427375,0.0171598347224898584162389,9.83629840457908422024502,-0.019157150689052330344575,-0.0516430731640202256294003,-0.000729208958825992739453958,0.234316085009156599427982,-5.15034980756194116224833,2.1107665343904224997118,1135.70736936142657214077,1139.18859753483116037387,1146.52662315685415705957,1145.34454570009006602049,56.9698903425951073131728,-370.091483869755450086814,432.524410099479155178415,-63.7433250231549592967895,159.253635943079757453233
50.4849999999999994315658,2.66153860885358506394027,0.137971325732543365072402,-0.383002948489859718073092,-0.0880912250183172457207448,-0.00322439502381841221201331,-0.0137753701493673955114083,0.00320741780452498933054462,-0.00028742476526747215816518,-0.946001103425765599297392,0.324149861683344864271561,-0.0144896656745791205245233,0.0198793089574480497105924,9.83847769865717225457047,-0.0191093655437512277561751,-0.0514362981505044822294614,-0.000617131013453257534773222,0.234274025416544628974691,-5.1502162038358427764706,2.11076210140833664397064,1135.82848253306451624667,1138.36245532495922816452,1147.36298654722986611887,1145.04869257377617941529,53.2644513924606499699621,-303.257439909411402823025,281.974997217495342738403,-188.505136907491731790287,159.253509892370459510857
50.4875000000000042632564,3.31389130588837854674011,0.505247799900209293433306,-0.042476337801753916156855,-0.0772607707913151448009259,-0.00153078805422416394481366,-0.0158082500800624664583083,0.00316646362393662589296284,-0.000201682824851848538231028,-0.946000398723856217308992,0.324152595413065736096314,-0.0106834233434746524171732,0.0224950892191612822346158,9.84014322494085291737065,-0.0190496494107004685214513,-0.0512166568929828744383137,-0.000491807570984819134550514,0.234234933943413270451828,-5.15008178880097045038156,2.11075748485127512310555,1135.97369161838901163719,1137.6723103352833277313,1147.93649814294235511625,1144.40202001555212518724,63.3784654936465372543353,-194.48132736655733765474,163.659411774831767161231,-280.828574019635254899185,159.253301228540010470169
50.4900000000000019895197,3.63445015269620341769041,0.753444613545103503149392,0.263372898354118978314631,-0.066397023465765495076063,0.000316691397610882878922017,-0.0161169548463199023558001,0.00312423692079717230454805,-0.00012711671769751408354876,-0.945997419207661893736372,0.324161564889756559360023,-0.00708187443484991144271312,0.0250905852272981927386653,9.84125486811393379582569,-0.0189747896839606612628959,-0.0509856645739335187506036,-0.000354846187550143896561466,0.234198639480928200162779,-5.14994716797467422253476,2.1107527453381149662448,1136.14537486053291104326,1137.39004868812594395422,1148.18128360610444360645,1143.6445497036772849242,93.139136774601084312053,-45.8900375909214659486679,77.1747227043553465364312,-343.621116725756678533799,159.253081957979077287746
50.4924999999999997157829,3.68561046869010722204507,0.932326584518314627203495,0.539789344121685443766978,-0.0553582895667787400206805,0.0025179126913986975971893,-0.0147815571119700745611469,0.00308220143295513367490135,-6.57148569467240592674451e-05,-0.945992544258141832003162,0.324175439962531564130899,-0.00374061087707418943315574,0.0277008292845436071560883,9.84178310949408086116819,-0.0188821762264478366921683,-0.0507450933353077310306034,-0.000208587451217900161568042,0.234164682586926270468908,-5.14981320145165266666254,2.11074853649523497267637,1136.43938730226159350423,1137.44286014732892908796,1148.32237175646378091187,1142.68391443192490442016,171.461995657640329682181,101.583686876067858406714,59.5824757476443522818954,-467.719613000587685291976,159.252817842761572819654
50.4950000000000045474735,3.44292341176709326688865,1.06179955165484507517704,0.774811471482310443192887,-0.0431922203534731707907923,0.00561183311236380152203784,-0.0113531845423568561459504,0.00304117055079426148664345,-1.76916012258887195090183e-05,-0.945987590662918598205522,0.324188657609218777722049,-0.000716998452078817030685975,0.0303251997690395791451579,9.84170981996479810050005,-0.018769844324519165817966,-0.0504969007854943960356131,-5.61187987405619594766769e-05,0.234132112632666783413882,-5.14968036830054209929131,2.11074527446476611913795,1137.00268483882155123865,1137.89796712250654309173,1148.47919598484281777928,1141.30595163867315022799,247.23523939957061656969,228.23041312228417609731,61.4663447635534083701714,-542.569600072278944935533,159.252450849615939887371
50.4975000000000022737368,3.01972890657298087546678,1.09736535516656541489056,0.855908789265214742236765,-0.0344084576298296987428849,0.00876111875482243722401687,-0.00762292216096540405784188,0.00300234196478666847535122,1.96215317652519431919356e-05,-0.9459845445582202305701,0.324195128724308834211598,0.00190600911980372614284995,0.032913082890876257935453,9.84102922277124569916396,-0.0186370605936783985401295,-0.0502428972781474580955319,9.86562877495452322578959e-05,0.234099822218065328760517,-5.14954887870273303462909,2.11074315325952044375413,1137.67556349926007897011,1138.58401221294093375036,1148.62970348028170519683,1139.97106643156212157919,311.487666353251825057669,329.245350169257335437578,60.7896200060720630631295,-569.395845330899987857265,159.252104063990174154242
50.5,2.42722659038283339327791,1.06245019380146366039241,0.802951146493887435440229,-0.0276369163674234641359106,0.0122773544050033076718842,-0.00417754604566229672396593,0.0029680004549446550171643,5.04977961650355931149184e-05,-0.945984593754423008782339,0.324191082582226564046124,0.00401769621192665446485215,0.0353916205559987873119354,9.83974811082541833684445,-0.0184846580503942592432765,-0.0499844939023160184099481,0.00025126057455243276054363,0.234067106068014590958271,-5.14941950610038379210209,2.11074241544540397441665,1138.56012317058639382594,1139.54419387335133251327,1148.78314408487290165795,1138.45897241202123950643,384.446826710959101092158,421.78412593541162323163,53.9187802633058907986197,-626.192502140498845619732,159.25171501348481228888
50.5024999999999977262632,1.7477834693938067989194,0.981733433389014087389057,0.648338731400849077601833,-0.0228280333027751670960104,0.0154447909154948812004982,-0.00150691224044249556628106,0.002940617393882722415549,7.8110004833285663693003e-05,-0.945988422671901085792001,0.324174259686237420385879,0.00551567514176948443804793,0.0377097783239218053985553,9.83788545598846120299186,-0.0183148241686520753257472,-0.0497226192897887928068279,0.000397077042475851686460092,0.234033233508900900821104,-5.14929302792833443191967,2.11074336096012116215093,1139.59779763281312625622,1140.69293284261607368535,1148.89929738159798944253,1136.84010392086247520638,441.483889324719427804666,497.2646213282317262383,26.1562092548368028133154,-655.163917345209029008402,159.251290657994644561768
50.5050000000000025579538,1.0282856254705365905977,0.87336640184465963443472,0.400754942130871649741408,-0.0203744240620232462679606,0.0176815652808030784881588,9.64876967032483016809344e-05,0.00291967804967506461277793,0.000105535922124010855295551,-0.945995973110075327738855,0.324144705424111223557304,0.00636083965435457407422426,0.0397987319266877026535667,9.8354725830879363712711,-0.0181308972032271156771266,-0.049457567058502904799866,0.000531433970696613901425753,0.233997134644511162182567,-5.14916978656089785459926,2.11074661424899545636436,1140.76754261721112015948,1142.03051697999376301595,1148.91392513114715256961,1135.1831528252935186174,524.790705284526438845205,625.782809867767355171964,-29.3872763430804013751185,-706.739654805599002429517,159.250823229978692552322
50.5075000000000002842171,0.190939665992592960686025,0.753321510142036521173736,0.046167526006967489482502,-0.0197552828229208589372323,0.0193127063398069939714752,0.000862802276981899625776795,0.00290304310504007788071301,0.000136808520184200735911664,-0.946006079979562763959677,0.324105912784948102522975,0.00654744549771904982976567,0.0415604070664138403046195,9.83255252512162947198249,-0.0179370568609147525152014,-0.0491888598263248433273276,0.000649743879747939254674927,0.233958443235069896148914,-5.14904887821912105039246,2.11075229857774582242769,1142.221751159237101092,1143.82184689195651117188,1148.75236099988251226023,1133.30640564683267257351,521.90203594597903702379,683.524636612977246841183,-95.0996594699018658047862,-645.10089704653648823296,159.250212059725697599788
50.5099999999999980104803,-0.444732615633980365998923,0.688262986424192035883607,-0.257499878142815552539702,-0.0208214414594695730598151,0.0200808104365744512220804,0.000589599646159109512695562,0.00289135506485039368504419,0.000173145835836156482484896,-0.946017823893784970401555,0.324060955297172936795391,0.00604566734094467029408948,0.0429654891404597505388807,9.82917750971548720428927,-0.0177374629643644761423094,-0.0489153923988241978726421,0.000748192878371770780411565,0.233918061625588702412415,-5.14892852026445613233818,2.11075970873007490169471,1143.37705279693864213186,1145.44814016305554105202,1148.4384268337980756769,1131.95764834006376986508,422.38745331106878211358,668.217646551169423219108,-165.706922146779817239803,-468.545333499365767693234,159.249660711534090751229
50.5125000000000028421709,-0.98272809839400832032652,0.678166626982703246717676,-0.522084554112577814422025,-0.0231231240237007099058708,0.0206910599777754312944555,-0.000664389174209966152859219,0.00288819620412058370925723,0.000215014268707606077393399,-0.946030392316582258160906,0.324013030155034131851721,0.00478675682724173569976278,0.0440157439435855946108234,9.82540778680822946000717,-0.0175360086619328579826682,-0.0486355446171930980159281,0.000823794812905443460220034,0.233876925191146917137885,-5.14880669935465462572211,2.11076855366321947116148,1144.33368842579352531175,1147.16293512471406756958,1147.92382638914818926423,1130.96367897933464519156,339.613126364028119041905,752.436442914064855358447,-270.08689080198388410281,-333.072599265153826308961,159.249065750020946552468
50.5150000000000005684342,-1.49129088667937659273832,0.73022270787467291608408,-0.743127154984913995683371,-0.0269293649152799671742109,0.021759649182556906055197,-0.00340845675668249425277478,0.00289473404279992673274191,0.000265045392394660270056483,-0.946042733332837504356405,0.323966683614393013979083,0.00274511040165313982552853,0.0446557209915442177017297,9.82131089698025583345498,-0.0173363938696954288098961,-0.0483474206213718379898658,0.000874309155848900822205483,0.233835456262389773662846,-5.14868248821276708326877,2.11077825954460429613846,1145.07511842875965157873,1149.21032237762779004697,1147.08799237978746532463,1130.29228534373714865069,179.115215754363021005702,725.141321459182222497475,-336.489013239758151030401,-150.054351744302095994499,159.248301673004760914409
50.5174999999999982946974,-1.78833024245824012687933,0.81473965567725714631564,-0.81699970297126733864701,-0.0307979761541736368757327,0.0232182244279545008103227,-0.00669648998784710264287057,0.00291017225837147302039409,0.000325197712227028056831968,-0.946054448363198852156586,0.323925381506490750460614,-5.23476893663967629555245e-05,0.044829055298851977484631,9.81695879545198835103292,-0.0171420404610756228758195,-0.0480493214652968694822199,0.000898682241568868464196007,0.233793801519677851841195,-5.14855589145879655177396,2.11078843568190865909173,1145.22926450456452585058,1150.78864173200668119534,1146.24138132295092873392,1130.21340722061381711683,-58.4168521758939647270381,570.837844400310927994724,-357.875613211443749150931,70.8383857536411198907444,159.247623572239803024786
50.520000000000003126388,-1.93997254148700282172513,0.917514045081874396458943,-0.759118903138965128718496,-0.035225788791397781574144,0.025367478131629143944803,-0.010527419975833798848619,0.00292931904359748944075004,0.000396255521128167616587423,-0.946066954434474194357563,0.323888285048184398906557,-0.00347870805074899751285766,0.0444732442272284256290504,9.8124258066648692988565,-0.0169560121002354548258584,-0.0477402763480656092132115,0.000897176953541680690870641,0.233751649487169033125866,-5.14842798964840664410758,2.11079833292318808091181,1144.78303416788003232796,1152.06451159963080499438,1145.29861431372933111561,1130.64647727250553543854,-347.547144654713065392571,451.655513574356461958814,-420.663451371331916561758,302.148442336902064653259,159.246903226804022324359
50.5225000000000008526513,-1.93679381704340869418957,1.03035351527905860713474,-0.5530734472807466994837,-0.0411904161724293838009459,0.0284676435764523935723069,-0.0143760027562751108165529,0.00294626461617501994930124,0.000477986631361454559346891,-0.946082094804340911764484,0.323853889780881087911979,-0.00737576716923588407426315,0.0435410427558703683192931,9.80778620967110725814564,-0.0167815919820390388461639,-0.0474202615753625753014511,0.000871331651199232053162103,0.233708619422003577303926,-5.14830083111527514461159,2.11080637367426815487192,1143.49152878129007149255,1153.04691929987961884763,1144.13806406609319310519,1131.72414943229910022637,-594.546246586646248033503,244.31525844119670409782,-419.049554348993353869446,477.015027334870865161065,159.245991179415881333625
50.5249999999999985789145,-1.76895851610261689579318,1.09494005025362084460028,-0.304372359184112373231557,-0.0466307833392009055129002,0.0312934224430788734960807,-0.0160363933667169965280319,0.00296014218579647003098954,0.000569089711430198984774831,-0.94609974755909231891593,0.323821751494705989404821,-0.0116606099551139243131193,0.0420392689582842205009428,9.80311160362539624202327,-0.0166225315748681455596536,-0.0470903274127904142298817,0.000823780593764409903648205,0.233664616477892522761195,-5.14817639415227112920093,2.11081133139105991958218,1141.81030293494950456079,1153.28608789183567751024,1143.20336654198627002188,1133.03155240917772061948,-774.112291267023920227075,-42.6551777996574017493003,-357.635494148688678706094,587.577574129563345195493,159.245192920399404101772
50.5275000000000034106051,-1.42738086313208700772748,1.10896638733813190924593,-0.0383075805725499041187732,-0.0520219582482277370649726,0.0343059229996957107400313,-0.0156885316991322368296302,0.00297314994586992667122138,0.000667627343369561147140567,-0.946119168256562170782331,0.323790436396286462894523,-0.0162929477110559835228987,0.0400095238518586027165469,9.79846953223516514697167,-0.0164826183113513831390851,-0.0467526807300174054859987,0.000757846680456590766905567,0.233620234522790209963361,-5.14805624660692640048865,2.11081262268642566581889,1139.6209673249529714667,1152.83364341088122273504,1142.34988659534883481683,1134.66203730294841989235,-930.102044064121287192393,-297.364465196490300513688,-326.761627045212833309051,686.164595889171323506162,159.244357785228885404649
50.5300000000000011368684,-0.955689345743908069685801,1.07029058297644019681627,0.195290936410014603907825,-0.0568072943943846650483032,0.0373160848797215033423313,-0.0138267347290141322940782,0.00298763888575315390838671,0.000769531782967965800532073,-0.946139244507755772239932,0.323759996015279050141089,-0.0212122589059021669777305,0.0375385941310784065905182,9.7939223351386885951797,-0.0163655410993465699753813,-0.0464103839212094901323091,0.000677197166170242430098536,0.233576151441366841599034,-5.14794076816919865535738,2.11081058109484676066359,1137.15979271462651922775,1151.79926556585246544273,1141.56955840675936997286,1136.46237538862533256179,-1004.04765909707202808931,-539.296117218363406209392,-302.978958976112153322902,734.444082188915217557224,159.243494963977269662792
50.5324999999999988631316,-0.370323852405842479651454,0.960848212953661739987865,0.351745830003503234806317,-0.0599052070466944974747037,0.039982509631062146393532,-0.0108876222812302539399987,0.00300201474915906584353675,0.000869665730470950372119066,-0.946158656012263565848741,0.323731245774285469885001,-0.0262706330268914663161883,0.034713844710242497404451,9.78952739413386829880892,-0.0162744450525279735209061,-0.0460669973339925542532569,0.000585236947155243387996837,0.233532650866770774555903,-5.14782909607218641667714,2.11080655647076120828842,1134.60072902947217698966,1150.13716282479185792909,1140.83499180046965193469,1138.33425771388965586084,-1086.26095635421643237351,-836.701506319404302303155,-334.037390830655681384087,805.475009116523210650485,159.242603239977512430414
50.5350000000000036948222,0.374597441917731310834228,0.744605966008890174379076,0.440942601908370757080036,-0.0602243501181559809376509,0.0429613188671389215067542,-0.00772536758987397986775392,0.00301966902511647183535159,0.000962791214986190150605661,-0.946176372821556643799568,0.323703882344752613686722,-0.0314071620062767731251796,0.0316625770068262590850594,9.78533586960299395229868,-0.0162114651119688209235381,-0.0457262293508213998882717,0.00048463963916612630943026,0.23349012498121612946278,-5.14771989128229368049006,2.11080262418078756780915,1131.72848793285265855957,1147.6157580342533037765,1139.89937145260523720935,1140.48975043421000918897,-980.001139652584924988332,-971.759609393532969079388,-369.725203620320826303214,751.481042699267391071771,159.241506803597104635628
50.5375000000000014210855,0.952933703450475788621077,0.496106346610535542396292,0.454413743562405547660177,-0.0572749227389212980932065,0.0453963230307432921706301,-0.00629683483873975848726934,0.00304686114525358573562608,0.00104531098852088323754306,-0.94619167814541371708259,0.323676039445394414517665,-0.0366222100433163250121638,0.0285065391712742838281613,9.78139328690872922322797,-0.0161775174004136525207631,-0.0453916255302879226296575,0.000377067400694586750149045,0.233449036399539289199367,-5.14761210972227978288629,2.11080022601155903316794,1129.70072333120674556994,1145.27836477782170732098,1138.98636578236710192868,1142.09166292738791526062,-702.726286793588542423095,-929.647049075792551775521,-407.054285537112320980668,575.707987226474642739049,159.24057718089082413826
50.5399999999999991473487,1.40438421200243501729688,0.190957094705762914221836,0.447190592254652519166314,-0.0517577431649841601668527,0.0472697867413729364005626,-0.00621333393013261733178743,0.00308840423323089238727412,0.00111491250870095724712083,-0.946202893234613040540637,0.323648071113300239698418,-0.0418970506897388822453721,0.0253412354024779018502045,9.77774031530610621132382,-0.0161726316247391040115122,-0.0450662198633030447458836,0.000263359862557746809801074,0.233408840028786951359407,-5.14750482512010432145644,2.11080017346476633832708,1128.21485649888791158446,1142.96752278887856846268,1137.86410002492152671039,1143.3682903703397641948,-516.615433461865336539631,-952.74223469715627743426,-541.046912588349755424133,464.078022350839944465406,159.239639317478690827556
50.5425000000000039790393,1.74664329126396911107122,-0.203080571827222722269823,0.457103469894018787922363,-0.0438138919761646011830081,0.0480609377308528346040006,-0.00677473177691367313413284,0.00314243735855621302704987,0.00117066333118829917978032,-0.946209282121410977239861,0.323623188675530915059397,-0.0471006416927709781194977,0.0222008166624861197346874,9.77441406263512213570266,-0.0161959933143528966859037,-0.0447524339339587934327724,0.000143862929212707618947115,0.233369251656952020335112,-5.14739766840698997896197,2.11080250119223222782239,1127.11764616389609727776,1140.51465360433348905644,1136.28113121942396901431,1144.41205303914330215775,-296.311727998257367744372,-815.083226055905015527969,-605.932797525846694952634,289.854636888537186223402,159.238515016250801181741
50.5450000000000017053026,1.86601024516662850061266,-0.514777837209315358713013,0.493671062289238016251858,-0.0373212388069160197479057,0.0471796692947074325363843,-0.00711115197016544669378346,0.00320226042227239387702453,0.00121397693378576796742474,-0.946211618711949364879388,0.323603943686170347771025,-0.0520335418870487703690841,0.019051072486316017462471,9.77144835914165454937574,-0.0162456999815596518643712,-0.044452182533434678179951,1.87308031541742148694783e-05,0.233330792884681892385146,-5.14729077974805004913605,2.11080582553162621195497,1126.73329785889586673875,1138.89210665859695836843,1134.83443603729074311559,1144.81756355478319164831,-68.3301189002289248719535,-543.541478507216652360512,-578.339012176846495094651,59.0450760303693158448368,159.237586679315000992574
50.5474999999999994315658,1.85587654877730967584171,-0.756519817451217990722512,0.549258372290179486263639,-0.0323432426829999980499863,0.0446081175923996389731663,-0.00680751564032459031972078,0.0032629293150908209725225,0.00124675419270833440742174,-0.946210687698981978144275,0.323591648047605151550243,-0.0565409055470025984080351,0.0158644905462885232871884,9.76887243367615809575,-0.0163188448422000448312374,-0.0441668772514081584001921,-0.000111610896268189599238319,0.233293540918456471233711,-5.14718431181815283537162,2.1108085787439678782107,1126.77599556939526337374,1137.79694621179987734649,1133.38943615854236668383,1144.70727841929488022288,64.3842319552402670979063,-351.610630550523865167634,-556.111323043375818997447,-127.996307093215364147909,159.236675405297290808448
50.5500000000000042632564,1.78846065497409800748585,-0.907003037799967160026426,0.597094558378363449158144,-0.0291619499409045968008058,0.0408616305253418007903399,-0.00551898557542992041630159,0.00332191752071579575467108,0.0012711205289585398789387,-0.946207605774715965196719,0.323585469727988572774535,-0.0605255128890183347056819,0.0126279356529502562178635,9.76671075855388259867595,-0.0164115197237385788964215,-0.0438974290048544033004951,-0.000246357800193820275849732,0.233257229418028705358878,-5.14707826538098167645785,2.11080965120537156209934,1127.05521901867223277804,1137.13405350584343977971,1132.05387942207244122983,1144.17758201931678740948,142.184901271248264720271,-175.787372056675962994632,-486.472792706105224169733,-300.642442199324136709038,159.235783615894661124912
50.5525000000000019895197,1.70717320110680570444117,-0.928574969410699502248008,0.599618398480707304187831,-0.0276925657608210612492528,0.0366000468246204385680542,-0.00260532401247249960352104,0.00338229526918649037875442,0.0012897224672275601174698,-0.946203034419691446643697,0.32358491382392384760891,-0.0640097367544338602396436,0.00935607938898662394588968,9.7649824316649649347255,-0.0165191118372899278798904,-0.0436441318774392905677217,-0.000384474793496061546891479,0.233221836964592671437302,-5.14697191327372127744866,2.11080900643198798860567,1127.48692007575186835311,1136.91800935151604790008,1130.95707219501059626054,1143.20406620829749044788,201.976304384881558462439,-19.7440306278347108559501,-409.596706417559857982269,-501.509042964018135535298,159.234920903313565077042
50.5549999999999997157829,1.62460804544755332834427,-0.818831460872211591706105,0.519542650571806818859955,-0.0257451304930389791858492,0.0326609522940815300007245,0.00163399951847764592777201,0.00344784770519103401717476,0.00130554365338963074966161,-0.946197308848358731303563,0.323589723668648188148467,-0.0670456526246175493755075,0.00606263301720585956466891,9.76370216006701951982905,-0.0166363666027948969849959,-0.0434066843349955530650952,-0.00052486223366995596057577,0.233187223979187896460985,-5.14686447250320888713304,2.1108074212180492068569,1128.06510054059572212282,1137.0353333527043560025,1130.00589588998650469875,1141.67003680449897728977,216.600409998071114614504,85.3507229823226083453847,-281.903626057229701018514,-594.916667572547680720163,159.233925308674145071564
50.5575000000000045474735,1.55471051575526630905699,-0.647037172850351005592984,0.387463840068282217021789,-0.0227855950279873369079819,0.0309785125730249848163833,0.00404812792326079712995623,0.00352312819661404269186433,0.00132014572526084877218677,-0.946190190278703102677582,0.323600807268972556762776,-0.069705716572286857690699,0.00279204964780771502930179,9.76288021364359437370695,-0.0167576058127492308336137,-0.0431842560250728091375549,-0.000666336048681174771338154,0.233154182227805595317705,-5.14675525856824211956564,2.1108060115395099742841,1128.56992212574277800741,1137.34476296642787929159,1129.54755406472372669668,1140.22948287043323034595,214.668246619502724570339,149.640246259073876444745,-113.114073280199932014511,-574.067470321667428834189,159.233132252241517790026
50.5600000000000022737368,1.44015435086365739536518,-0.43978797161589877617871,0.221997900828399485906317,-0.0185507769987941287248567,0.0306594260425919022672314,0.00442668202284531367429743,0.00360574644170683382068954,0.00133655575904978994074279,-0.946181631703607251004939,0.323618241418521745966785,-0.0719592998092705299351124,-0.000483841675724461239838092,9.76252468778427306972389,-0.0168767857258077351445547,-0.0429757014157341535320889,-0.000807886289741074079331917,0.233123004026356994700109,-5.14664402402301224270786,2.1108045466373543952443,1129.13844177369378485309,1137.78353458400010822515,1129.44032552358521570568,1138.79969945288917188009,287.747184833085839272826,212.860854197527146425273,29.8904210553063336419655,-591.975382778120547300205,159.232380424098920457254
50.5625,1.19845923625619832364464,-0.194511331356629180167062,0.035216500613962115062705,-0.0126592956133313762345782,0.0311254199928660338358988,0.00347174276327586166929207,0.00368737952015280381901086,0.00135849087789750942040223,-0.946172494984006795526454,0.323639312465138218044558,-0.0736864366613903948310949,-0.00384627681585150704712817,9.76264146078760397529095,-0.0169876626887486385786286,-0.042779776642711937750807,-0.000948566349637096914784729,0.233094176887271492537579,-5.14653122391292150439313,2.11080161736611238154637,1130.00865804990689866827,1138.40906723741454698029,1129.69700617000012243807,1137.26960595654531971377,370.135656455859248126217,244.415090858814807006638,153.970428477308786341382,-513.852615768622740688443,159.231528476239702740713
50.5649999999999977262632,0.888822064688491564332651,-0.0102612674868290589674791,-0.0840858754230927457617994,-0.00764453849997814155470266,0.031706958742971254328058,0.00231287477713902232465126,0.00376170300932906652088827,0.00138623987886954359513569,-0.946163502697913938455088,0.323661616232301663220738,-0.0747965426059488680543552,-0.00730383171361115302033795,9.76323229290718686002037,-0.0170844555851736162876975,-0.0425951292470119202704382,-0.00108722154602730624629869,0.233068403365357140755165,-5.14641754075093338371971,2.11079627859993079752599,1130.98912005597139796009,1139.00561003829307082924,1130.21017766597105946857,1136.23043637404839500959,463.429221339301250282006,256.095571410656646094139,262.908679971817150544666,-359.976762464245894079795,159.230861821546085366208
50.5675000000000025579538,0.477079220665611369867065,0.14949364292638284146264,-0.152888826215104745021023,-0.00386357344639935576871559,0.0322704022879880814134168,0.00129968999168347484375607,0.00382629616538751517879069,0.00141923383768963358442239,-0.946154727875662904246212,0.323684592159930228927323,-0.0752777709942961947842122,-0.0108282326461460187694286,9.76429494235311068450756,-0.0171623678072535361394113,-0.0424202231296687756745278,-0.00122297198341656757764051,0.233044933854490154967465,-5.14630332444326921148559,2.11078905120266879791302,1132.32580415660459038918,1139.68954509446848533116,1131.01154956985988064844,1135.46972214422316937998,597.66592345168999145244,289.90715252360763543038,366.465014567933280886791,-261.718606280058168067626,159.230241630282904452542
50.5700000000000002842171,0.0180718514198101691536902,0.294427538815923817150377,-0.182198936025228380719554,-0.00201439645191355161391034,0.0327530834585874133790817,0.00054708904811474705614377,0.00388740846116925270817277,0.00145496452518698786253448,-0.946145380272230163143377,0.323710134110223757275548,-0.0752758340186510388480912,-0.0143044489692913390221918,9.76582228147690045716445,-0.0172179712730951874066765,-0.0422532567661558847160741,-0.00135539145959413364489476,0.233022395864566550516273,-5.1461879334689992759877,2.11078225524541807089918,1133.97744967323137643689,1140.45514580091185052879,1132.04250273881166322099,1134.921843342647434838,724.140082374036978762888,326.453941410706136139197,466.251036589679870303371,-179.957335213866798540039,159.229660999844924162971
50.5724999999999980104803,-0.427092826253507473754922,0.43066362951626430133345,-0.175031920326083695327313,-0.00319327771579197994961108,0.0329098190474534785243677,0.000109669882521566184447291,0.00394943051742617078775366,0.00149091203452761562886497,-0.946135661381769410560594,0.323737303770735562746808,-0.0749097355802968850602142,-0.0176334303397718966666119,9.76780492816891765528453,-0.0172490031203368296419676,-0.0420923685100957553628653,-0.0014846833549991939830287,0.233000237916757058087569,-5.14607123371238817099993,2.11077771469818209482128,1135.94650456847148234374,1141.32181480152053154598,1133.34280475280615974043,1134.56993546815465379041,899.555499072943348437548,401.491604306033138982457,629.137112407121207979799,-131.004535457965459954721,159.229129199968951979827
50.5750000000000028421709,-0.850707475298488224879634,0.587542727463410185961834,-0.141688976218346668334291,-0.0076576497771027240632491,0.0330496499105622371095237,-0.000139318427896124765862779,0.00401394228824186564963394,0.00152696926928770734983865,-0.946126513027680915435269,0.323763090867158154217975,-0.0742661918925324737728033,-0.0207826862452460819907785,9.77023152709879383337466,-0.0172546191545107120701719,-0.0419357361716960197473014,-0.00161164674867480379148732,0.232977986405510539835717,-5.14595384697446789346031,2.11077673474857263613558,1138.47522716859839420067,1142.46260382244304310007,1135.18818830084887849807,1134.26682066535727244627,910.670190152211716849706,430.268233193108244449832,713.884087728591566701652,-107.921766890867090182837,159.228548794640516916843
50.5775000000000005684342,-1.06278446532995562989754,0.702090258105291020740424,-0.104775750331854641816953,-0.0125277880825578630946682,0.0338101582767357800030084,-0.000195685324534568077202434,0.00407948600658307979072159,0.00156437124319812738242053,-0.946118735360406026835278,0.323785012331837318555472,-0.0733850386552614142310347,-0.0237673218818840181754126,9.77308826818766362976021,-0.0172357209143298648057474,-0.0417816481014411100769479,-0.00173709666592434933997391,0.2329543290398670696284,-5.14583662883514314501099,2.11077920710450372965283,1140.49985551923487037129,1143.47315596748717325681,1136.91222519145094338455,1134.03032663370004229364,731.669025743241604686773,409.795229553865112848143,704.206819362029136755154,-106.914072941942251304681,159.22811409466314103156
50.5799999999999982946974,-1.11099257642803594947623,0.771176056736332049545979,-0.0684744931954298086118627,-0.0170820948357646926196729,0.0357679884691965710441508,-0.000173989111914502964572823,0.00414085521691606121136298,0.00160502945440624354006554,-0.9461131456400969641507,0.323800663990078674281392,-0.0722388740029569487166583,-0.0266417280166954054121398,9.77635826858110412729275,-0.0171948520359089737641334,-0.0416286734546975900617127,-0.0018612486739074884326689,0.232928869758349615937121,-5.14572091218929728029252,2.11078282212822676555675,1142.1335722973112751788,1144.51157997021050505282,1138.70922239765582162363,1133.73225030064804741414,565.289746038053635857068,455.698706139486318988929,765.173791382057629562041,-151.006478631884476726555,159.227731105532257060986
50.582500000000003126388,-1.00716319877023652296089,0.762201704231020515933892,-0.0322756564745731999721556,-0.0214406072441065201350519,0.039411975993670481099862,-0.000117752946106592910977678,0.00419341477353653291348934,0.00165101430245956533326979,-0.946110668454854475406535,0.323807405992804331340551,-0.0708070348458502835109485,-0.0294619531495208392124496,9.78001975921946353764724,-0.0171358941039198402200849,-0.0414757811816375485114428,-0.00198331660617783898589717,0.232900631927252382835647,-5.1456079356124782009374,2.11078530060068381146721,1143.32630424942658464715,1145.75164949818577042606,1140.73809414836318865127,1133.27529424054023365898,280.729471861643162355904,448.327067891293893353577,686.933074759384567187226,-177.268874603487603280882,159.227332147960169095313
50.5850000000000008526513,-0.827573266359502568434436,0.659267214050955008275423,-0.0102938047653677883924717,-0.0239475406637563552336712,0.0428792774489197558995812,-7.01295674069317344790503e-05,0.00423706487858012230407478,0.00170431015846275518352271,-0.946112071288692013659727,0.323803059216283162236039,-0.0691453311387599522941372,-0.0322550884779952695691208,9.78404438712192536797829,-0.0170636455404473176555857,-0.0413223487471413922222929,-0.0021014529393510793069122,0.23286876975377837628578,-5.14549828107278806044178,2.11078510153399045989886,1143.53721965662020920718,1146.75321530966812133556,1142.14388777145450148964,1132.84590592763015592936,-82.5663150864170916065632,387.377508975703108262678,463.744931545683130025282,-162.83568065874791841452,159.227050599351656501312
50.5874999999999985789145,-0.612359876069067388115741,0.459617889595420603399134,0.00300885808963936287815932,-0.0251717621219761933382131,0.0456746754825182871284639,-3.41571053339753525788722e-05,0.00427427960893214057419565,0.00176277468896363781469816,-0.946117176975717066866878,0.323788075808405795275036,-0.0673227765507382336362951,-0.0349556872860678560788195,9.78839664198451586685223,-0.0169833839017188154008053,-0.0411680976287325250950744,-0.00221260042514208462791081,0.232833706324399702936034,-5.1453915680874002802625,2.11078187836994191073359,1142.9134726739948746399,1147.68853704306252438982,1143.05681880608949541056,1132.46111583724723459454,-368.483311196444219604018,357.777303709598299974459,262.568998649660272803885,-128.449341244211382218054,159.226821885788865529321
50.5900000000000034106051,-0.412452611165833538109382,0.202094142184541608608939,0.00992946511879194172733865,-0.0254086135233993481996606,0.0472780886854469520330646,-9.34451713029403663367343e-06,0.00430514546641490043060729,0.00182198458323081196978677,-0.946125445636693873652234,0.323763949715316912136842,-0.065341241157408830320108,-0.0374704373074390278963719,9.79303435896076024391732,-0.0169000691481460373066792,-0.0410131505921501327005529,-0.00231300266639943886970432,0.232795940574385240573463,-5.14528672599248348973333,2.11077610471183652052218,1141.69480310063704564527,1148.54210182821702801448,1143.45673276470347445866,1132.20365922140877046331,-586.585677145076260785572,314.225582354195694279042,27.3873192002016310198087,-52.5116799990614353532692,159.226636571768182193409
50.5925000000000011368684,-0.273721946973942309444539,-0.0811429056742669491120168,0.0105398751847760908939566,-0.0247826168002262536838032,0.0471700136120574084475088,4.70154723263299706610425e-06,0.00433123465260950787913963,0.00187745797475138325241528,-0.946135516888841343607908,0.323734596651357564578433,-0.0632214816440334337332985,-0.0396937660355591442895573,9.79790783803906961679786,-0.0168178882674074776926165,-0.0408580218793856558834321,-0.00239879938151745788696423,0.232757029453118408079959,-5.14518303763312268017671,2.11076859401557559436924,1139.98054428826799266972,1149.25966495483430662716,1143.19375540209057362517,1132.19855743725179308967,-799.198285151259597114404,271.873728085367361018143,-256.985545455842839146499,71.5636499404095616228005,159.226502599330956400081
50.5949999999999988631316,-0.208540939906405486947705,-0.389831771063565646340265,0.0057069709880224282066985,-0.0237590351356141635252861,0.0451867264818108516077899,1.41595865876097888364123e-05,0.00435070507868952783409044,0.0019281946453341706950585,-0.946145603338318430530762,0.323705234383047435464675,-0.0609360000404358254089132,-0.0416039780441886247741579,9.80296096961671281633244,-0.016739819134425897029228,-0.0407036739761254054426054,-0.00246660822260890647689147,0.232718694133809606006125,-5.14508034750013631963839,2.11075953188933729265386,1137.6988116748843822279,1149.90147046864262847521,1142.17180503742542896362,1132.56147747111049284285,-823.933581647758273902582,186.866148055237204061996,-468.73803481943133419918,195.762937400913756391674,159.22639928096802464097
50.5975000000000036948222,-0.240683476853990135913008,-0.586004507085533865584637,-0.00187429860424826182259406,-0.0231749262844838273267545,0.0424409820894459735574067,1.90427836385121789777516e-05,0.00436226099369930401389306,0.00197596774001188675226603,-0.946154153509979223279913,0.323680385694528727213992,-0.0584796988615758905893927,-0.0432248242694331027968779,9.80813098651800885363627,-0.0166673200185623870961393,-0.0405515461421043568734923,-0.00251370923890106108197773,0.232681927694022822050712,-5.14497864350245492914837,2.11074909876201211034186,1135.86087638002709354623,1150.19399569511097070063,1140.85006522799221784226,1133.17737212425686266215,-672.531617580872762118815,49.5130594092844589226843,-585.787274775857895292575,300.976766477179523917584,159.226359215760339793633
50.6000000000000014210855,-0.343622606979914424485401,-0.69968379583178930136711,-0.0119735236639394067303943,-0.0231357632886532472993313,0.0396241931973190519844508,2.27527249353087852238968e-05,0.00436554967141258593726905,0.00202339418255444462510506,-0.946160428027860045396835,0.323662195858423429317696,-0.0558670338569738911260742,-0.0445871752715375144204835,9.81334930308469566284657,-0.0166002392970465081911691,-0.0404034646490879015279241,-0.00253806883061056393069421,0.232647256933353113739216,-5.14487783194299996836207,2.11073806910043693108037,1134.33615358697829833545,1150.14903576568917742406,1139.24286866354464109463,1134.06636130349716040655,-561.514179280185544484993,-117.648087445802630668368,-718.4997459517658171535,432.099767207893933118612,159.226364204776785982176
50.6024999999999991473487,-0.507300824747174416984308,-0.748726861973090906943185,-0.0254309386108921148261786,-0.0240206500290854052526157,0.0371955932448612969221102,2.4828536311141401632949e-05,0.00436173248557310787310026,0.00207407683983691203816191,-0.946164739420939704395153,0.3236497141164740298791,-0.0531455306163798324448067,-0.0457282370872182306054121,9.81854280107416776957052,-0.0165369068944840082180381,-0.0402614456191481215330263,-0.0025384877995350101087535,0.232614523027810021771344,-5.1447777081015315658874,2.11072689414460334944579,1133.05330548362871923018,1149.60575525788249251491,1137.25756649823665611621,1135.33787096029436725075,-368.165295069859837440163,-290.760692711989065628586,-697.18933983613885629893,482.239689441329346664133,159.226418465183058970069
50.6050000000000039790393,-0.639489051835729682693454,-0.733465506308321191220045,-0.0361346623361580576716534,-0.0257516029131997399581611,0.035846212464987974033459,2.12237096003254527862378e-05,0.00435234548223171254649477,0.00212864082688401937484834,-0.946167417451662440264215,0.323641950316113424790387,-0.0503509292352370407819251,-0.0466255690088598628850747,9.82363551432080051029061,-0.016474614679515279386246,-0.0401273755084328512254821,-0.00251431336919296461937523,0.232584336828970006383344,-5.14467770181679640018046,2.11071560859188700476352,1132.49532711162805753702,1148.69523230212848829979,1135.75692196436216363509,1136.47755975070504064206,-122.719370334044441506194,-459.98574248268710107368,-525.763553028950127554708,453.668205277240133455052,159.226500815370400232496
50.6075000000000017053026,-0.723340997039801703039075,-0.678508717368459635110867,-0.043386207020739794848474,-0.0283432371693879935070637,0.0344369975344256951110822,4.80645272738043192615933e-06,0.00433665482690522626624263,0.00218503068058990964836474,-0.94616809447172256497538,0.323639992929979691815845,-0.0474610981277558685587081,-0.0472202709873442358357032,9.82855081798897600720011,-0.0164100774708253772937727,-0.0400027135530000438334852,-0.0024654797546912634968741,0.232557449641777408411158,-5.14457785067201722739583,2.1107047173723616495522,1132.43970863195818310487,1147.30582654546788035077,1134.62874873309056056314,1137.60621198668172837642,44.5222836515718185523838,-624.431116931759220278764,-365.599627563247508987843,439.737326652075125821284,159.226617857973394620785
50.6099999999999994315658,-0.742270871971029699842859,-0.599946625888629347933545,-0.0446505634398484674285612,-0.0313461051519220781913511,0.0328959339224887958863519,-2.96607202613014447932852e-05,0.00431919158071984894686768,0.00223829079580442798225182,-0.946166192102702363619926,0.32364547546923982945799,-0.0445358270143830503595694,-0.0473663845697291571723575,9.8332122111446214063335,-0.0163396376006965521332503,-0.039888309401184214586511,-0.00239251493630830616016203,0.232534407777065799116656,-5.1444779123393615805071,2.11069490378172819333713,1132.71793852988571416063,1145.57307671747253152716,1133.92892382654758876015,1138.67624638396341651969,161.373068416159384241837,-749.134953245883139061334,-161.04070551756140616817,407.88091951069014839959,159.226760716844182752538
50.6125000000000042632564,-0.669796455287869019201707,-0.501923827388272902894073,-0.0337503396940521879776576,-0.0344927988207111430041252,0.0315883191638408958312745,-9.50739362277906220350526e-05,0.00430446393838587043623178,0.00228407822039707530600849,-0.9461618393653871139648,0.323657933767189098794859,-0.0416416187311726970765591,-0.046931592019066568910457,9.83754609488786257998072,-0.0162595224593081559560925,-0.0397841861683738765020912,-0.0022967310960606782815896,0.232515029618854451864962,-5.14437708116758063425777,2.11068623687861878224226,1133.24657397403939285141,1143.56015177923654846381,1133.82354520550234155962,1139.64561658423622247938,246.445644885726665052061,-905.100505883447908672679,92.6639858792422046462889,401.870485756329742343951,159.226931042598835119861
50.6150000000000019895197,-0.487025693477726340230305,-0.373349633810217795826247,0.000718150843222522920761275,-0.0374382532185406555202967,0.0304983758945278279894886,-0.000214877646893387472346731,0.00429823719154567678024659,0.0023192382517738811993635,-0.946154814769997520862432,0.32367788003163189269884,-0.0388787101043923527532442,-0.0458017419967905112243578,9.8414833483001142866442,-0.0161666295585820123104082,-0.0396892006709743325187922,-0.00218014576750783905384479,0.232498089467463892043853,-5.14427419863764789909055,2.11067890512760358845412,1133.9501667543149778794,1141.04757418805297675135,1134.39224375594403682044,1140.68559881274609324464,240.441902505099676545797,-903.793914573001302414923,313.233179365045771191944,362.753827805784339943784,159.227162335875959797704
50.6174999999999997157829,-0.280086875227476383987124,-0.264451195826799212440505,0.0524302962845180353657071,-0.0382537512429509257705362,0.0299609671717142693470048,-0.00034097875867840024164887,0.00430363699388496348530175,0.00234572568254207483584572,-0.946145383400170958410058,0.323704374062992350502554,-0.0363330562856393202153527,-0.043980899463147447858713,9.84496155508045411863804,-0.0160588643950670025006833,-0.0396010390511107729372142,-0.00204564520812102867280968,0.232482116165281499364781,-5.14416928390655670000342,2.11067274222239076308938,1134.44878348656379785098,1139.04118220637565173092,1135.38971110232614591951,1141.45938572326349458308,157.180411414457552155,-752.408623019552351252059,482.479774338006450307148,294.659586483780230992124,159.227373873698894612971
50.6200000000000045474735,-0.0542983073204094807140407,-0.159300832089858956930328,0.132148319285481596896403,-0.0372074617379316852083804,0.0296923528139898182387491,-0.00045568222310558305875039,0.0043210669970616894311477,0.00236781913085094353546567,-0.946134927907324674301037,0.32373321337818089515892,-0.0340561219020317496042338,-0.0415420922885187393625017,9.84792624360684953899181,-0.0159354138992859051260353,-0.0395164041913081062751267,-0.00189659953077760774428628,0.232465084565431995278217,-5.14406328493259135115068,2.11066762341250102608115,1134.73606881138766766526,1137.28553107295329027693,1136.8046426276353031426,1142.15889674516574814334,67.1152408579584971448639,-694.420035514357891770487,678.70504820659175493347,297.30467640959682285029,159.227600491276632510562
50.6225000000000022737368,0.211116516139047610822743,-0.0389918862660861842428517,0.259389690301585429388354,-0.0350090926643100847082124,0.0295431735688405569528747,-0.000476660476463223103590905,0.00434660358933939422465542,0.00239267886826955962845109,-0.946126108093286455336113,0.323756496912976698965281,-0.0320373139299506004551432,-0.0386496352672513338033511,9.85033224576408805717165,-0.0157968794749476365568697,-0.0394312526063615165217158,-0.00173678497312194706977961,0.232444458060016123646108,-5.14395763892871382694238,2.11066333149022877790912,1134.78435969085376200383,1135.56908202880208591523,1138.78323634336084069218,1142.94590910531223926228,-28.6127963420573117048207,-561.367842307082696606813,738.747024600924078185926,284.346986512159105586761,159.227884623681433140518
50.625,0.429733882455945070955039,0.0576608315753075542642314,0.385310207513618940833311,-0.0334483486413872169173978,0.0294972577562203908119187,-0.00027014339279250021820869,0.00437642076562968357356098,0.00242736156333350728761533,-0.946120817976997652287707,0.323768553860572294578191,-0.0302655034471578550381299,-0.0354765741943951912196198,9.85214390617238322533922,-0.0156455619316759955705898,-0.0393408976763545692456603,-0.00157007305777825370736445,0.232419151399859802431536,-5.14385398487336242823176,2.11065906175766482277822,1134.59300482967751122487,1134.47869186142042963183,1140.49837775063656408747,1143.58063167772525048349,-112.78781126189895189782,-371.584317896914910761552,660.274444426895797732868,251.581360975843921323758,159.22812778686011370155
50.6274999999999977262632,0.669092212387274676288484,0.152538794825122947518281,0.515499384782765246448832,-0.0328295148986281828951128,0.0295146414468669057717953,0.000380678793031001506605437,0.00440898373879880164927236,0.00247118242733741864253227,-0.946118773176485627907084,0.323769883422375226444956,-0.0287196337622639720488227,-0.032049074245348238565434,9.85333481650815379282449,-0.0154852633364883657957067,-0.0392401831803716183433295,-0.00139977930946273937222457,0.232389222798589811791459,-5.14375224987752854843848,2.11065531463425370972686,1134.22042063454478011408,1133.71116043931920103205,1142.08460856549231721146,1144.20381591019031475298,-168.069372409268424917173,-260.256655536389757799043,587.733262109458678423834,244.653358071775414828153,159.228373345559191420762
50.6300000000000025579538,0.944968213756031238936828,0.245628858125385290955833,0.630649172698562021643909,-0.0328880751363773635165266,0.0296213828027102159257122,0.00158004147010422303816501,0.00444285461768987796626895,0.00252079199661435580243074,-0.946119243564981227123667,0.323762230918261895151744,-0.0273601394991927239497276,-0.0283551157869764286489911,9.85388847307531889896381,-0.0153201973296237161509259,-0.039123881034423477198736,-0.00122907948899485296515022,0.232354603035183876480474,-5.14365189571995884421085,2.11065322411837197336126,1133.75265796763073922193,1133.1774085837378152064,1143.43704406118536098802,1144.80389846808475340367,-197.677927681605808629683,-162.375680673866241932046,463.170672997320650665642,225.43139204214929804948,159.228617967734692228987
50.6325000000000002842171,1.26772643054626588110523,0.331530211422633336315613,0.700727197523372424825538,-0.0329681618531856152065629,0.029939109458890136167275,0.00359915788298591438412743,0.00448094188805290248589497,0.00257144125228432303756354,-0.946121161261618714988231,0.323748436628153501981586,-0.0262162322602514132052764,-0.0243404864433802298195886,9.85379774307781453046573,-0.0151543043126898084593801,-0.038986982908382129819902,-0.00106102239504834755697005,0.232315653174194669539077,-5.14355205715698549084891,2.11065351629743691574959,1133.23203099613624544872,1132.89928203594945443911,1144.40046193048010536586,1145.33097287040163791971,-227.46648226496060374302,-63.1787359998845019504188,321.717415579243322554248,198.466656885328546877645,159.228858214042958252321
50.6349999999999980104803,1.66578229127561039391026,0.41244565197663829447805,0.701269127339180231572868,-0.0307199670199073855691996,0.0307485534647800318186484,0.00687675182608059321065497,0.00452590741330061163694154,0.00261791945871509392287924,-0.94612398174479406254278,0.323730064796818706174264,-0.0253071199975444006968761,-0.0199544349086434313900185,9.85306504341813393921257,-0.0149904989152024499532434,-0.0388251291144061788651598,-0.000898356467794343086646913,0.232273239174419332542243,-5.14345166384846663731878,2.11065591800339413808274,1132.61532555630697061133,1132.86151490373868000461,1145.04563113908011473541,1145.79623175251049360668,-215.482272081752654457887,39.3538868813064866003515,154.360110984919799648196,130.203931607344884469057,159.229137623811425328313
50.6375000000000028421709,1.94329587323761354689111,0.446969927478345407934057,0.619553631152653383473705,-0.0251722373453609378490814,0.031911176459835662033715,0.00981499292395948165490527,0.0045820743337814297951871,0.00265653840877954055404997,-0.946126999214607411481381,0.323709475052452066989872,-0.0246908932064170312525864,-0.0151728753166825436338172,9.8517016765469858086135,-0.0148304408860927099123028,-0.0386349501561623620560226,-0.000743440686553856460577761,0.232229721088944851548064,-5.14335024697491149936468,2.11065931525000749502397,1132.15461963572693093738,1133.09605147035608752049,1145.17226248540509914164,1145.98199252843869544449,-162.328874800922392296343,153.83105030297289772534,-19.0093012614300356233343,21.3989746203769435339836,159.229360532090311153297
50.6400000000000005684342,2.08589746349667093383573,0.429450788257295879013498,0.457704426387856189162306,-0.0166010815325708382950154,0.0336316336583669106552463,0.0119004261779818102523487,0.00464814493097956329265008,0.00268682073574536342541741,-0.946130211079523553152626,0.323687511376820225006412,-0.0243411428627706809268982,-0.0100740621149156828195714,9.84972811219223132184197,-0.0146742153797250803742847,-0.0384144934404571508634874,-0.000598191933372868881943485,0.232187467045970957757461,-5.14324806591057903659703,2.11066254580846379695913,1131.80368118230194340867,1133.6306701552539379918,1144.9505846327729159384,1145.9032266256124330539,-118.156762228744042886319,305.090104872356334908545,-150.898630024995242138175,-99.3553575964591431102235,159.229570424867176825501
50.6424999999999982946974,2.0623997937943827629681,0.336199855752522425156315,0.199443850325807803258726,-0.00667477178392477960705564,0.0360478028907459183138862,0.0128498048539130403644659,0.00471596247751832585437537,0.0027097021666652888055582,-0.946134707759228699153198,0.323662550528597714460943,-0.0241140750986421521784298,-0.00481030134608109727345493,9.84717320138267204754356,-0.0145203942982675016787342,-0.0381634308988024750775025,-0.000463924760700196625769209,0.232148100783538563485209,-5.14314578319490856017637,2.11066486447079304511476,1131.56383582458374803537,1134.62150199471648193139,1144.41776933528080917313,1145.48521574045685156307,-53.7007136082318510261757,417.448878593463803099439,-219.316381261138872105221,-202.463853381810736209445,159.229804502903732554842
50.645000000000003126388,1.90221561765072166849677,0.202042340638226319837756,-0.042690400548962968707567,-0.000471568478850505317778036,0.0377618076292787693826192,0.012765737100303519921396,0.00477670937780654697446536,0.0027264295704793597638349,-0.946141273623586909202743,0.323634691876646507502358,-0.0238575850041824362446352,0.000454761859704944093607537,9.84407251833811081098702,-0.0143667075301356916838813,-0.0378828774399253762061868,-0.000341414538024940091703874,0.232112727589003142725232,-5.14304437400031400073885,2.1106657799176455903023,1131.53517761426064680563,1135.71791454822232481092,1143.85400272646666053333,1144.89090735870286152931,20.8541027677604411394441,486.646572083942601238959,-230.019650658251180175284,-274.717767553598150698235,159.229982995295017644821
50.6475000000000008526513,1.66176566538636416581198,0.0318603075951251618613824,-0.28394719469983020765369,0.00314903115829848851900397,0.0384216915881524859188723,0.0123441561860042469528365,0.00482318556026822831128698,0.00273960041838994944329855,-0.946150504331221053888612,0.32360516149944229535862,-0.0234612922106695008517274,0.00554399291381926784261225,9.84046740961415444814975,-0.0142104157761658543568384,-0.0375751445125257974022581,-0.000231211449504028284263751,0.232080922959204960509538,-5.14294478725949133490758,2.11066522794221222980582,1131.66810633842260358506,1137.05473485513743980846,1143.26767108198896494287,1144.11162690268815822492,80.9796278503936122206142,633.771923947491586659453,-246.701691978748101519159,-361.26956597373578006227,159.230142509586244159436
50.6499999999999985789145,1.36534516030130004260457,-0.172731121120178243710797,-0.542356770360585827006616,0.00517630080962799138388775,0.0375503129354421774643846,0.0109415287178954677427267,0.00485456066099875134522978,0.00275206131397970343854809,-0.946161719321892191736367,0.323575006007610577185574,-0.0229386745967040776850165,0.0103199805666372712575907,9.83640348771142569717085,-0.0140486250451576644149299,-0.0372433682730310966491061,-0.000133812800550728083553639,0.23205189900778100398071,-5.14284744141058514088627,2.11066422103784834263251,1131.94007575351224659244,1138.88677416795690078288,1142.62049426657404183061,1143.0845595288358254038,102.545804961248279596475,703.165129269704721082235,-219.252571162793771009092,-372.538812493249167800968,159.230310310697177555994
50.6525000000000034106051,1.15544785149566742177285,-0.314597663253359804969023,-0.711114984360935786789071,0.00603190418455991101548408,0.0357115733756832656742297,0.00869408716914957246935103,0.00487356263102962407318675,0.00276608307870882062090567,-0.946173072500703593590288,0.323546587541705676915882,-0.0223688127465174364794098,0.0146844246486948493135571,9.83193018150619479911256,-0.0138786615468647345217335,-0.0368910486521416836058762,-4.97713479875024899525514e-05,0.232025258614576734839119,-5.14275187473107564528618,2.1106635018270365478088,1132.18083536322910731542,1140.57056050148776193964,1142.17140822617443518538,1142.248932840220959406,79.7526575214352675402552,698.174708263884213010897,-151.833439701672062938087,-311.245819488317408740841,159.23042949656382916146
50.6550000000000011368684,1.00113877305273568651955,-0.40779057741293855965381,-0.814735410131246284848316,0.00723541233719324650836002,0.033714080687480760256669,0.00590586875554469526578005,0.00488862779268582018504796,0.0027795752793846133753275,-0.946182422833116598681613,0.323524108028633738953772,-0.0219113112159348873142495,0.0186637379083830629022955,9.82709923224811454645078,-0.0136982934708416177055357,-0.036521688114333025754199,2.05316608631788275938189e-05,0.232000949016096247312646,-5.14265696151235562894044,2.11066324639334856883011,1132.33883904111962692696,1142.37764770927810786816,1141.86132706806529313326,1141.52833043139344226802,38.8196143917310294568779,735.414639803807745010999,-93.6334152446703598116073,-261.919090735966108240973,159.230526395254031513105
50.6574999999999988631316,0.8826398509183951412993,-0.461679933281381960075151,-0.862494228097438253577423,0.00905992992988462891856827,0.0320763899235831304035393,0.00332472803987551466728401,0.00490703094365878451921237,0.00279057906165689796618157,-0.946188539201587741622745,0.323510077064858569961814,-0.0217066967492919628279768,0.0222828790451032460184777,9.82196586136046612125483,-0.0135057007694839477374149,-0.0361386573793181717362266,7.6554017975701804644105e-05,0.231979103504348999065243,-5.14256181592107530775593,2.11066332123446276369805,1132.37493343518758592836,1144.24763370050345656637,1141.70324114995150921459,1140.93933738654232001863,-18.9027475411779661840228,749.064802139563312266546,-16.8227175804900426214772,-205.219989276187845916866,159.2306043979511116504
50.6600000000000036948222,0.781087427940612588628255,-0.482591513752181566765387,-0.852125377403826433919676,0.0114593519247426223195419,0.0310036369587071980458148,0.00124964511581821197463982,0.00493140260653988742045595,0.00280015681332327487362832,-0.94619169325257390656958,0.323503628624191907903196,-0.0218291061803000431551514,0.0254904145816047672523652,9.81658949734910457607384,-0.0132996808044683195726421,-0.0357451274491726936344271,0.000117409073164346123164387,0.231958991795443131289645,-5.14246634348570630379527,2.11066369290247157763929,1132.2443253034136887436,1146.12297171997784062114,1141.77721348016279989679,1140.50223048501197808946,-88.6001726201813255556772,802.162287687859816287528,96.0721276248441000689127,-169.959097420136828304749,159.230659385118428872374
50.6625000000000014210855,0.646053343590938689011693,-0.49260149064502378735142,-0.789548358393444060787658,0.0146066010566659690989022,0.0302058264659345425406922,-0.000842588267497653060390805,0.00495775700127290986501949,0.00280870165943799187865948,-0.946193477329946297516017,0.323501044687429628599062,-0.0222245573514191115116478,0.028215161143826578138416,9.81103313295141887806494,-0.0130800357594610967143511,-0.0353440183437206331684699,0.000142183433641083047452303,0.231939887523077453712617,-5.14237172234381390012459,2.11066430778149261016097,1131.93193257208645263745,1148.25844513894480769522,1142.18360178807597549167,1140.08954189944120116706,-128.518988527983793801468,743.887730427781093567319,202.331086716414887405335,-145.961197526044969663417,159.230698794704721876769
50.6649999999999991473487,0.508241869843695681652207,-0.5011413925546978065384,-0.706565720881672576503263,0.0170226077216494818544756,0.0297131249919639663092941,-0.00252671598147956441224316,0.00498226161909717715076118,0.00281675979161242259068976,-0.946195201869795110560801,0.323500255990128326999411,-0.0228389939441467591796364,0.0303938921466205408394856,9.80536222916725819231942,-0.0128481377063858603210234,-0.0349378421104567515875772,0.000149879334318873535126376,0.23192130499683313860082,-5.14227925323989687456105,2.11066516298297512932436,1131.60173036077435426705,1149.84241037211336333712,1142.78886891374395418097,1139.77242449738241703017,-130.347147059480164443812,570.940156906889455967757,284.166384717118660319102,-134.398706429032614551033,159.230709595112131182759
50.6675000000000039790393,0.343654172818331216099352,-0.514887725612294122612411,-0.601674188957524780363428,0.0187420812042995571511383,0.029082382583189292368786,-0.00437329622109925222894766,0.00500464656161105168191705,0.00282627265403689658870845,-0.946197474494393175881157,0.32350196036040185232352,-0.0236870549260671074687234,0.0319697981947620057940895,9.79964403914654447191879,-0.0126070393280468800306648,-0.0345285910904029394452586,0.000139345648414822731626928,0.231901371368901570990673,-5.1421892498701149420981,2.11066613579636364050884,1131.28019683678871842858,1151.11314592348071528249,1143.60443371166229553637,1139.41754836729569433373,-125.690070232057493626598,469.320444810306071303785,374.187693147395748383133,-168.090137018366874599451,159.230697290071020688629
50.6700000000000017053026,0.133143126002642941951848,-0.529597062469736146184118,-0.464122154223443050824471,0.0198332850156309851985537,0.0278547027367345642612229,-0.00659990894901585703480329,0.00502757088237476904013512,0.0028371382310967696582793,-0.946201325423638550660144,0.323505857285579956350574,-0.0248176043786593920892347,0.0329521692111685582382563,9.79394640387771175937814,-0.0123610049946994964703562,-0.0341177798149550695616661,0.000109563653291337904536681,0.231877791185488735248299,-5.14210178947617180256202,2.11066693459006859967531,1130.97328000961374527833,1152.18901259616609422665,1144.65980737948189016606,1138.93197381229015263671,-95.7801302775312990434031,315.09103232102921765545,368.449224662407175401313,-180.022360437333219351785,159.230654860331782174399
50.6724999999999994315658,-0.0324563213769409955600231,-0.52886956244121285930504,-0.355991899359609176300978,0.0199601578520179172293592,0.0263314961282693354993611,-0.00798358368730732632922997,0.00505526927978777913808006,0.00284533181838331292873301,-0.946206411951364345647164,0.323510575193918459291353,-0.0262754638008879277955021,0.0334421431965019333443223,9.78833682125725701439478,-0.0121151113151485977786903,-0.0337065223216092904601204,5.97885928364679021551099e-05,0.231849588011763502182205,-5.14201622694761528720164,2.11066798437878233585252,1130.80129618540149749606,1152.6886010850844286324,1145.44667983497265595361,1138.51743656510984692432,-54.4083153245714115087139,122.535117964372219034885,259.650955818509771688696,-148.522546981454496517472,159.230595288925798058699
50.6750000000000042632564,-0.160471505823270466084551,-0.501238154569608851396367,-0.282125968758511036504899,0.0193516129396316127753153,0.024449419070463714737107,-0.00820279401666611576726673,0.00509195669427653374583542,0.00284771130361417259754808,-0.946211463514556316845017,0.32351393797907662674973,-0.0281015833904462199177576,0.0335331619796425395296779,9.78288280818149935669226,-0.0118746559913414772430285,-0.0332958021909140616800826,-1.07648883210837185498213e-05,0.231816798481156993716468,-5.1419319485310372996878,2.11067019474787409549776,1130.70123843299074906099,1152.80168818598826874222,1145.95806215857510323985,1138.18936107738250029797,-32.9983057925177831748442,-7.93268281949671116848322,140.433057535457010089885,-99.4347372985831157166103,159.230508648127965898311
50.6775000000000019895197,-0.238916095303220471501859,-0.446729501309773124884117,-0.257029591501262477670764,0.0182071307226870544859754,0.0226389153032545663302155,-0.00733228591110247213125106,0.00514259895896905863676984,0.00284249758826490839247469,-0.946215140787846742398415,0.323514347595434292870209,-0.0303500109788561768520143,0.03330681730166344667321,9.77765085185805737921783,-0.0116446222176713656132341,-0.0328868267320285290189474,-0.000102810821373824397154464,0.231780946194933668014215,-5.14184899502296488549291,2.11067441468383121261354,1130.63630465643882416771,1152.64893767098692478612,1146.14884512265030025446,1138.02026287861667697143,-21.9266470902966155165359,-106.084606981408867909522,-5.95078887918675825119408,-12.3046299685595883488531,159.23039770058707631506
50.6799999999999997157829,-0.243301778476604974033037,-0.364291200177184304465072,-0.299700485452964793253727,0.01659759765873819112314,0.0212793291567925646479154,-0.00610682534401063136647592,0.00520586910673185958298159,0.0028293700300367988914596,-0.946217586526146625658384,0.32351096323832806422871,-0.0329589104738771399016883,0.0327865275199902272973418,9.77270630725057820598067,-0.0114291650060114255427202,-0.0324813765135111773285637,-0.000216718015872590399851713,0.231744008325135864012623,-5.14176772493446598844002,2.11068064090579232683353,1130.59160519753936569032,1152.27126515108170679014,1145.9283082141791965114,1138.12783792753975831147,-15.4329870215781905784524,-191.453409793159437413124,-175.395562400355032650623,118.536775980040445688246,159.230254693119263720291
50.6825000000000045474735,-0.161635280350047039199524,-0.249034832002542033668746,-0.406913820172217832737971,0.014678586955414912526563,0.020273239210035889912298,-0.00575535543065504220233697,0.00527831678902084596577415,0.00280759910097537566248116,-0.946219993662210323570605,0.323502838093343347836139,-0.0358177940352742973928457,0.0319984313360184152719157,9.76811103723447970992311,-0.0112312684038287455973171,-0.0320819818013667185097049,-0.000352047566198393155345592,0.231708261475429833087247,-5.14168866058928131224093,2.11068827315877793893151,1130.55913972133089373528,1151.691670622020637893,1145.27186731064807645453,1138.61294675851718238846,-5.39944362571710634313149,-216.702816170780437232679,-282.769509826622140735708,228.465922090591902815504,159.230041834290602764668
50.6850000000000022737368,-0.0353530020493527732949879,-0.154590761014127248129668,-0.505202322359362687720363,0.013817309495644707409423,0.0198833027746679324998524,-0.00694830707926450113348649,0.00535381309040284907030394,0.00277850981987135502160324,-0.946223675204445169306666,0.323488231879911714017339,-0.0387750471156241005576959,0.0309220607706603700659542,9.76392252709432106883014,-0.0110526297862471815230956,-0.0316918435332432246731571,-0.000507423598405042758884009,0.231675188659803327206888,-5.14161222331585054945435,2.11069590801265594137703,1130.56460797941076634743,1151.18775107022725023853,1144.51446066504536247521,1139.27016753799330217589,13.1863905224355999479258,-193.339715992436453007031,-317.555478890715278339485,289.659220964622079463879,159.229826605355043511736
50.6875,0.120005948577066312576989,-0.0799286266485971091944052,-0.559272918695979504022375,0.0143024326433214797604787,0.0198202221777021292403731,-0.00952634909324610867908945,0.00542266427822284124982133,0.00274721203103620720264999,-0.946229857285490250085047,0.323465143409071509417174,-0.0416346236823258997183927,0.0294523331944402388948845,9.76019288179575283947997,-0.0108937715049400446476469,-0.0313145028009446310668373,-0.00068049217067177921597354,0.231645157423884778813417,-5.14153864645029479163441,2.1107014854477812448863,1130.6250716739430117741,1150.72497204205933485355,1143.68408991619594416989,1140.06124286333897543955,39.6584975635866214815906,-191.92395961521646086112,-360.315949792048115796206,338.50646829040533702937,159.229567660111882787533
50.6899999999999977262632,0.301277788970799653700539,-0.0309509273803796232382712,-0.525882440100567949414767,0.0159123317936303715347535,0.0199701842352352290643758,-0.0130013571175476363994683,0.00547779677554282966311927,0.00271683096126206034132133,-0.94623942993665055567476,0.323432042751120973900214,-0.0442360408218675504876671,0.0275443779836626462254046,9.75696526375667616548526,-0.0107542302802826113955481,-0.0309533889637072096023829,-0.000867629414587866611141553,0.231617375105205997032343,-5.14146780713729345535512,2.11070347812403547038684,1130.76290046722851911909,1150.22813127215204076492,1142.71288091608676040778,1140.96269987944378954126,55.4391063759965732060664,-178.120871765758977289806,-348.750127019960757479566,293.904651877651019731275,159.229201072695275342994
50.6925000000000025579538,0.42843070169405578218047,-0.0336979610857909075982697,-0.402320254583997449771005,0.0174936005269951087848224,0.0201894107503878331155711,-0.0152413311013390746079255,0.00551656267116149706675188,0.00268732003698524471446696,-0.946252364443271987148876,0.3233896106385190649668,-0.0464820777820794117651815,0.0252454584112075525181851,9.75427226218541676416862,-0.0106327731558073512729834,-0.0306113604201824311690228,-0.00106422852650148473327429,0.231590752455164278211797,-5.14139867845436437931994,2.11070105400471819123709,1130.90226720582313646446,1149.8343676832300843671,1141.94033928109524822503,1141.53076612272798229242,45.6279031812067259465948,-164.349658270800830450753,-312.17810413770564537117,164.335623675385761544021,159.228845069190953154248
50.6950000000000002842171,0.520725118340148118711852,-0.0886773161256009107011877,-0.185755027984863790857517,0.0189708155825704591346259,0.0203988102371886921571065,-0.016391125329584241288039,0.00554511053244132259831822,0.00265661111594112184924876,-0.946267252523501745109513,0.323342062922428896687421,-0.0484286235798409014918775,0.0226995975574818403819322,9.75213469190242143724845,-0.0105275158787189442727295,-0.0302903899246194409367039,-0.00126531630814712353974572,0.231565373708750993353434,-5.14133036115314290270817,2.11069433829415364911597,1130.99103998313466945547,1149.40638298079761625559,1141.15199039539743353089,1141.78437799782113870606,12.4076410659767208954918,-184.802834293427451939351,-332.588670393699942451349,40.4815133481319975317092,159.228431787594416846332
50.6974999999999980104803,0.583602147881799093731559,-0.188183914001437968543939,0.0927380082616644646487103,0.0203665056187678460142276,0.0205022627296825576959094,-0.0168363166305387397525539,0.00556852220971662623810738,0.00262201370970532518511753,-0.946282862034755645197492,0.323292829104842693865862,-0.0501145993591662064492454,0.0200575995181404009848336,9.75056359917484982702263,-0.0104357220526424508688645,-0.0299915113403205792208528,-0.00146622177737361011895523,0.231541411903086719048517,-5.14126195174508193730389,2.11068449505160105061918,1130.96430541115296364296,1148.91035351176378753735,1140.27739592912826083193,1141.73317368946845817845,-53.6221242798727288914051,-221.124136491085323541483,-387.4876298773252187857,-93.1713324913267513238679,159.227967307347313408172
50.7000000000000028421709,0.613650657445998781724938,-0.33693271542165126319901,0.421481030138168510923435,0.021799876589819563998951,0.0203124014330725091714847,-0.0166420375497971784195528,0.00558965803425946587690287,0.00258085358426609918353067,-0.946298300297877537090585,0.323244129117146394847282,-0.0515465410303702076255661,0.0174559442274726389632278,9.74956109679776439236321,-0.0103539465957685362235141,-0.0297147774170666879867131,-0.00166309225849170321497039,0.231518873747899034398756,-5.14119263106679014185829,2.11067376220015434640231,1130.72292936173516864073,1148.30076229834162404586,1139.21455224600981637195,1141.31852133536426663341,-162.239043439475381092052,-297.490866026767150742671,-520.80786709280528157251,-253.861135636504684498505,159.227436515641926462195
50.7025000000000005684342,0.615791904048334948207355,-0.558122015655876824169468,0.835206890111588995395664,0.0236617334042087158751944,0.0194617228498128423674896,-0.0151599242814474087504006,0.00560903926401417046027076,0.00253467878019373541592651,-0.946311737764508942305497,0.323200739962649807868189,-0.0527233420832193822036515,0.0149364104046052770247144,9.74912192160471313684411,-0.010278520248953669502523,-0.0294592053400642948923771,-0.00185338380993025774075289,0.231497371969120652179797,-5.14112170495874831743777,2.11066407302541403367968,1130.15311019395517178054,1147.42289918162919093447,1137.67335659366290201433,1140.4638680112852853199,-246.307258928205840220471,-345.028249427145965455566,-603.495593712571917421883,-357.130981061488569139328,159.226716882565881405753
50.7049999999999982946974,0.592768533664993380050134,-0.761956214000726217427939,1.1626120661486332164003,0.0251904674798094467547127,0.0180034963550093907169725,-0.0125847384190708993373375,0.00562270359361533716979764,0.00248325146954695135520508,-0.946321465343604173448,0.323167053522940339593816,-0.053560275560229214653063,0.012541428553625721953324,9.74923398284497189081321,-0.0102056782383185100371303,-0.029222993493529483832738,-0.0020354071203159424668927,0.231476818853918825391602,-5.14104901783923917690799,2.11065633134520336255946,1129.4913930670952595392,1146.57562105120746309694,1136.19707427744970118511,1139.53286643005844780419,-274.48804791196891983418,-357.486266834984178331069,-608.768765104885119399114,-392.777045673327904751204,159.226043937877875578124
50.707500000000003126388,0.549339062405627021057342,-0.963196384927694104760576,1.43182811016679623072889,0.0263313327122491128151616,0.0155740241292855255417216,-0.00885887983493420863578827,0.00562563738279597304325907,0.00242861443555282248765725,-0.946326602706595743086382,0.323145150722244256513704,-0.0539785097533220237231433,0.010258797418481777063981,9.74987959290522709920879,-0.0101317391901048266950047,-0.0290037435757451132756213,-0.00220831943078046754116994,0.231457445388983468204103,-5.1409755617057024679184,2.11064928746481372812127,1128.78066995439462516515,1145.63546784745335571642,1134.62951276813691947609,1138.49998278291764108872,-273.898525656837534825172,-422.865898314205082897388,-675.809115847114185271494,-443.964900534183698255219,159.225290451227067478612
50.7100000000000008526513,0.478118048783936155921026,-1.17803235527150440553612,1.64964099660397289781599,0.027211880661553732724256,0.0116941795559276848215369,-0.00366704429271828185113447,0.00561368194632490529610847,0.00237762681464738718020713,-0.946326756625640586051418,0.323135777312885452694502,-0.0539555900179874980970851,0.0079853024725234644787264,9.75103664903095435079194,-0.010053422778046184130063,-0.0287985738673576276147603,-0.00237203065269442044463166,0.231438140627281657701886,-5.14090204117891236279547,2.11064155969649158706147,1128.12190043881037126994,1144.4612915596353559522,1132.81802869821240165038,1137.3130419273863935814,-169.895425214572156846771,-424.724838941324151164736,-628.340186884978152193071,-401.764784098215159247047,159.224289342709909078621
50.7124999999999985789145,0.400898037512651184144374,-1.32492265299493383601259,1.72433975367134206813091,0.0278693110094047347136126,0.00822547228020097283274215,0.000974998474242320251059724,0.00559041026803928139260469,0.00233353625709156612191841,-0.946322065775360599104715,0.323138144756842105032035,-0.0535984206974117610711161,0.00572433629287943945840311,9.75267730586001846404542,-0.00996795969076863346003403,-0.0286042716655538244163726,-0.00252659497264000202157441,0.231417478696928191617133,-5.14082820897335412979601,2.11063372028208862118959,1127.93119282832253702509,1143.51184365274866649997,1131.48781183371488623379,1136.49115886242839223996,35.8391458991535216682678,-353.598992249682055444282,-475.354795250843949361297,-270.422276960833073644608,159.223372528337307585389
50.7150000000000034106051,0.295078124466090330191292,-1.43646784563838680881531,1.67585926838732213184358,0.0287123945362133189962428,0.00519124637910744774621508,0.00579977147512052496058921,0.00556328680425593330438616,0.00229552591670557307873546,-0.946313171520415830073603,0.323150236965131343325197,-0.0530683091351809299585085,0.0035693555814321764607655,9.75476982774667256137491,-0.00987310333717573117284783,-0.0284174637137251905050217,-0.00267215582968431024715739,0.231394887339742089116257,-5.14075380479862698024363,2.11062672290658515095174,1128.30109616830623053829,1142.69329659838604129618,1130.44125472195696602284,1135.96093054258153642877,254.465104679326827863406,-289.936838109985671962932,-366.370016874310692855943,-154.501037820921823140452,159.222369070890749753744
50.7175000000000011368684,0.155270711344143191867673,-1.5190777691838157625881,1.52452160873634756654837,0.0295494615101397940792882,0.00241929592759819759792417,0.0105811225925475163589518,0.00554241051087986554002374,0.00226116760005506045247414,-0.946300014528831168192369,0.323172523929786348340087,-0.0525710354955437747515035,0.00165051646212088787279981,9.75728013079748279778869,-0.0097672478219063829651958,-0.0282348007384318200330142,-0.00280897794569033056044649,0.231371246016154163971379,-5.14067858118500886632773,2.11062124052487476433271,1129.20351835171982202155,1142.06215946219799661776,1129.65596174934239570575,1135.71865367332338792039,481.679182035151541185769,-190.163316547650680377046,-254.827345180733402685291,-30.1748049641720861302474,159.221293939018295304777
50.7199999999999988631316,-0.0357608181199857572130085,-1.55955570720963510034096,1.26106634550476703893196,0.0301412105723028039827582,-0.000789015389925844441189329,0.0146039657173196845557639,0.00553297128075623881326983,0.0022283616907691574694772,-0.946282426329717818447307,0.323206583067660313535185,-0.0522284031252527314315159,5.14501567413228055869467e-05,9.76017404125909315837362,-0.00964931237855078810516929,-0.028053243374739991050637,-0.00293733218468417286647898,0.23134818169111684427186,-5.14060304201155027215009,2.11061709721442980480788,1130.70949207847979778307,1141.7424800156486526248,1129.16711799605445776251,1135.81005651776081322168,762.131100689176719242823,-50.2474359305067395098376,-159.275201020600803758498,96.6843310268774160931571,159.2201336674595495424
50.7225000000000036948222,-0.329899983733770496563409,-1.53835434873242649089775,0.846379292300589725073223,0.0303269528409391558865238,-0.00589999686899832058439852,0.0178034845700006105762014,0.00553529196551342909937699,0.00219664176092641393739369,-0.946261807987036851486096,0.323250425442808908549353,-0.0520861207580661789151577,-0.00121415993036103064817155,9.76341775811068046664332,-0.00951852227787584534435261,-0.0278703073640953410960996,-0.0030573124086496869696028,0.23132601000896574339194,-5.1405278441442350256807,2.11061351209613334845017,1133.01417385516765534703,1141.81092228254533438303,1128.85958574423898426176,1136.20207532845802234078,883.218423343945005399291,111.434840455592450325639,-77.420945677846660260002,167.048601710899703221003,159.218645953504449153115
50.7250000000000014210855,-0.625834734432254014002694,-1.44773978381174273089016,0.447199069322314901597792,0.0298579533016869978767627,-0.0107080416300779929922316,0.0190628736921854245733865,0.00554482468081302602713745,0.00216806727940441808927252,-0.946241483564225993596608,0.323297729701069291863291,-0.052117296685146030643665,-0.00221838635103797920944402,9.76697810194810145389965,-0.0093744881978811266803886,-0.0276840813308829071515138,-0.00316870492936719046206395,0.231304179051311092907284,-5.1404534654115856540102,2.11060900356230751739872,1135.12558419520178176754,1142.29965421792689994618,1128.78001326766502643295,1136.64529952631573905819,825.187981704061940035899,295.291605713551064127387,-5.47265366131384567438545,169.843820683417874306542,159.217329823252953246993
50.7274999999999991473487,-0.960371455626444214814796,-1.27872364038907360139774,0.024495414190063527493102,0.0284867898778687587968417,-0.0148548522217594215766301,0.0191499469324458368446606,0.00555594955762312922575852,0.0021450437924195805972083,-0.946225112600961204556427,0.323342111545430743735352,-0.0522758861002735331080515,-0.00305379388307649990430548,9.77082165488835840960746,-0.00921751321293319547667267,-0.0274930994142468035357219,-0.0032708503092577197526869,0.231281975270285794499259,-5.14038062028954545468196,2.11060212739509589496834,1137.1401137636842122447,1143.2873803111117467779,1128.83222247593243992014,1137.05129443187433935236,805.673074325792867966811,555.049951213220765566803,51.4528177419570553752237,137.382859863303309566618,159.21593880212893168391
50.7300000000000039790393,-1.37738973486523352818267,-1.00439247067760306642015,-0.480786948047306872400242,0.0255617762877994453285524,-0.0183646847216300326821603,0.018422613478883922977225,0.00556437542447140408297113,0.00212646578251540156051513,-0.946214086421736211285349,0.323378372672270875121114,-0.0525145455558520685146462,-0.00374570329725495976269656,9.77491396222447406216816,-0.00904864878090448285230529,-0.027296264406887021242154,-0.00336261757030170607002395,0.231259219980355951173934,-5.14030906017207644964628,2.11059262863740926263745,1139.15394956683280724974,1145.07490397399442372262,1129.03727735637494333787,1137.33221382563260704046,643.709332067544778510637,750.267607935100386384875,106.591481866998989858075,51.5877926901075483101522,159.214188547730771006172
50.7325000000000017053026,-1.71022911701358526492811,-0.737779300843185770197863,-0.882529616262955118877187,0.0220404367478110978229022,-0.0201158112738915977046883,0.0173280540229741979174616,0.00556445340741164133635532,0.00211027065982818213749073,-0.946208023955460442167009,0.323403366167168915268348,-0.0527489792636841314799057,-0.00431494165533846674165375,9.77922042753761999733797,-0.00886962640826621274980912,-0.0270927702748740145688444,-0.00344287923281543818687656,0.231236264814760061891974,-5.14023801390003054478939,2.11058120513198588241721,1140.3586604240235828911,1147.03871835078916774364,1129.36517988526770750468,1137.3092333953250090417,372.560316188876242904371,859.381897632337654613366,183.036987437647468368596,-71.8625313193768846531384,159.212666817734742608081
50.7349999999999994315658,-1.99083253262392179117057,-0.455841020012552000650885,-1.23964398940795339498777,0.0173960471575429452550932,-0.0209754880257367291862547,0.0151016013711613508729847,0.00555660637930383352611763,0.00209458516899567633029466,-0.946205606399519560945066,0.323418134938613710538391,-0.0530005274983607888028558,-0.0047505703908189006456908,9.78370528586954968375267,-0.00868283180685775271556714,-0.0268820826195154648219354,-0.00351087353777876365334976,0.23121343295764251735136,-5.14016721207076709987405,2.11056897279454203086857,1141.01675114777549424616,1149.37181346215220401064,1129.95246229356234834995,1136.9729011690360493958,179.231279174563667311304,959.991982650726640713401,296.809420941311202568613,-184.64988463678866992268,159.211085030486486857626
50.7375000000000042632564,-2.20056464911307392284812,-0.173614172793166571251433,-1.53595029036870189820263,0.0117290100363338228861565,-0.0213554176966415272531652,0.0114374360551444537170696,0.00554283760035835602192344,0.00208112964588769936563617,-0.94620589435799340449762,0.323424054473507138762756,-0.0533340551953696839770913,-0.00509989848351562191641762,9.78833295593973495840601,-0.008491110657751585466535,-0.0266640161123189479985829,-0.00356657138844435148833378,0.231190610292590803531709,-5.14009668297219146637644,2.11055677741358405086203,1141.25481681989685966983,1151.8386782640452565829,1130.84922698997502266138,1136.38598397214059332327,14.2102880410602718797008,960.764157897173959099746,455.147530830248797428794,-283.347147050554326597194,159.209457832647700570305
50.7400000000000019895197,-2.2982916996214912686014,0.101095852395082064223431,-1.73043847506230186183984,0.00504989304215384179203019,-0.0213578544930022769243738,0.00648322506503611929729036,0.00552460132023607861789793,0.0020730096425229699481918,-0.946208653568742175110629,0.32342188469616484081115,-0.0538036917481700266430167,-0.00543976857111097555907975,9.79306831577976488745207,-0.00829778123833904354689217,-0.0264388026607173358406566,-0.00361058029798848280009227,0.231167678279420363285368,-5.14002667221143916265191,2.11054554885841394451518,1141.0878025879808319587,1154.17563425164053114713,1132.22819994771475649031,1135.55616543378255300922,-135.705335696171204062921,916.425388318899763362424,735.445558822253133257618,-396.449992976837563674053,159.207781517740528443028
50.7424999999999997157829,-2.27175541054000973417715,0.415958053290308160665489,-1.82378088271857330404657,-0.00309724636306064199375854,-0.020976047244341013836566,0.00011072882308346590051612,0.00550013993999491721670347,0.00207441406502751257354134,-0.946214657729388730622588,0.323410880796887900689995,-0.0544010010141352112755797,-0.00588658801517709384665267,9.79787722329264809673077,-0.00810662540141228286916242,-0.0262071346771727241298233,-0.00364402519500181629880098,0.231144108965031291891279,-5.13995828217289929540357,2.11053625188627469455582,1140.57629014141662082693,1156.42080520563558820868,1134.52645478408294366091,1134.40373400725820829393,-218.956444095489899837048,679.816807886088668055891,948.375531346634033980081,-425.904881608867469822144,159.205720866883268627134
50.7450000000000045474735,-2.13777193718897295937609,0.659777640492992145659912,-1.78309018523696760638586,-0.0092022410871083083067079,-0.0202251822141521382658613,-0.00515163126337950597055659,0.00546727609231813672235889,0.00208991231570459113503491,-0.946224886498759798492131,0.323390659066496943818692,-0.0551016514615827041057017,-0.00656444276624856826174437,9.80272588299155778202021,-0.00792189509575574705990686,-0.0259701231305351047662366,-0.00366827144756050457438668,0.231119278652067133839054,-5.13989312096373840432761,2.11052891837494538407327,1139.99302036750282240973,1157.57471829107271332759,1136.97007760445035273733,1133.42664102573712625599,-249.326394906265477402485,281.724434427807409520028,1063.17846227443806128576,-364.946086688991897517553,159.203968600908893904489
50.7475000000000022737368,-1.91509855226024905405779,0.869962377070641279530605,-1.63394681270664476890886,-0.0142333807192855550660671,-0.0187629452432624757585167,-0.00996047213106940158844349,0.00542600085655713711835224,0.0021167260220546816294751,-0.946238846661920485203723,0.323362255275763454953619,-0.0558646409285757650220461,-0.00744418572127053534970287,9.80757929291342911426455,-0.00774812959847904700327881,-0.0257292224481986755990626,-0.00368420220668840437544533,0.231092829186195447555008,-5.13983159026635672006478,2.11052300352219157630884,1139.32965816688465565676,1157.82942737777534603083,1139.84234709545785335649,1132.57900357381231515319,-302.528233537034338951344,-83.6045571492683023961945,1307.14070145173286618956,-310.94982328246345559819,159.202186741510388401366
50.75,-1.58794824327286310250429,1.05712299805700915555917,-1.36406640076253493631953,-0.0190443110677584355461267,-0.0158701621633034195557599,-0.0145524046585234212436433,0.00537561349711470227302756,0.0021490645898066314950503,-0.946255215863533338804814,0.323327415209928914485715,-0.0566077666138747881419135,-0.0084409277161457130222999,9.81240186873239750298126,-0.00758969969200639152373533,-0.0254860348425931075577733,-0.00369220853726255539978274,0.23106444538354944939762,-5.13977352725947689293662,2.11051743384584611362698,1138.48037919981902632571,1157.15669550532675202703,1143.50578111170307238353,1131.87189190932622295804,-320.80284862369882148414,-371.517860413151993270731,1324.63732536937163786206,-188.929838674029213052563,159.200021631518154663354
50.7524999999999977262632,-1.29657279036944683703325,1.13761209952400377254378,-1.09529775448121480252439,-0.022021780670688672482127,-0.0124550451046557836970452,-0.017306002043557321828926,0.00532281811746983853778081,0.00218281801040882093845052,-0.94627249850039629741616,0.323289005240014859499098,-0.0573892496586231870558947,-0.00944913576717638925561715,9.81715595846196720231092,-0.00745026767061433229516476,-0.0252421258454284813677049,-0.0036922752815151133748417,0.231034293604411022915457,-5.13971845707511310052951,2.11051179339743955054587,1137.72564392376762043568,1155.97183807571127545089,1146.46553372229868728027,1131.6343543804430282762,-316.049660903465564842918,-537.810211894654912612168,1092.87418657630519192026,-9.37803765013516077431177,159.198199942570226994576
50.7550000000000025579538,-1.01698925962992592353373,1.12189651247363886277242,-0.818914498845667027104867,-0.0240681915981232341650298,-0.00847141806828377585958378,-0.0190569176601687560734799,0.00527759022334061637243829,0.00221419897632683633850736,-0.946289324405547582763631,0.323250110800601564431389,-0.0583249244709744124604001,-0.0103433672500182760600751,9.82180181424466347550606,-0.00733231184214732691073468,-0.02499890816315350830501,-0.00368386988583556743148684,0.23100333464449862574952,-5.1396654748308625570985,2.11050592991238650242281,1136.90013089530089018808,1154.46764444585210185323,1148.97015204458739390248,1131.82500172107552316447,-344.778008530789577434916,-603.750530855550437081547,877.79780191504528374935,147.270213213930361462189,159.196365643469022188583
50.7575000000000002842171,-0.763077908360029533163527,1.02578438847554509472104,-0.560129088984307910159544,-0.0256021638344072349768865,-0.0047869211747303816104071,-0.0200882563252221570115896,0.00524941622185890258145413,0.00224036664144901991393977,-0.946304247828155253863258,0.323214488425080936906397,-0.0595248730774279866118093,-0.0110136955296254723801752,9.82629774591901394842353,-0.00723684492157624422586926,-0.0247575197626939448591887,-0.00366600199823100426216316,0.23097298341657962472695,-5.13961349363266783996096,2.11049955733585159478594,1136.00175388111279062286,1152.95308542143197882979,1150.85452273187615901406,1132.37070544651305681327,-376.058731906438026726391,-558.636194054141583364981,565.723023955766393555677,291.701540420255412300321,159.194524654399998553345
50.7599999999999980104803,-0.549376653488635180444533,0.84989648662052030836378,-0.34262298295413495807793,-0.0267547897806729995107133,-0.00209169656626975730695506,-0.0204950259456083277997962,0.00524303217023454597861543,0.00226162009821048899660401,-0.946316571744167944757464,0.323184087911845496776664,-0.0610312383107558392714154,-0.0114339167194957291862067,9.83060064962159785295626,-0.00716319077233001748339358,-0.024518755468053526208605,-0.00363740269834196073076016,0.230943642950079464082336,-5.13956128809063272910862,2.11049269762963653818133,1135.01983723577041018871,1151.6744634755839342688,1151.79876716436365313712,1133.2835094231754737848,-441.746480554731078882469,-466.572233519434632853518,188.472894454793248542046,458.59569413941432003412,159.192679766360583926144
50.7625000000000028421709,-0.341707633122325771246608,0.58330026717703187255637,-0.142539482420539154183814,-0.0276489919880671085328228,-0.000110546723386113063453996,-0.0205704431612607901991296,0.00525885787941083888280547,0.00227871610621599527540804,-0.946325923207762098599005,0.323160174423260559972704,-0.0628116466054305100374933,-0.0116093763010610695474156,9.83466545590325402770304,-0.00710913600623457736515931,-0.0242830545147068484201913,-0.00359645820015524987287026,0.230914896693354326773218,-5.13950729486811930257772,2.11048584086393242742474,1133.79302147833800518129,1150.62022425383361223794,1151.79688720415060743107,1134.66368391721130137739,-444.154088404502715548006,-291.817560263130758357875,-165.501148673826634194484,528.983261104579014499905,159.190466293204906378378
50.7650000000000005684342,-0.20600309258051738292572,0.344395434805706945891046,-0.0280223546229917963579226,-0.0279498747644700944181562,0.000659865602676095591716532,-0.0204621134513595266668506,0.00528942165028408687460493,0.00229332951111912161992756,-0.946332863991820483207107,0.32314149349415055567647,-0.0646982673520628132068921,-0.0116088893243159463342096,9.83844602083990338314834,-0.00707107855694964846510198,-0.0240506476339655932139561,-0.00354129483886009288617913,0.230887248522984006582348,-5.139451114304796952581,2.11047861476493459065296,1132.79906679374676059524,1150.21537567426753412292,1150.97126142099409662478,1135.92842572869972173066,-369.229119806795324620907,-59.1973377534115527964786,-442.470515448114838363836,502.134566325005039288953,159.188625311245459670317
50.7674999999999982946974,-0.0995170641330334337926189,0.119511217120815999015448,0.0374990047300401349583687,-0.0280132924323566873114899,0.000755025192962650078948306,-0.0203063955768592735440237,0.00532249962171989134812611,0.00230966752331852615692798,-0.946338996877490568060409,0.323123840470674439373511,-0.066458542592411420923959,-0.0115755401738400903743909,9.84189527771910555031809,-0.00704429158759600684142077,-0.0238217877495694625722411,-0.00346991660829669120238994,0.230861235701537770292902,-5.13939337927823114426928,2.11046974949631760409829,1131.94687587930570771277,1150.32423756506682366307,1149.58453462691204549628,1137.1743567488340431737,-314.433824313640002401371,162.632926880004134773117,-653.80550928083016515302,520.605667357046627330419,159.186791719881000517489
50.770000000000003126388,0.0123045629978883463984118,-0.106281362677565632823828,0.0702822821786698442858565,-0.0282774562757786632194446,0.000275257027217196321728504,-0.0201369209011006376763842,0.00534988116250034121540446,0.00233053690570903491996457,-0.946345307372695287995157,0.323104771106840993333265,-0.0679342201767462738892789,-0.0115981169775009329558912,9.8449640947820586944772,-0.00702346490144051000675818,-0.0235969086114500292694629,-0.00338017552704208967817578,0.230837170444819578252194,-5.13933487357527418737391,2.11045828982162841924719,1131.22689767217775624886,1151.0285403086679707485,1147.70223387458827346563,1138.53145406548628670862,-196.551847484615279881837,347.536420672808617382543,-667.34616335422708743863,465.577139326513247397088,159.184604211929411121673
50.7725000000000008526513,0.10633095985377565007024,-0.243391333145668964377251,0.0681949481720348776869756,-0.0286721381530245129909407,-0.000560583258266722918132519,-0.0200283063556027998708409,0.00536588438016459903789901,0.00235672228886783059406684,-0.94635201016933745421511,0.323084065340372206254216,-0.0690107438842572640247397,-0.0117094395489327485204711,9.84760281210757959513558,-0.00700307591052749985049974,-0.0233766775231204378127092,-0.00327009959661087989263306,0.230815946983226660815802,-5.13927632271380741002531,2.11044385511748089356843,1130.96411664188212853333,1152.06191966843175578106,1146.24780381013920305122,1139.50224244546780028031,-22.9640640567349372247463,493.324232968091848761105,-506.433970786798852259381,353.768960248638677512645,159.182795100415575006991
50.7749999999999985789145,0.212582301756918695678777,-0.317526660561921858505485,0.0455178354608665944325274,-0.0288510430325521344263606,-0.00181308175523623837238629,-0.0199545101756738556264548,0.00537124447303248628987626,0.00238657109017366029710128,-0.946358833012298505948934,0.32306282816152070980209,-0.0696875327310813724723815,-0.0118545442057765015864135,9.8497622004131777373459,-0.00697766476134865747116276,-0.0231619294877095580065252,-0.00313832961565774747059177,0.230798276118336337381365,-5.13921795665959901810993,2.11042678247881676512065,1131.11207735189418599475,1153.49516147350618666678,1145.17006402065658221545,1140.30029886672787142743,159.98048246120561088901,697.252209511823593857116,-358.996865601191586847563,318.758667685070292918681,159.181004129219161313813
50.7775000000000034106051,0.35578823671939058259639,-0.33282288084152200635657,0.00466216071064823323055748,-0.0284312910899590966240513,-0.00364334019819425539848945,-0.019901107580520164402893,0.00537177175470765922576932,0.00241780367735024235426033,-0.946364884229977221252739,0.323043898431881582045122,-0.0700639693593263224169476,-0.0119337686479048382670598,9.85139611305924312034676,-0.00694225013636234553060511,-0.0229534303687937840665612,-0.00298468641268478636699446,0.230784236101478856806324,-5.139159621359236318483,2.11040802672884542090515,1131.76401905418856586039,1155.54818071599265749683,1144.45281948213232681155,1141.09603578389396716375,307.342284434596081155178,779.554551666216411831556,-166.084127239088559235825,272.456609503112076708931,159.178880426437984851873
