t,ang acc x,ang acc y,ang acc z,ang vel x,ang vel y,ang vel z,quat x,quat y,quat z,quat w,acc x,acc y,acc z,vel x,vel y,vel z,pos x,pos y,pos z,mot 1,mot 2,mot 3,mot 4,dmot 1,dmot 2,dmot 3,dmot 4,vbat
0.00609756097560975630911262,1.3330474990931262535554,7.52807695672589183288892,-0.428396759631391288447588,0.00677508965582940443639348,0.255713612431085313136947,0.00961006100242582129988822,-0.00313371626043687425550166,-0.0132342953306808369662306,0.0463336877988936579608747,0.998833256366087107736007,0.315013319138143510489414,-0.139221618274352310073994,11.3454020475270898060671,-0.105349570976478901229711,0.0169263178585384137242453,0.856838960748226408092876,7.15282319411079559046129,3.74719175196862464005676,0.149530610219152176876278,1233.57711777390863971959,1167.58731546947637980338,1231.7532619436594814033,1157.74686191821251668443,-555.299570511137972061988,-668.039000579008643398993,-398.03772597962506551994,68.1867526295509378542192,159.128587757353898268775
0.0121951219512195126182252,1.41780954870475994766821,7.11619062612342112572605,0.376042498950690640135974,0.0122199424147410549978954,0.300531593461963342228671,0.00898263589155460194513036,-0.00330874534769780466458844,-0.0121321931579062413514292,0.0464966317986750948820784,0.998838631576036806158925,0.26511456813839112678366,-0.137124353614541560908435,11.347685760998123427612,-0.107087676074453783114926,0.0164792529116905839270402,0.865552146654288923066645,7.15201872679878292160538,3.74725674459856383791134,0.154753163818676375829142,1230.19114478298706671922,1163.51390692936047344119,1229.32620263890567002818,1158.16263480010002240306,-736.523964380752545366704,-501.591619456342300509277,-308.019103299191044698091,297.106715577070588096831,159.148015040655508300915
0.0182926829268292706620613,1.64146163135790379428158,6.76197543167671089037185,0.924968959216347919038981,0.0189552356186370521418105,0.33885740202591357883577,0.0162981135288082536194398,-0.00345788635977888839795336,-0.0109474124548291501524133,0.0466672000524522567754815,0.998843883968273726914333,0.213442435832537497075734,-0.134476527808996437762801,11.3468593334878047329539,-0.109096910229258381441753,0.0161277815922008446736235,0.874465108792799372672278,7.15123245750723501856783,3.74731993005056018830601,0.159996087046185009317156,1224.59511820828970485309,1161.4703445004965942644,1227.99693141562056553084,1161.37011454720118308614,-1161.40883869816707374412,44.0670491527375816076528,-405.354426946375042462023,564.122466322102354752133,159.163909972819197946592
0.0243902439024390252364505,1.15666761966383102588907,6.45215267881063603283565,1.00992889247230444027537,0.0372521318996313008375942,0.377815328239989645098262,0.0237191802848808856729601,-0.00358436061286335552744653,-0.00971937613987223190947784,0.0467975307760586448080353,0.998850227560412085026087,0.161391626884156952348448,-0.13155266251115887987666,11.3403169618925083739214,-0.111388485664881686787453,0.015869366834890374917677,0.883636127941702764765353,7.15046207546295509160927,3.74738859274132041221606,0.165286826808360515217444,1216.02762235983868777112,1164.05130996780849272909,1224.38285596882792560791,1165.04217707232078282686,-1419.57481706324460901669,807.03856140877337566053,-933.471931813877972672344,500.449861726456333599344,159.178911468152278985144
0.0304878048780487798108396,-0.14832456622119033484708,5.88685820800728887292053,0.811544620981315523167154,0.0429954759705784145262797,0.417203492374333406722542,0.0275456228882716598616032,-0.00370578916963071412077335,-0.00842637793289754098713384,0.0468657803812042236812907,0.998858270288100591471903,0.109406031369837092315223,-0.128923384384292127879945,11.3251216022035023911485,-0.114062636291430888335618,0.0156840386668646337986477,0.893010363439250665074098,7.14969398574221504105708,3.74745356597525614006372,0.170653065778622770043427,1207.28323019532331272785,1171.31227817621333997522,1216.61312736910986131988,1167.47316164142625893874,-1277.30812733073071285617,1297.63966111314630325069,-1522.82263773064732959028,308.179036649314980422787,159.191693645777547772013
0.0365853658536585413241227,-0.975607030384086360008666,4.53145602063267638470734,0.463694280793677693353061,0.0307242050513156644830914,0.453547004755314564494739,0.0304962380403314622934197,-0.00380883001613584529221335,-0.00698613819425771779419998,0.0468730778995782512708068,0.998868374982347040358377,0.056954978496073949134626,-0.126316345615560710058389,11.2988050881058903485155,-0.117278109046794157266369,0.015613184942950731823319,0.902412928334914599126648,7.14891129582347950588428,3.74750236332347252954378,0.176106230372789884786044,1200.45069397775660036132,1179.87618388382247758273,1205.8118481916249038477,1168.80045800706852787698,-1024.67585211462369443325,1192.73973119205356852035,-1715.06878885798232658999,203.129150786563457131706,159.202105261506147826367
0.0426829268292682958985118,-0.859790496332005771407125,2.46871079895641543089368,-0.256071587689187807335145,0.0233682745932413081513257,0.47680359705929958868964,0.0363666796322826210707824,-0.0038588070810424228949953,-0.00544122389386595371740807,0.0468799537293288492989518,0.998877402904462585730982,0.0063694914908548130871857,-0.122879164972789209353543,11.2603560670965094914209,-0.120918048104647860019334,0.0157155859781787088369498,0.911647423522752520241852,7.14811051620501736181268,3.74754777086255685958349,0.181635811832965787804284,1194.78718321831570392533,1185.85788465416521830775,1195.69765433425641276699,1169.95034640711605788965,-1034.87362455468041844142,680.583010003654749198176,-1389.06797917072617565282,251.959282358201619445026,159.210268714138550194548
0.048780487804878050472901,-0.344114267193875722483654,0.281724159780528116137077,-1.15866569191667778682131,0.021897056097965956339424,0.481338392186349717238869,0.0320345147786269268674886,-0.00387162886499251360228335,-0.00390039888031829939246675,0.0469254079617034344784621,0.998882619828123763383587,-0.038301420661457578897835,-0.118653077258924169457011,11.2092078212200920717123,-0.124741913888708477742284,0.0159085102969799344063695,0.920520276540894744066179,7.14729719478173031177448,3.74761004369484318488048,0.18724447539424410313913,1187.83028392221171998244,1188.17597668874509508896,1188.8719947871038584708,1171.8731321821685469331,-1327.24631793418552661024,262.287376168138564480614,-969.974225451898519168026,394.978829733318093531125,159.216034052611860261095
0.0548780487804878050472901,0.115556455345616787555585,-1.73986443944042834530705,-1.38461080589443485955314,0.023773930306155516278821,0.477371618263482233590622,0.0183465006094330786157176,-0.00386534147254542943816791,-0.00246906774238493057632704,0.0469834869490130188629529,0.998884930094875778117114,-0.0739630968920152453982553,-0.113370085914762108725284,11.1474629718291513569284,-0.128499039943174714339946,0.0160609142673025367953343,0.928923116417025074298408,7.14648191015822664695634,3.74770047051449939345957,0.192910316624232858195853,1178.60125251180124905659,1189.05651119280105376674,1183.86870036533082384267,1174.76716140386383813166,-1515.8685148388208290271,128.476607421495856442561,-874.623548874278412768035,441.042832908324385243759,159.219534842584465650361
0.0609756097560975596216792,0.583878701088580531752825,-3.565116448463252485368,-0.721682828076127047545185,0.0243022939613995146712622,0.464028166352447202225306,0.00897883671591519390287051,-0.00385181342586271655697994,-0.00120136271901943544361535,0.0470322808855871618560762,0.998885216141818577106903,-0.0982842900010896247664505,-0.106177216937194868195959,11.0770314708233819089855,-0.132038612886504702625956,0.0160696210905794042989037,0.9367475781376903842812,7.14566182587128650993691,3.74780739522195460722287,0.19861512642266054839979,1169.34408252173830078391,1189.74276458412919055263,1178.2058539471736366977,1177.25170331519689170818,-1426.03048970842155540595,4.52798180939998751171061,-1125.69957659464489552192,315.988549513164684867661,159.22067006429668367673
0.0670731707317073211349623,1.39018717626120791308608,-5.31627895926405003024229,0.252287683880886515197517,0.0265713168286104695070549,0.436122768811551153600448,0.0113118697860004509270215,-0.00381275476356933125735016,-1.35721636066297475639239e-05,0.0470896857714966088348518,0.998883258888409897302552,-0.113309674036729229884557,-0.095636985504218563480805,11.0015225793494764161551,-0.135446747287896185341083,0.015996042674335561595278,0.943978176110657374309199,7.1448323559071358346273,3.74789988156062836566207,0.204354618840842328086893,1161.21063678364976112789,1189.11173048315959022148,1170.14065674832295371743,1178.62068030036584787013,-1038.50652562911454879213,-287.336835966917760742945,-1331.74499632221818501421,125.08892795041117551591,159.219651329652009508209
0.0731707317073170826482453,2.12960237687365960823627,-6.46244661502625383775467,0.871452452601062299564205,0.0406371352320274506486619,0.398298126637042559927693,0.0173741679757902188485641,-0.00375034118496009446705464,0.00117272572393992613112856,0.0471732978485488174680285,0.998878584437403849172199,-0.12083728637232449276695,-0.0809413571520070512788081,10.9242400213856640789345,-0.138795665183997496416879,0.0159288769078676090140689,0.950574028945892268716022,7.14399439931263025016506,3.74796967736661956749344,0.210138265843791666176443,1156.67936879455396592675,1186.23865682843506874633,1161.96506130909779130889,1178.77717804629946840578,-467.823744596454275779251,-586.858759930216479006049,-1134.86892382589508088131,-51.872085896475724098309,159.216451109705730004862
0.0792682926829268302837406,2.3324418430377447108981,-6.66725726040919486337089,1.18519256231496972198158,0.0582077870537541369744261,0.356282853163229329407358,0.0232261579356630443182752,-0.00368148088690110810577982,0.00234525887301205524654302,0.0472952113224931747215152,0.998871017507560354786733,-0.121636939218918771477007,-0.0625828481482697818183425,10.8486179470367574140255,-0.141989572364573019003231,0.0159627393375729176305811,0.956567643946462098369921,7.14314927203666982791219,3.74801608833356558747596,0.215971038904158224580598,1155.50546916661983232189,1181.95491633766914674197,1156.30079182361691891856,1177.9880938869941928715,-72.6355560884403672616827,-765.267128947436731323251,-584.292960036504268828139,-215.526615808531516904623,159.211051995274772252742
0.0853658536585365917970236,2.35458300771749451385517,-5.88671971167917718048557,1.46768291853997823181999,0.0703805782640279653517013,0.314454653473092982096659,0.0293137708276871335189018,-0.00358030956388614594529396,0.00337837122496230119611527,0.0474584799319187830568545,0.998860931976614851990348,-0.114466903807988379382365,-0.041039531268073775605032,10.7776715963182336821546,-0.144714835227473914702756,0.0162527585658640491561577,0.962041566325051777930355,7.1422968221549663070391,3.74805064425067380184942,0.221842520996134245914178,1155.79356933006079088955,1176.90613086566145284451,1154.83953740621359429497,1176.14880468278079206357,103.692516897052456670281,-898.545287760676046673325,39.5327569965193177381479,-448.189087731748372789298,159.203744085775127814486
0.0914634146341463394325189,2.64350349891028857385322,-4.47054264346712670885609,1.65756309538393531433087,0.0796405947521290485946466,0.283935111503675396971147,0.0386382262945466486980806,-0.00340811534533751528397438,0.00422764335711739349527027,0.0476251979357090460265312,0.998850481697164616079476,-0.100261652406914675284,-0.0171754090660255279154889,10.7138970596212299568606,-0.1468141697930849809417,0.0169408131680436196964123,0.967079439920058403501457,7.14143468770943901091641,3.74808754608478800207649,0.227740951181317208273924,1156.77001205560827656882,1170.9970469747340757749,1156.78289861625739831652,1172.52237330489970190683,279.8690810177423031746,-1074.73473604259766034374,284.688964504707712421805,-880.782224565978822283796,159.195397841367054070361
0.0975609756097561009458019,2.88141252695549310303136,-2.78100249242391761583804,1.51595012372810811207557,0.0985708704450202755076305,0.263469091233192287404563,0.0495122649033601855417253,-0.00311305937145171579202851,0.00501158166905486205516818,0.0477687257292620445769948,0.998840816734521741437902,-0.0838356271863208435402015,0.00809085373276892394489579,10.6583568950817095810635,-0.148485933031059780251582,0.0181443516525675446748878,0.971776370345253104332528,7.14056944346729505213034,3.74813272241403616646949,0.23365869980085998691699,1159.20660690344789145456,1163.79960969441026463755,1158.31135404651490716788,1165.40755804173227261344,524.02136633904729023925,-1013.74031069177772224066,-69.7241936322711239881755,-1322.38897099172504567832,159.184792356050934358791
0.103658536585365862459085,2.25486015309222453950611,-1.38971655848912822861507,0.914695210023819482714202,0.120900066478892551091739,0.252153999016137497779511,0.0579531179070538540742952,-0.00270761501790993397431606,0.0058257033520114839819648,0.0479030239180267131127167,0.998830873030613242136155,-0.0695807602729293095400465,0.0321290749858259006010996,10.612110556692528007261,-0.14988840806392750293341,0.0198559746631283458306871,0.976206895495835724751998,7.13970575000090690309662,3.74818441503532184810865,0.239596486374043959877156,1163.16051652315763931256,1158.63436025898067782691,1155.93260357196140830638,1156.39567853670791919285,677.259581457855460939754,-387.872131040496356035874,-650.62784049274125663942,-1377.22634664612360211322,159.172754758969716704087
0.10975609756097561009458,0.788162370286254798656955,-0.404173573607286285014339,-0.160963107751753042862219,0.127814195957453025087602,0.24589100330357041568341,0.0643058773350201895446787,-0.00229759118439793906182866,0.00669465158589484243822909,0.0480426260184171477485293,0.998819657747986755502723,-0.0599774208140868500538367,0.0510135358088385504338191,10.5742279382121058262101,-0.151122880101095147242773,0.0218105303764005234445911,0.980487808800656335250778,7.13883744662627162114177,3.74823628391476226795476,0.24555512487963382373124,1167.46587009195832251862,1159.06946175489201777964,1150.37686818684733225382,1148.61211478995028301142,617.160808611494871911418,530.584519427066538810323,-901.45610261776141669543,-1086.25411084316351661982,159.159304501987719504541
0.115853658536585371607863,-1.05040254998462923019531,0.161861691588168488120658,-1.13616645967509888315305,0.129556283146457201782553,0.246336504592697957960468,0.0568104601845245901770021,-0.00189333210122717221848831,0.00753079682519264097251277,0.0481571772877746259733378,0.998809123843831248024117,-0.0549489822316421364090111,0.0627757618522389732040878,10.544234042589939903678,-0.152059416218221804539823,0.0238965621520021223589403,0.984715835556837060238422,7.13797688803164298576576,3.74829879814484190347912,0.251546142265411887262161,1170.68686784768806319335,1165.10490317882295130403,1144.93923646686675965611,1143.14867718496202542156,357.749692375388008258597,1209.22855192112842814822,-781.854776789795550939743,-743.963271398765982667101,159.144647729424576709789
0.121951219512195119243358,-2.95596223713236083696643,0.242517498003494064162666,-1.32035382138682177988187,0.117710990782167831958382,0.249095896136696970391,0.0450815267496509908262681,-0.00153439823128883765998576,0.00828032633259167052952598,0.0482679623901047238909712,0.99879860393680885977119,-0.0539575136218203368909663,0.0664065898989346786729371,10.520548923359855919557,-0.152690473892470951478018,0.0259103291308611267951267,0.988953096679046295136573,7.13712797290416744999675,3.748385851102527865919,0.257561723805407760679032,1171.82867121848744318413,1173.81615141246675193543,1140.84205383575226733228,1139.53939196801411526394,-8.73414653500231175087265,1326.6413423441561008076,-620.68043010645908452716,-410.556400236204467546486,159.128907593620454008487
0.128048780487804880756642,-4.14762057071091483351211,0.0927721646673119043624567,-0.955354791393919433595272,0.090560109275988856514239,0.248643737546284715467237,0.038199867703734832757867,-0.00131010019987541355239447,0.00898685175335798072659976,0.0484407069492615166561578,0.998784552587553720037761,-0.0579970523696292580839717,0.0606128529120365661109204,10.5020023971934950424156,-0.153208263197205180050631,0.0275579086233407877237767,0.993199272060506732628937,7.13628952963828844247018,3.74849736033906033583207,0.263599605179633045271004,1170.58035386555388868146,1181.2834561342394863459,1137.36996292898311367026,1138.14189181622782598424,-364.937765583930854518258,905.596905524832095579768,-457.494263894519519908499,58.9017896155264182311839,159.112388136330991983414
0.134146341463414642269925,-4.29889698783514706548203,-0.0513560158048345025139092,-0.620193508455202713314236,0.066126832309840247181576,0.246228060241505980476617,0.0359980455218329511990483,-0.00122696697489166448198639,0.00966968349555963856134522,0.0485888324231574311728998,0.998771092746749911128745,-0.0664655637838608703837906,0.0469935941169429965968973,10.4875651325179628514661,-0.153761153808598338699198,0.0286801637217485895503533,0.997418814091990624248751,7.13547054871045638435589,3.74862479837593687292951,0.269675713042174358680114,1167.37821066258584323805,1184.86001611398910426942,1135.26285549557519516384,1140.25770647552053560503,-698.898704787766632762214,325.437719622240990702267,-130.862568848801288368122,710.711246094411080775899,159.096637979948667407371
0.140243902439024403783208,-3.64941957698190355685597,-0.483470294170038616954344,-0.528395541993516015821797,0.0409895970385384528222872,0.247241571421097511285225,0.0333394390596457312891943,-0.00121412890342785929724545,0.0103649431460049613190622,0.0486281537722407716795026,0.998762159285129236252487,-0.0782199899303035739439593,0.0295934348537028185655018,10.4766149304960407562248,-0.154495887894963657149816,0.0293283795173267317069055,1.00153697484282333540762,7.13465891362791460039716,3.74875549288064568997925,0.275799683510701054700576,1162.05719892911770330102,1185.2522088125595018937,1135.77407794302212096227,1146.80910213445235967811,-949.284039622947716452472,20.083733729123633082736,305.318726345749098527449,1297.90797438931463148037,159.079245879043980949064
0.146341463414634165296491,-2.37313143288148609144628,-1.46478911465743211195445,-0.627862577512570907423139,0.0187478876211243129790152,0.243574069028071077402942,0.0296449952722073369060229,-0.00119986313557216006664419,0.0110625192020320506358644,0.0485666359241872513941018,0.998757639319559742396848,-0.0907987836602279219100353,0.0127282575376767709274262,10.4693120637457521837632,-0.155424335944452290947382,0.0296145319248348887208877,1.0054890347320131205322,7.1338475649309067705417,3.74888632157411549883363,0.281972800586846039649913,1155.80157603303769064951,1185.10493969605158781633,1138.98625459735262666072,1156.08585250465853278001,-904.903497381966076318349,211.087330549837872695207,605.549014097167741965677,1499.05273475053331821982,159.061688273033098539599
0.152439024390243899054198,-1.05511096419363270548786,-2.77255852037129590925701,-0.787572426473292508397606,0.012443855867406417720078,0.229674021938215788818383,0.0241606795726164481907805,-0.00119010993373499097784662,0.0117092185322890882104296,0.0484663587574576809613447,0.998755164655528049344468,-0.100836616335258033583244,-0.00115677828164508986197312,10.4658697879945350450726,-0.156416055820881694238267,0.0295869115332908008686452,1.00929533593445741601613,7.13304259810692897758599,3.74901857123472614929938,0.288163353092160012813849,1151.02179042445959566976,1187.82644455097215541173,1143.15882201737781542761,1165.09023304604420445685,-511.979141841432692672242,645.929087218077256693505,670.480841356639302830445,1240.54306643180689206929,159.044096517605055396416
0.158536585365853660567481,-0.223018319040175272416349,-4.02136343906101245693208,-1.01021936639674292379709,0.0104511280173688880790195,0.207890148796665841235409,0.0192400825759161918371287,-0.00120490074701441870694274,0.0122998272586205305290097,0.048424255773599683694286,0.998750100290286102477921,-0.106117003953830169038497,-0.00998467184767774795783879,10.4671432579942056406708,-0.157409251265361399552134,0.0292926228313265812897015,1.01301652176783574255126,7.1322344238304618002644,3.74914711434154623859172,0.294348152120335326831224,1149.55792796180071491108,1192.98212368651593351387,1147.16285022365309487213,1171.21442648553420440294,-57.0597473717134064941092,764.056060565623965885607,675.461585654409077505989,656.044584812236166726507,159.026580469809431406247
0.164634146341463422080764,0.269088648048946110780122,-4.92386304309274969170929,-1.34999572171806536680094,0.00844969067549111718662402,0.182504369807440253170583,0.0146184073715215582384142,-0.00119939042941727262193974,0.0128066397901171330486747,0.0484510109887174925114017,0.998742439835596518271643,-0.105014325600587127285124,-0.0119850836258170844600413,10.473255282106409325138,-0.158241420753437528334828,0.0289570066217154781229581,1.01676057428132815552146,7.13141537694674276792739,3.74926027166436881543632,0.300541951306277810296308,1150.32593984675577303278,1197.14420138713830965571,1151.39615842779744525615,1173.09077676326660366612,77.0016592906785461991603,455.420242793293766681018,822.934269214565802030847,24.1148082529066201118439,159.010559363307805824661
0.170731707317073183594047,0.599695291568444033281082,-5.45783036396655329980376,-1.6282674950591276008538,0.0122730472848748758951665,0.149968575260070402510593,0.00459221004976745252740278,-0.00116883301583731603195959,0.0131983090655154525205894,0.0484763190884829608950923,0.998736083220312043096101,-0.0963112962782013970475248,-0.00675417524517674117134902,10.4845822481127033398707,-0.158733353284548572847967,0.0287156641368950214798783,1.02061574205996064002022,7.130589876165105422956,3.7493506364569282318655,0.306758327173760059203289,1150.49697258729679560929,1198.5360290864341550332,1157.19863399456244223984,1171.50850951300867563987,-91.6677449008865607993357,-35.3018029767267478291615,924.1379575961560703945,-379.678819446915099433681,158.993428853610680562269
0.17682926829268294510733,0.698148328292285902385572,-5.32484911723547948980695,-1.41765706753378650795128,0.0174378800316860177455069,0.114335913813742501288218,-0.00747705472064683768218529,-0.00118650017882324185919396,0.0135180240452926515859478,0.0484950787043496381323315,0.998730757319379547354288,-0.0816987541613715118060668,0.00291666256439644666631494,10.5008487176251144035177,-0.158872755862714987173945,0.0285640911019620045985246,1.02460876696516156592054,7.12976128357888683240162,3.74942071743316196474893,0.313004977298234898785978,1149.20804051869617978809,1196.71369159473920262826,1162.66613352043350460008,1168.46054725781641536742,-112.378896854750266243173,-479.848971695396130598965,679.362288286853527097264,-441.667343479538146766572,158.976559078947815351057
0.182926829268292678865038,0.75709066583010919959662,-4.47273379736932952255302,-0.603607787107095283829494,0.0198364522834638019876952,0.0834310678287323581603374,-0.0152858726451165684995237,-0.00126830393780137163674271,0.0138815922212368620530798,0.0485947622792398600810593,0.998720800717746381991446,-0.0649951690863983799761883,0.0147217234722841344707334,10.5216815646956991514571,-0.158811170303772092315953,0.0286011771045314791561687,1.02870882423478571254805,7.12892484680825333498433,3.74948334178558351226229,0.319297482211504557447768,1149.12649823540959914681,1192.68421235844152761274,1165.48353994928015708865,1166.12232239740455952415,304.390886041045575893804,-709.620639548012263730925,281.572950299522688055731,-268.166320594974820323841,158.959976237962820277971
0.189024390243902440378321,0.863904015216748866201613,-3.16236567406422874881855,0.435031351877136818195879,0.023942299761669467300651,0.0603130965862726658999193,-0.0155421756427510573267403,-0.00136376465620992532237765,0.014234134556516954764338,0.0487726887187122370992398,0.998707169022457152962602,-0.0468999494962249671714538,0.0270110452165978620620024,10.5465954492201046122091,-0.158397610442800790275797,0.0289465257545149963480657,1.03293287225009433605294,7.12810337141859839960034,3.74956038281164705239235,0.325626598289842528188842,1152.92012449480648683675,1188.05978135634882164595,1166.09994998750084960193,1165.19022627495087363059,849.414196530886897562596,-674.028318744849343602255,101.780158845204283579733,-72.2732262957610345210924,158.943650044809771770815
0.195121951219512201891604,0.756128161099328011118814,-1.66938473311294499623614,1.19777195618143394995059,0.0312003237928896656749878,0.04539742808183560435209,-0.00911769874612824819670731,-0.00139381106453436006895052,0.0145068939301466210550773,0.0489579088245241586530021,0.998694314361596169327129,-0.0279436789763191570368228,0.0387349744085398739468218,10.5746824932437757382786,-0.15752515285742249573353,0.0296726732912324896174194,1.03732206763601819687892,7.12730373933810934516941,3.74965766457666793698422,0.331972622871164635416363,1159.48520794920091248059,1184.46435481277262624644,1166.72476139861191768432,1165.24094158891966799274,1139.51609211078493899549,-553.530610326341047766618,248.216172647143366702949,1.94453476839544059373566,158.928798637739191690343
0.201219512195121963404887,0.325341679475474099270116,0.0889967479990618759444487,1.57315196365200082873059,0.0353862096374195009285124,0.0397949685470932179587322,0.000210402527040747953836902,-0.00133888704169417760078686,0.0146997855825561941911506,0.0490760598143522089320534,0.998685859940646736276904,-0.010086841923002014265176,0.047870106508790408184062,10.6050216037173061778276,-0.156237970892664168598429,0.030714387124959236646804,1.04194383079567165495405,7.12651816992512454618236,3.74977668222029647537852,0.338324971882777436604783,1166.81666220347460694029,1181.30940805968612039578,1169.12697648319772270042,1165.21394011358984243998,1096.94204168888381900615,-557.78475949976927950047,533.389624601434206851991,-80.0680820540355142611588,158.912931316456308650231
0.20731707317073172491817,-0.126759312519658468021433,1.60517104200926796764293,1.51944241053568673827101,0.0342017133085103022804851,0.0463196808143428243043083,0.0102743933953223908622787,-0.00122412745101702817931977,0.0148709189532288815760452,0.0491020079578306511969288,0.998682193550573860107988,0.00425670084450382318896899,0.0527481944635904004270444,10.6362029302065845826064,-0.154738818249843784746744,0.0319051939111504034851663,1.04682076007035340659002,7.12574262817366754774184,3.74991302230614387269725,0.344693534219268848950435,1172.86254992101657990133,1177.66210164814128802391,1173.22951291814160867943,1164.26450156387045353767,962.553510142110553715611,-635.519786062193816178478,717.212493329948415521358,-190.447656105338211318667,158.897279481031148407055
0.213414634146341458675877,-0.432549196145006642488795,2.50552700897271307667324,1.09052613761863659291862,0.0317541029550073919396347,0.0601496083848305704289139,0.0198479211455214292481042,-0.00105307638185457423142533,0.0150573867385573635646612,0.0490800810644395554827035,0.998680600979901633706959,0.0133217506408144573115671,0.0523167585020377218230081,10.6667963586246283824721,-0.153157286820467253285472,0.0331681928431443451277261,1.0519721277727567265714,7.12497314813711923875417,3.75005345834052006281922,0.35110215953984036385549,1178.55511964423203608021,1173.559166766244743485,1177.8734703042946421192,1162.89140772206133078726,930.659670731208166216675,-560.936644873675845701655,639.597552366602485562908,-69.181134869911701912315,158.881864425493660064603
0.21951219512195122018916,-0.717435756925064893607669,2.67673360709396845891206,0.586997845963894815390915,0.0308375377447310736189756,0.0786436903291843070196165,0.0230386059241588191104366,-0.000826525846047138643482577,0.0152783706578840348944137,0.0490597569047141468523421,0.998678398343745499232682,0.0169645057942425861452485,0.047081016889911606049246,10.6954474847302698492513,-0.151603578450664355781186,0.0344613355349892083734353,1.05735015136135568347697,7.12421707593486885912171,3.75019490664366816901065,0.357554419815063972976077,1184.21205810066544472647,1170.82141085699890936667,1181.02948306895382302173,1163.4208291874081169226,734.252557712152565727592,-264.132449034867704540375,254.124089262029656310915,349.96788425579114800712,158.866694947987241448573
0.225609756097560981702443,-0.880422518503259476929657,2.24626634947581438339625,0.227514009754956197939535,0.0246334110060466293656845,0.0938645599308664813076319,0.0250786493066123272743795,-0.000630910374897597275509198,0.0155799806193320199143582,0.0490724324719834029129295,0.998673257783714962698696,0.0147407341328020316528757,0.0360377620695239292425427,10.7208976747011455188385,-0.150261652786033622630768,0.0355719253974736762669018,1.06290143699736150395552,7.12348552226090347971876,3.75033382204099519086071,0.364054823794151549698483,1187.50941912852658788324,1170.33803933899025651044,1180.97254456358768948121,1167.15930874957098239975,207.46685899725235913138,54.7706778002793228665723,-259.343444582568054102012,683.777259945235869054159,158.851828139635188108514
0.231707317073170743215726,-0.610726290609449717905477,1.63323555599955794193079,-0.0901070962914160417112086,0.0153472007057261321250063,0.104237560957072802891865,0.0271779738049512283037945,-0.000548865718175748089520394,0.0159286521136726595682109,0.0490780445739150208983581,0.998667547491053131381022,0.00870078835407667866563841,0.0190419050639894851806311,10.7422641071385260858051,-0.149152243357260239076112,0.0362712381760976199096547,1.06859715622807915913484,7.12277847355947102414575,3.75047407426849943590241,0.370583832534481294462836,1186.74214174697340240527,1171.48934595212426756916,1177.86675813502006349154,1171.7595762599110003066,-345.765661990770865941158,329.2870673168333155445,-596.672304891705039153749,583.915746718152945504698,158.837299666602660863646
0.23780487804878050472901,-0.242408583070069544307401,1.04423637922418088841425,-0.289292014121881546628856,0.0151620348270559250625222,0.112045058122779053744189,0.0248822316155800186965319,-0.000584346668767034499794577,0.0162962345709714469255136,0.0490552682703836243072182,0.998662696572560792951379,0.00125540758463935780975262,-0.00190357378588918574324751,10.7590176512027433375351,-0.148269333861741764435394,0.0364915213071837288283383,1.07442028258620370095855,7.12209062488122590650619,3.75062832393933875962944,0.377130775172509813408794,1183.29276471400498849107,1174.35373528187847114168,1173.69605304051810890087,1174.2802324900362691551,-582.802985486768079681497,741.644093620630087571044,-615.28029818733011779841,289.24992519791152290054,158.824250413144966387335
0.243902439024390238486717,-0.299282656157657200868272,0.351432403878729093804623,-0.280635332211424615156403,0.0175083168533287265866694,0.11711558355080263493786,0.022571035015454661565304,-0.000666190176764103669446171,0.0166946772956202069138065,0.0490202994843828149251763,0.998657756726311518491457,-0.00587529199798494244921798,-0.0228396111381746480528676,10.7707697249378142601017,-0.147639448992622324130508,0.0363236647781428889647515,1.08033471307129036453887,7.12140852997143358749099,3.75080555235894941290553,0.383714136178041398395067,1179.63478826542745991901,1180.53378611822950006172,1170.36333986444287802442,1175.28701437208064817241,-426.438758254228218902426,1238.05577001713481877232,-332.617059006457566283643,248.810737118067095252627,158.810554142013160117131
0.25,-0.688352318844424160282358,-0.3153735768074792944482,-0.111359265383584385422644,0.0142204498669342652844572,0.116982823654765116794252,0.0211193499187047641074688,-0.000714743665378131604395961,0.0170763676420459045712796,0.0489956094562143396053955,0.998652512530397995504927,-0.0101190247515167072722697,-0.0398176745467712644988012,10.7779365607298718288121,-0.147090566725652072133101,0.0359280372239241668763654,1.08629004496458869688524,7.12072497683238037069486,3.75099814981386492362958,0.390347198044743493028363,1178.09229205236806592438,1189.45197637964838577318,1169.63974744287838802848,1177.3145097719639124989,-13.6744584441866994239945,1383.27498063062671462831,98.9520738837649389552098,629.843834760897038904659,158.79733845339930553564
0.256097560975609761513283,-0.913411582501412189216694,-0.808002286662194979527385,0.10677122814688166929642,0.00689659244744757378431377,0.113177820382780874863826,0.0208774516126297923768185,-0.00071408044185702857983844,0.0174126925432012240324564,0.0490355942698202443286171,0.998644793187233315023832,-0.00970322194002139898350023,-0.0501496900014689883651187,10.7807337939787171166017,-0.146462656241661937084331,0.0353748016013232038923242,1.09222572170942155977968,7.12004153009078866176651,3.7511811731685948956283,0.397034113559527279679884,1179.46802657708371953049,1197.40299319909081532387,1171.57007247278147588077,1182.96803674721354582289,381.466722381019849308359,879.015570918157322921616,428.433120498283699362219,1146.84691552266167491325,158.78467840482556994175
0.262195121951219523026566,-0.793811000456922544188387,-1.04806507137480631186577,0.198000940832367328114927,0.00101984810865839332916227,0.106169866113166908028198,0.0232480767721643874490489,-0.000662534969409723823070835,0.01769857839809294008937,0.0491293725579306644890565,0.998635249987769313406716,-0.00472801486551088084864247,-0.0530045122657685219280665,10.7802489226453790394089,-0.145632059062925728332161,0.0348070851650075924199612,1.0981008195490118417581,7.11935703627250759950584,3.75133808779304622760264,0.403764097232954144445216,1182.74432525213660483132,1200.17167846401616770891,1174.86454159529648677562,1191.30044776614272450388,534.782351366820876137353,5.18321921897813364665808,500.320178037691221106797,1243.04414304126180468302,158.772585564544840508461
0.268292682926829284539849,-0.451742890788110806887801,-1.07699353820246246371539,0.108447903276042270648283,-0.0019510842941923617257366,0.0991065511402069443391838,0.0257911356250716435056791,-0.000605063595954295112624988,0.0179084359014822641631426,0.0492476480819826409329742,0.998625758992709555705858,0.00462749902564927456660726,-0.0489392508757898678228848,10.7772077290171193197921,-0.144438576854071021315917,0.0342880142013804664613552,1.10392288995134579820956,7.11867488012527704910326,3.75146003873977829101705,0.410514024237437435971287,1185.98976256936202844372,1197.46620318956615847128,1177.67153805860698412289,1198.12711166235089876864,470.663585173729700272816,-669.995908213632787919778,351.81823390560128927973,817.841184453796131492709,158.761990433954139234629
0.274390243902439046053132,0.108023031486607953843837,-1.19226220703537277856299,0.106974929300140658705587,-0.00287563774671641386032617,0.0939641455337928144242454,0.0242656408276105961530078,-0.000552165614905719952937302,0.0180799223000254090376604,0.0493602303232277689337693,0.998617141345443548594574,0.0159068725901201704631127,-0.0394310732828139359762432,10.772511590989926943962,-0.142908009704458882627165,0.0339552851963246041244737,1.10972110140002766520695,7.11800399792636628859555,3.75155979335836731181075,0.417278255493480743076873,1188.48412507132843529689,1192.00099665653283409483,1179.15500786243796937924,1201.27412074728658808453,248.981093181989081131178,-852.762045388035062387644,146.767917622631415497381,181.62538062389131710006,158.751177329040785934922
0.280487804878048807566415,0.897449135783008666855665,-1.58455893793815483228116,0.441930059046378886922213,-0.00152460792114291116862435,0.0885475299486777334134757,0.0225052964849562393834237,-0.000473004814677571890080277,0.0182375516554895145127091,0.0494569640841294871913547,0.998609484842869266074672,0.0266775069569346948150645,-0.0257544342949171285728216,10.7668190337483533625118,-0.141075347799674538640247,0.0339831931539523179885975,1.115518589555178241568,7.11735103734931673358233,3.75165380905722312121497,0.424069666138619350004291,1189.02611736426433708402,1187.06666605068767239572,1179.46139071254151531321,1200.34205532849591691047,-146.937461108465726056238,-686.540386916086731616815,83.8068686789119254854086,-270.751198794829406324425,158.741078166980003061326
0.286585365853658569079698,1.81965490100954530028332,-1.90380898498022732567847,0.739796190773137851692809,0.00780410804227905929852938,0.0761234483955864488224918,0.028307329951448613469811,-0.000374640469346779084007515,0.0183908836781178051944519,0.049557691254504099287459,0.998601643405773731210218,0.0347536965653122212338566,-0.0105779288260776406505048,10.760675644529641203917,-0.138997361590176227164051,0.0343767596679700193629259,1.12130845852328264733444,7.11672420627834334538875,3.75176331691724529449061,0.430906369816139722672688,1186.69220481390811983147,1183.62855291365372067958,1180.17704284632714006875,1197.97227685954476328334,-550.675352948465842928272,-552.472799926066272746539,161.420007241674142051124,-327.257665675983105302294,158.731802012586513228598
0.292682926829268330592981,2.65216292491907834616427,-1.60084442861715858796856,0.480051605806133319109819,0.0208681907604829457170137,0.0611409834452657091619088,0.0359111458673553526899092,-0.000289173707165142949114534,0.0185527295726837446188107,0.0496744937056870436431488,0.99859280980266729166317,0.0383859722995142718660055,0.00297757094335000804807834,10.7545628472982475187791,-0.136782317668888486750234,0.0349894967702556111688317,1.12705110642673367316036,7.11611722832111404102307,3.75189671227228682681698,0.437792173220979796699481,1182.31056427952694320993,1180.32919288085759035312,1181.42992738622046999808,1196.35110818610587557487,-701.626524840513752678817,-650.008401408166378132591,111.572642177904938876054,-225.21548462042747473788,158.723364994145043738172
0.298780487804878036595113,3.19894409415280200903453,-0.674920731196311685096134,-0.277509041208212403617495,0.0393605932962776614014722,0.052782530114987805114346,0.0382987671089295086956916,-0.000189347004630388766107524,0.0187428690554719661054417,0.0498009756508000361874267,0.998582954484308338294341,0.0360767171256031540793607,0.0134507611968765553034366,10.7489217055861896454871,-0.134554145867059216090666,0.0357731840142611473565282,1.13269089949047763177248,7.1155217004933950519785,3.75205243738894811400542,0.444723931990635090727437,1178.1357837792677401012,1175.70162118916391591483,1181.53768482410646356584,1195.22574655929565778933,-526.547080508355179517821,-819.735942177007700593094,-121.895033414941721616742,-258.81371730861843616367,158.715872037440874464664
0.304878048780487798108396,3.16296941782974005974438,0.235785690491830263182393,-0.805419750729579275727588,0.0614049954392182142925982,0.0547142224389945974749594,0.0310895356866093194869727,-5.23234094773169765573047e-05,0.0189896702039349801749424,0.049936764231438598993229,0.998571517763727434235932,0.0275534467251776285512399,0.0204429587941761248259809,10.7440106254093166171515,-0.132476488165124889340163,0.036658100572711273257287,1.13820219290311785975689,7.11494526779938940563852,3.75222543504450589679777,0.451695382022997860005376,1175.88925841966897678503,1170.33241309821119102708,1179.94340258847728364344,1193.19484334087883325992,-190.75063225060677041256,-722.897167821188077141414,-214.800956303709227768195,-455.412676443291331906948,158.709302288901056954273
0.310975609756097559621679,2.53306560391324753211961,0.708113687121900925447449,-0.631065937232378582066872,0.0791455686153966636586787,0.0597887420117255916074406,0.0233842205195113339577517,8.52946841887210324608531e-05,0.0193119554732324519297215,0.0500951057047649001008338,0.998557379087597229982975,0.0129776361765811878989929,0.0225687688461545105100825,10.7398870008388787056219,-0.130715709295927684507888,0.0374742677470167040443272,1.14359495750899986532545,7.11440782731938359262358,3.75240278851343100896543,0.458697275342904275952094,1175.80955655669936277263,1166.88580206939332128968,1178.91816096674415348389,1189.67193343193844157213,145.627480394940761243561,-318.531131363550400692475,77.7781885366515979285396,-681.917469521503676332941,158.704114451369406424419
0.317073170731707321134962,1.49523623702351793340881,1.07136957959708145615707,-0.0328402232395850063317866,0.0924868154703217953960248,0.0630904299089391634725033,0.0215831370834118456414341,0.000228739087332046020463114,0.0196529393906099900113382,0.0502589814399113793408347,0.99854242604723097986863,-0.00454639064265257436536771,0.0205285221977732565412644,10.7360715606177539171995,-0.12923263550794994447557,0.0381816616851608156557596,1.14895346949166587968705,7.11390120863132047190902,3.75257722870442300688865,0.465713760096125084508856,1177.66520330253410975274,1166.44788710597276804037,1180.89191708282669424079,1184.8787766393970741774,434.86380635283109086231,106.346511205312609149587,513.017629943489282595692,-708.505930475532522905269,158.699476079860176014336
0.323170731707317082648245,0.634296607802998457792398,1.52372787440138779402332,0.309005863447976480973267,0.0966744201175436385087281,0.0701250320732504511811456,0.0257976577741812103383712,0.000501923822019349546649791,0.0199120126754608051111717,0.0503906688636868299591143,0.998530473120081363269662,-0.0206827207555068323663328,0.0175724223369767701408151,10.7315797615552472876743,-0.127833203830737568429399,0.0390258790887063056196382,1.15438430018561266621191,7.113408479320105115562,3.75275349040221684049357,0.47274292356900898814942,1181.112773707343649221,1168.18271074262884212658,1185.17447352703061369539,1181.03161720662706102303,653.328912038817065877083,362.094376248762841896678,604.227249319941506655596,-565.04366943545301182894,158.695868589055891106909
0.329268292682926844161528,0.358929543350319013583771,1.94776320115702006319225,0.0892123803882663435338429,0.0953278022278185588334054,0.0813217928051662569677305,0.0295517802832839723836678,0.000937525341813916831407161,0.0200638084586540477172178,0.0504922733055385777878321,0.998521938725347224519169,-0.0327046315178983124094536,0.0154901777935490536641794,10.7249976175271992673288,-0.126412786597731946480749,0.0400914284879960447494085,1.15996095637739493611207,7.11291631594979989472449,3.75293182711360140402235,0.479794019680810812644722,1185.63262905910505651264,1170.86367218217719710083,1188.26054207453330491262,1177.98800018286715385329,764.347456059633941549691,577.765716202259568490263,203.207252539844660077506,-592.478969309719900593336,158.693442249697255874707
0.335365853658536605674811,0.285468510615054515966449,2.17224584989925117994858,-0.331689744224033300490362,0.0968854150819091902713254,0.0935588442943267317719602,0.0275655694270758901132101,0.00143270671652379467768401,0.0202173286877939568928486,0.0505299837647416871799777,0.998516391601131925170876,-0.0413541759529431271480426,0.0132843011429043394988625,10.7147218907576142754579,-0.125138432715877295775542,0.0411756022673057525684825,1.16567797128901307068816,7.1124162096057155224571,3.75310146210565864777209,0.486874816609892846486218,1190.43408414709529097308,1175.22863411094908769883,1187.65261075312628236134,1173.8062639223621772544,701.812959330119042533624,890.894055260345453461923,-351.4302499895022151577,-707.573693919829793230747,158.692213508847601133311
0.341463414634146367188094,-0.407241470771239122417029,2.01173447991536047396721,-0.468059269802368504986845,0.102480225797060578440956,0.106244694496863925636809,0.0221663070623337628284322,0.00183157642795569401000799,0.020494927083071066975517,0.0504980190467673312193497,0.99851173552546956813103,-0.0483020328999291467808597,0.00870203186567651554295111,10.6992056315738004457216,-0.124190089162696901126104,0.0419657242105439531876243,1.17146209687622926409745,7.1119029352565110713158,3.7532558805093381160134,0.493995143093700184167005,1194.19132368508212493907,1181.72823383169361477485,1183.97480731856376223732,1169.35905269603995293437,417.162029432645852011774,1212.69619096367455313157,-717.473720999558963740128,-522.066905457939355983399,158.692246036726544389239
0.347560975609756128701378,-2.14081926691408730434318,1.20436805760408716103882,-0.366941027502363126266971,0.101957058826832758224867,0.119251021508340340759879,0.019331135592620951602072,0.00202062611272689788763368,0.0209405997412513700250969,0.0504598533127906812012498,0.998503995834504332052006,-0.0545948870172082642571176,0.000165546039847738746253469,10.6778880791823649332173,-0.123582055751288402700716,0.0422423293244759481823714,1.17718187042002830899889,7.11139586528864153791574,3.75339913753623299896844,0.501177644812692002496135,1195.52142596944463548425,1190.01761204953049855249,1178.90293122874140863132,1167.4395943436068137089,-209.171307804845838518304,1163.90753657837262835528,-730.699236121459989590221,119.567751566413690511581,158.693579244300991604177
0.353658536585365890214661,-3.7210896454576647407464,-0.0884471751188757593364898,-0.395249059362514143511902,0.0764575404767349475765315,0.12305757498613914546759,0.0194527708681688712988311,0.00196464883156038331440962,0.0215164500051586229933953,0.0504599085425852453279383,0.998491759477574292169777,-0.0596912298972523333584483,-0.0123466512586558260777814,10.6504697358593674039184,-0.123176637777757669311995,0.0419113091785366514985256,1.18266775650714883738601,7.11092115095144094993884,3.75355360120713754668031,0.508436400141294098098399,1191.64045407770595375041,1195.92222818021036800928,1175.06384102439960770425,1170.81719600782548695861,-1113.42532795408033052809,532.966241356258819905634,-418.823905893250582721521,880.698433086088698473759,158.696216089345540467548
0.359756097560975596216792,-3.82305583088789280310493,-1.3992476675811496011903,-0.717006231765782930942521,0.0462275088925892738145329,0.117084394450630013828629,0.0182578512289346857333516,0.00178070188686001401427716,0.0221045766549678411594382,0.0504842819462163680532818,0.998478080703822490349353,-0.062222842648758679151566,-0.0258806023702482755621812,10.6183154811382003401832,-0.12269176706465093062981,0.0411919567561782606901488,1.18782173359288290015456,7.11047669484281552598759,3.75373710365436163982622,0.515734433650465340370772,1181.94306831146809599886,1196.5172003587531435187,1173.79532262028715194901,1178.17981913733956389478,-1789.24877437398140500591,-245.252176276404952659504,-46.8575536074756087145943,1163.25721294516893067339,158.700246773216008477903
0.365853658536585357730075,-2.94113337618544301577117,-2.39336648975152499474461,-0.933324925182712372695448,0.03083593103382495023701,0.103365004015569403317265,0.0113225707296727880202258,0.00170856207928489923358883,0.0225475311659522267837552,0.0505127401186972607716186,0.998467085453661695737537,-0.0597945543940066534527311,-0.0348051851814613968927326,10.5828279349507141660069,-0.12171451692030796354338,0.0405923917027987204986239,1.19259721957208197906652,7.11004063563259691704843,3.75392947483029715272096,0.523039011145859045193163,1169.82034707314528532152,1192.93134798171763577557,1174.49240744382063894591,1185.00325958032749440463,-1817.31725632235179546115,-708.226384785016080058995,190.206534445800400590088,813.898628446077736953157,158.705601656527960585663
0.371951219512195119243358,-1.36615438183136528316197,-3.04324531639367323876399,-0.558247060925496918493138,0.0156316468149430808087796,0.0874886841341316473519285,0.00351820115824808161975046,0.00183668310824310412887606,0.0228503171423439857545823,0.0505126954926175264493082,0.998460125616160376615937,-0.0539560016591146482389796,-0.036941422557641503954251,10.5459538279121556314522,-0.120229586228472198894401,0.0403455535459499997630317,1.19702544167335123148632,7.10959750241652965740968,3.7541030103344992241432,0.530350972709807022553719,1159.78066274656134737597,1187.88029322722854885797,1176.11491450377252476756,1188.10541216716978851764,-1195.86921762267161284399,-752.367247863566944943159,219.758249551838417801264,236.589607351365231124873,158.712372528225074574948
0.378048780487804880756642,1.02283934559074762837838,-3.46437378985718513746406,0.291266583428661463006648,0.00936201022236931267028748,0.0683955371312547633078083,0.00130919761525209689054239,0.0020925068990538964880388,0.0231142279931333613496314,0.0504747160967184346769265,0.998455532403980883238148,-0.0483436843008999070359089,-0.0335802912583187535000562,10.5092964346158357358263,-0.118472511033312910555537,0.04035476974243304426615,1.20112263458879864330697,7.10915647630448166438555,3.75425386121989435039836,0.537689660809266500862691,1155.23657612652732495917,1183.75613764191803056747,1177.17238609689184158924,1187.88849869436853623483,-244.520140435206258189282,-531.486911819911256316118,9.2289706492251664116111,-187.783041800823241374019,158.720487574318582346677
0.384146341463414642269925,3.55253423759238406987038,-3.45567206081366151693146,1.04328335228713475757445,0.0188136170663505061795284,0.0463367849019480915195857,0.00628703534190574401391283,0.00239216385139917869090409,0.0232831026421739875620354,0.0504590236537506564573619,0.998451752385972834957784,-0.043027133475043492782941,-0.0268803098719499512780917,10.4740519185201161889154,-0.116353962548788616993001,0.0404978863854799780996885,1.20494971796603933533731,7.1087532906940360533099,3.75439949950639917375383,0.545067045382778392337286,1156.79870981442468291789,1181.3987455221076743328,1176.22746292632405129552,1185.81537507203779568954,612.207401631011521203618,-344.507729495745195436029,-335.219184477449914538738,-490.799398710856621619314,158.72923366013111490247
0.390243902439024403783208,5.17220849003464167026323,-2.92171854600041180916037,1.26864478694317917017997,0.0553056163121018323769462,0.0263800022334717242100677,0.0166739756177257635039179,0.00267812229230076238178926,0.0232472370312857903873471,0.0504865293772038398190105,0.998450386752588014971366,-0.0364150447806881258361322,-0.0188932078927499490228481,10.4407172873549072278365,-0.113699759653211801557759,0.0406792364296345229646157,1.20859583602205278296537,7.10839746960524010432891,3.75454667672903630304404,0.552462811024731492715034,1162.70252004885674068646,1179.5548238675796710595,1173.08434726180098550685,1181.90314017350442554743,1126.57773313779534873902,-276.72040330871664082224,-545.333843259304103412433,-757.750786803521577894571,158.740073461465726722963
0.396341463414634165296491,4.77089518739439721883855,-1.99183207960039831974086,0.816440668232139010740411,0.0923626467351750940482091,0.0104068887411778963902886,0.024868713053366377913056,0.00296539608733751083868846,0.0230952875386018080527961,0.0505667719984675273492414,0.99844892335603652178122,-0.0306333058896153184735844,-0.0101051324993235956684057,10.4090908473885086493738,-0.110792339704821496404463,0.0409811201956764570297764,1.21211496796937900910507,7.10806037649245148202226,3.75468943034745805675811,0.559858473827095748376337,1170.53746265756853972562,1178.02410645736722472066,1169.57705020364960546431,1176.57451181833630471374,1296.60260617188828291546,-103.129996264592051602449,-516.947350917748281062813,-862.605269889147734829749,158.752270521519932344745
0.402439024390243926809774,2.86549908940703623727586,-0.824773266355612433287092,0.0330507307355262791581652,0.113682271561478046018046,0.00138513740750193154772918,0.0279834166198610137521463,0.00326683409907130035271239,0.0229638089111179818924136,0.0507031152654893943476644,0.998444024933884954897678,-0.0280116050654869649938483,-0.00112695888589077822250495,10.3781050080744172703362,-0.107981792529632983357324,0.0414482746041754876453744,1.21556879165496245498446,7.10771929052267648074803,3.75482727639643609762743,0.567252882274153713559883,1178.51474695339197751309,1178.29714098630415719526,1166.78011127499917165551,1171.38356371144163858844,1186.74118033360969093337,208.839897644830472245303,-463.579502897976510666922,-738.614781973305298379273,158.765902068022626281163
0.408536585365853688323057,0.383782952487404849239994,0.290942540702044727396469,-0.482271432265207189438172,0.123683106384808588762425,-0.000156045454661098565969993,0.0245438021128823666283658,0.00353955535048250825164162,0.0229566019320277120430163,0.0508597449860992076309252,0.998435279724728452777072,-0.0302106894535674949664461,0.00639980434743463513780348,10.3461850646005544263062,-0.105526775314812110151408,0.0419591487187244982504097,1.21897973860286468195113,7.10738226127550909438924,3.75497139627451748111753,0.574672991604846639113191,1185.00991607627111079637,1180.57093447742613534501,1163.92364163172305779881,1167.56701447719842690276,841.3211707776505363654,269.547492652281334812869,-480.560041229315629607299,-537.96907487907583345077,158.780872017443300592277
0.41463414634146344983634,-2.02763460774564308053414,1.00749656932699349631832,-0.300762120786661812932294,0.12163052239035132551237,0.00452383875653973588359946,0.0171764985307720600971049,0.00373720722948579341798903,0.0230827124366237666774904,0.0510166558589511542898265,0.998423691961927262106258,-0.0364076031041168021729071,0.0111349832432147133332023,10.3116841518834014834738,-0.10345261867763554108901,0.0423346556906738918923949,1.22233205636261277327037,7.10705972019639276027192,3.75512677956451312866193,0.582123170979704562810753,1188.7747612311682132713,1181.58430553084417624632,1160.91962296732458526094,1164.8229652373065619031,387.802603538749849576561,-204.930909228301345592627,-471.607363075251726058923,-478.321209278382468710333,158.795900703228198835859
0.420731707317073211349623,-4.02544708654059135710668,1.24476080438177616471762,0.297115162238273999850691,0.0995432475225999369161656,0.0131942300890077572617098,0.0177430778403104665030821,0.00386639783674798528587124,0.0232330588422834209694212,0.0512032795195641252106178,0.99841024491348706604299,-0.0433031719069435980240534,0.0130445578101628517631028,10.2729180143028031579888,-0.10150693589831795426992,0.042514106088058625787518,1.22557708410991295089332,7.10675865267974682382146,3.75529166825617277680749,0.589596551500481069751913,1189.73921611942660092609,1178.07177704781270222156,1158.17233232592730018951,1161.73382899819375779771,-206.782579065064368251115,-823.441922373070951834961,-372.307013448809811961837,-497.289224882507824077038,158.813408031547538712402
0.426829268292682917351755,-4.6607509092259826743998,1.00339660530946739314118,0.463025858407374868441764,0.0658012717960420739915506,0.0200761391872622783905111,0.0260660026583261865418262,0.00399409636116470137534584,0.0233135985037116327811546,0.0513875653080842972886266,0.998398479338214350775615,-0.047754909148227546455967,0.013908068608756013473382,10.2289331775684253500458,-0.0994721140969370837270347,0.0425921250010358812265743,1.22862934504844711902649,7.10647991816431545686328,3.75545911579755919973422,0.597100147096820577097276,1186.25302246208207179734,1171.54233086775798255985,1156.37929353502204321558,1158.7584624948369764752,-1038.49692466972351212462,-896.784985825871558517974,-307.432549789875110946014,-412.692749541811451763351,158.832001692235081691251
0.432926829268292678865038,-4.0895170806877327862594,0.431731805182816619215203,0.0606531194674312795767079,0.0388387548247516867228057,0.0245805829846010744088591,0.0283425000860630972587817,0.00410270075936809263533744,0.0233578298403277415107304,0.0515154648163900497070955,0.998390467714799778597978,-0.0493665510452337627511632,0.0141909511534995536052861,10.1793048446520515426528,-0.097448441082344905428414,0.0424938807381473951374495,1.23136330682476935471925,7.10622186248349674286828,3.75562412915701315796468,0.60463688990041886128779,1177.07461947711294669716,1167.1353747816435770801,1154.42315488946542245685,1156.70099058914729539538,-1778.44396340776506804104,-427.819569463443315271434,-425.840336050926964617247,-271.29155524720340508793,158.851560830777003729963
0.439024390243902440378321,-3.24811948907551917287151,-0.334354406523040992293971,-0.285153942242454327971046,0.0199043729333017206661882,0.0251026794118992223336928,0.0247211434698936180498485,0.00416326183914457036844281,0.023384399029231395239492,0.0515780599041456427888974,0.998386375999957387250561,-0.0475804016527257497837233,0.0142455420275504965332836,10.1242073574192499307856,-0.0954770244926465699863982,0.0421450826926383567694323,1.23366660507788461487166,7.10598195812977806440358,3.75579238357362221734093,0.61219670607080400870359,1164.56468144491418570396,1166.32501904503305922844,1151.18611870513268513605,1155.45002889426132242079,-1916.44485469767982976919,-125.37218185553035709745,-590.785984853332934108039,-244.682128504796537527,158.871865561026680779833
0.445121951219512201891604,-2.55902920869606242959549,-1.10410501187154630464704,-0.23508414582148279281526,0.00373742847688038034095759,0.0214803944162893258040814,0.0214959344778872692149907,0.00416545881534964666098597,0.0233847259452757971764925,0.051608913119110151612734,0.998384764898585963521782,-0.0418133697654249555930583,0.0145948342295264474333116,10.064572961719973065442,-0.093489740277624910902432,0.0415523124869451865315284,1.23549801113483614933841,7.10575256091078522047155,3.75596213242346488314638,0.619771196512120203792051,1153.70334076128756350954,1165.60644573462491280225,1147.21844775710769681609,1153.71706219274733484781,-1577.46848913928761248826,-436.129824505023464098485,-724.041590280193531725672,-496.829748261305667256238,158.891184692020573265836
0.451219512195121963404887,-1.7798912701035209948941,-1.8160479967089033781491,0.0600998864965134049764828,-0.0114092873975998061047976,0.0122680921231375222868465,0.0212602088066610322991679,0.0041021680636819648699265,0.0233906848532899336312596,0.051619006915277682034926,0.998384379405045430111443,-0.0325123494839290247404584,0.015687125678855676214063,10.0011277060919390180516,-0.0914837540794069814520384,0.0407625780813399563040633,1.23681777649535451502061,7.10551946986423033081337,3.75611192815382022303083,0.627346563345952512591452,1145.32726084565456403652,1161.00636264863032920402,1142.35634321391080447938,1149.39112952522100385977,-1153.64385324732779736223,-1027.78045573620511277113,-851.670106997176503682567,-903.028881201396984579333,158.912638805050875134839
0.45731707317073172491817,-0.995751240932702397223863,-2.15044657476654643701863,0.296893945325776009713792,-0.0194237562194213668476106,-0.00168285842400950000352644,0.0239393100619907997494984,0.00400929699773374531579506,0.0234047144173586615933935,0.0516054897547556651327127,0.998385143881335035409563,-0.0205174599899179341266908,0.0180856738898351118716157,9.93495608007119557214537,-0.0893715482668648725228522,0.0399499373473412300317165,1.23769671475406850547074,7.1052797329959807015598,3.75623841872232544503163,0.634909315260117845802768,1139.63451328266160089697,1153.07253773784191253071,1136.83222694006894926133,1142.70451486102297167236,-869.374130579439793109486,-1241.27202750315404955472,-913.311691569729759976326,-1066.99482580428366418346,158.934541489830451155285
0.463414634146341486431453,-0.360367439160458880031968,-1.9848140785235199867742,0.366539172551768599461752,-0.0225458884623478961195531,-0.0159360953234094215869021,0.0266598481929916711341555,0.00396491783705239277113552,0.0233691471262642835871048,0.0515922039875018750842983,0.998386814487515983351784,-0.00563946002171424737303695,0.0228149074296744580614416,9.86646478362537671102928,-0.0869239147636662878859681,0.0393796059304162004988115,1.23817285874579163795772,7.10504887469336843253132,3.75635051606483427732996,0.642462615217054056060419,1134.72513730200284953753,1145.86889889859185132082,1131.21839575574335867714,1136.37899750321753344906,-780.715994937720324742259,-906.626599786188876350934,-773.658123710091558677959,-774.785412400122140752501,158.956852958127655028875
0.469512195121951247944736,0.178029622048158531200102,-1.55219955800090780861922,0.424768393667588284312586,-0.0231587666584228864252726,-0.0261372292386211520220929,0.0285221040524749232247803,0.00401917319563955058314697,0.0232309846421400491289777,0.0516254697762810257910537,0.998387987789659869797276,0.0116086723394924554164653,0.0298000516350795732756218,9.79597026445865459720608,-0.0840048876548055989399444,0.0391896121073050870964316,1.23831003013330764872535,7.10484627151798520117154,3.75647047759550378742688,0.650015487347335385592828,1130.11358651512841788644,1142.01611578922984335804,1127.39737177287270242232,1133.25591227077757139341,-582.236248414783744919987,-591.986867796445835665509,-399.062204797335311923234,-297.538668419446992174926,158.979497307495677205225
0.475609756097561009458019,0.767639953339399605525273,-1.10097854878102063835854,0.629587459540011828984518,-0.02231192739501395433388,-0.0322145348472515150040074,0.0305898083097507142436022,0.00420585579093954008839118,0.0229900133141610722720127,0.0517700833181268041394141,0.998385146371195020265077,0.029628040144677188216793,0.0385913826342300092520077,9.72334768249553427210685,-0.0806459505027262990584092,0.0394403572297701843218931,1.23809826197614203380226,7.10468296034133395266963,3.75661458869347431033248,0.657575877948280429485806,1127.62469524816401644784,1138.64954685229372444155,1126.35178350211731412855,1132.75047715663890812721,-110.43329903046732454186,-914.49742580162148897216,-127.737365002106230349455,-129.981206511405957826355,159.002463797145423995971
0.481707317073170770971302,1.31703505121752351136877,-0.533578620931634772794894,0.933094361563406082815675,-0.0163727613375014742491675,-0.0392809086801747461836776,0.0344573449029688186340259,0.00442046810708874183398764,0.0227133670327337583438876,0.0520438237831449337922329,0.998376249202982291031105,0.0455261946922915008983956,0.0462152005861084097526614,9.64847815262113961409796,-0.0770812861040822000502359,0.039824477536942931577002,1.2375137563289244635456,7.1045419203817905540177,3.75677989849827786983383,0.665139132326251658611227,1128.76683896597637613013,1130.86370815750274232414,1125.83959902894457627553,1131.67077560600432661886,364.168508570515257360967,-1551.80172520040628114657,-253.881494910988777746752,-330.578673894976702740678,159.025746037104454444489
0.487804878048780476973434,1.41503654353729357850966,0.249459328452006162679666,1.05958392531155132232357,-0.00573908702015639340249242,-0.0425402222435908861086773,0.0413990078602392980178237,0.00450976790725449942082159,0.0224983672665286793534989,0.0523487299350062842973053,0.998364813147430640860591,0.0561208794596380136643354,0.0491461895882802507484755,9.57136941258057838410878,-0.0736056437174755773256152,0.0399305778313545425839415,1.23652759310641990886381,7.10440502731065581798475,3.75694132226811561281465,0.67269314315170203322225,1132.06577462097516217909,1119.72513556936200984637,1123.2556677105199014477,1128.71902991401725557807,440.838903225830335941282,-1787.09406069804913386179,-686.749221484051986408303,-657.287222329503151740937,159.047578524593916426966
0.493902439024390238486717,0.900812756385415025484065,1.03287760270249817651234,0.762948343634865744355977,0.00333189414334107009141306,-0.0356582925551233165251119,0.0488703087394710342095117,0.00440061788462606760796714,0.0223914976727713418980237,0.052564849128842655590077,0.99835639384022878406455,0.0594627438992639048565003,0.0455769221843944360994527,9.49217117439723168104138,-0.0703545658444749422155695,0.0395832428976083741667402,1.23509104067841146701312,7.10427413482153546908648,3.75707435337920037099479,0.680241762548270734178857,1134.14292315165721447556,1109.06987814899002842139,1117.4646085230415337719,1123.65507777271773193206,-9.33640474670800379897173,-1284.41954635203387624642,-1064.59277079359026174643,-940.369973283936474217626,159.07166559025580454545
0.5,0.0848076278867802152428013,1.45580992632301642331072,0.0979427817839285258516568,0.00525276271252394372224259,-0.0263434091620907070985247,0.0522124186259801253973123,0.00420826824466293079179957,0.0224136737722631339264634,0.0526588933001152156854197,0.998351787020896885849197,0.0551470056353756191147575,0.0377586105586619619201016,9.41150145661392834028902,-0.0673843431889825650316084,0.0390829356680815406810403,1.23317834823478200689806,7.10415074062890372630363,3.7571800511013071499633,0.687776747009657851705811,1131.95191602650311324396,1104.06148256506889993034,1110.27282904230537496915,1117.25110341055460594362,-662.076434698431853576039,-411.756694091841495719564,-1110.63448725646776438225,-1120.32169435910600441275,159.096203679622448134978
0.506097560975609761513283,-0.677326192101750046425934,1.68408962296458297736024,-0.661416173707669141634824,0.00320206562439481366363903,-0.0183897807693868507727952,0.0506713773273420597931249,0.00407161743680815868540179,0.022554564572181402121176,0.0526489426421932332766929,0.998349688585897787618251,0.0432969643838563081339466,0.0282937865682422115543027,9.33023217529844117734683,-0.0647039895730567443665748,0.0387340817411183438445654,1.23069630728566914434907,7.10404543587309778018835,3.75729603430677450148778,0.695297523776028159048224,1126.0688202894812093291,1104.04845505030903041188,1103.92028550771874506609,1109.99261808541155005514,-1008.41626717170674965018,58.4407576722323440776563,-876.253565584973898694443,-1174.73568458293061667064,159.12116806904674604084
0.512195121951219523026566,-1.20176160236270868075792,1.83579538840250244824404,-1.13310790068461120227994,-0.00208215788225439612027512,-0.00754270583956914188183962,0.0430261336950930398104198,0.00404523934062030274955157,0.0226621517371010244845664,0.0526276511442051314615398,0.998348425870853151131712,0.0279667107976680553993454,0.0188783534716921302942794,9.24970255358199722195423,-0.0620339259500457818052865,0.0385413303747173044411234,1.2276436964840446997016,7.10397661899395860274353,3.75745783844336900259009,0.702817105889189441825238,1119.65415667075058081537,1104.77417473180344131833,1099.58680994980568357278,1102.92505847661641382729,-899.26535879094092251762,-6.51467310287670731128173,-532.460154446932847349672,-991.4540515867188332777,159.146427543552874794841
0.518292682926829284539849,-1.22549851443358792657534,1.79945614641224227447935,-1.10612657682028925343332,-0.011283039838118541497991,0.00340504449916541546486415,0.0343011730480545021237937,0.00403689937049389862416815,0.0227148741833671959089447,0.0526767766365286854712835,0.998344548793654307239365,0.0106737848697416939924842,0.00885080532001175646072966,9.17157777412190888810528,-0.0594756915491945342688851,0.0381306275825976093152292,1.22394747649907609243769,7.10396323668888030056223,3.75767436194574422358983,0.710339270429276803398011,1115.10216957251850544708,1103.96900781734711927129,1097.42686899007321699173,1097.90171501728082148475,-662.844981026036180082883,-196.823197929401260353188,-272.107109708814959958545,-651.179851476660019216069,159.169915169814856881203
0.524390243902439046053132,-0.632953383864883534215551,1.50101761882888418142556,-0.83678358585911327693907,-0.0187580110648129204375945,0.0147553302883112798932208,0.0294759967138212147785836,0.00392482393185132703156137,0.0227799517513168556237524,0.0528153928994240309813257,0.998336093390465251218302,-0.007998728436136519348576,-0.00251135153604779837177574,9.09731897495239572037917,-0.0572929453696953763786048,0.0371630137697666826368526,1.21963399439362207843374,7.10398646237330488872885,3.75790484081564724050395,0.717839666061209191738612,1111.57068129238427900418,1102.37389183022537508805,1096.26843056311281543458,1094.98384077568152861204,-578.452912419735525872966,-142.026450284511042809754,-158.770006254638559539671,-334.040033019243935541454,159.195449006324281526759
0.530487804878048807566415,0.279048893776028705815406,1.03781380585090299284445,-0.685548029396246927369418,-0.0197042947391666070644511,0.0224448445431200127586635,0.0264964078319367343783419,0.00377801365924452722810933,0.0228228376543508880425204,0.0530205343808445098141569,0.998324873812311275322884,-0.0255089932526795445943968,-0.0128261315360220715109385,9.02812092994079939956009,-0.0553710646115555815693909,0.0358905082106455095014574,1.21478838693154234107396,7.10400133838031067057273,3.7580860709007755104949,0.725282454226263473273661,1108.04786576252172380919,1102.23697793582869053353,1095.4906494016020133131,1093.82805607802174563403,-658.399939316593076910067,172.865736049904938909094,-116.742475426165484009289,-154.630127115080853172913,159.220996422938327441443
0.536585365853658569079698,1.09252042846698849132281,0.59491750920061836627184,-0.70286369022450001509128,-0.0154690142658841095490985,0.026614276596912286171337,0.0220990872211381840506395,0.0037042009025185004128522,0.0228518888519889731836265,0.053217027358374996426349,0.998314199623863141042079,-0.0405284936245526514198012,-0.019776589990742866886908,8.96449868698124774368807,-0.0535764959174112320727801,0.0347806506575390472768561,1.20955349979538095972487,7.10397960441747233772958,3.75819255432020193907761,0.732653835474945669403724,1103.54141373974289308535,1104.48201056254129071021,1094.84474183840347905061,1093.09810751818054086471,-776.961223903228301423951,430.178514363315628088458,-86.1505078609447281223765,-141.557483139053488230275,159.246484110503530473579
0.542682926829268330592981,1.40708401107507929950202,0.221285071236938801764182,-0.751623003638508313528632,-0.00579914658288524596102542,0.0291220618586029190988373,0.0175288174919218664449261,0.00375741624792170960528415,0.022853209075727642235476,0.0533290565697892016139292,0.998308146307593013979442,-0.0522875125021151562765276,-0.0230749918528522848792939,8.90601013771848570854672,-0.0516923241136578587306971,0.0341576839165289095068267,1.20407117218968862104589,7.10393496330149343265248,3.75825432820128124689063,0.739985215956770803202858,1098.57272888565307766839,1107.48305737928376402124,1094.44003345207829624997,1092.10174530803328707407,-750.862799932812094994006,341.204871537201313458354,-88.0628505344874668026023,-195.236917523995373358048,159.271843665110935717166
0.548780487804878092106264,0.9166117652776980539997,-0.12651382172740216480733,-0.722834933960048942047649,0.0072212995076647518502555,0.0291779250484442941038221,0.0134766980093935402618133,0.00387040122826009039269657,0.022867137107734261669556,0.0533710288298037821563824,0.998305228395475641178791,-0.0617211780803533852091114,-0.0251654256292615785550737,8.85196113393784500544825,-0.0497053090943950365288018,0.0339623897749405795343236,1.19839178014279768014205,7.10390100334374707813367,3.75831254502964284824884,0.747295663572529855755988,1094.38455032592810312053,1108.64304558128765165748,1093.77080463676338695223,1090.71716949959522935387,-645.917866645499429978372,-87.4744374352816720374904,-249.107221675016035078443,-272.926816493413980424521,159.296983581065831003798
0.554878048780487853619547,0.21251521524145683406104,-0.520166732467675307916011,-0.451110377490323066762556,0.00749583752952642703298869,0.0270950831149737274283762,0.00790813533067650197005971,0.00394860565182725276045517,0.0228869156494702109816419,0.0533884679855308602602904,0.998303538899006137619097,-0.0696808665537528848510362,-0.0290474510387006834566392,8.80091599042898309335214,-0.0476097827355710795371735,0.0338825008604641472742536,1.19252625424073666060565,7.10390270217918295969639,3.75841501093423957513551,0.75458572896127418250245,1090.69568173143966305361,1106.41629594714618178841,1091.4021405048220003664,1088.77336949713799185702,-681.728842668121501446876,-611.989881199954993462597,-599.600373324222232440661,-350.133359622574232616898,159.321827343691296618999
0.56097560975609761513283,0.180066646549887160455583,-1.02650500305813596746418,0.0836934832191989219740691,0.0019728002584607153176155,0.02333600298333923447891,0.00516618529582247611176005,0.00395870378895124726270627,0.0229211783820190868887767,0.0534242043803570959559224,0.998300745587043403261873,-0.0771055864632299858829612,-0.0361892336425527552656867,8.75184095529370509325418,-0.045494332007869647815923,0.0336618024561764969670996,1.18641688103304376866731,7.10394092869365412212801,3.75858223732436425024162,0.761845701165324795667289,1086.07078395192661446345,1101.17975434714185212215,1086.45860496207774303912,1086.44725047980773524614,-983.364571884843826410361,-1049.59432382414115636493,-1078.44629243754661729326,-398.288760601958188090066,159.344393701587620171267
0.567073170731707376646114,0.552027349100961184369396,-1.79340602603945398207941,0.629066133773652280680722,0.00762199979444062002131854,0.016284647765468503871622,0.00857032775569040346230754,0.00394301284863679199488296,0.0229849649176864269384257,0.053483941974801260665906,0.998296086172661079061186,-0.08483867626541688466979,-0.0456442196658516999296928,8.70367969292810172987629,-0.0434731879996304929059114,0.03322006898776969086029,1.18002108643537440002547,7.10399711734694250253597,3.75878117067633432668572,0.769071137658150716376326,1078.70343085479521505476,1093.61636516880298586329,1078.25035645070556711289,1083.91618948979703418445,-1294.66520469944384785776,-1201.23262220975061609352,-1399.18368122576998757722,-359.870089500914787095098,159.368322854999178161961
0.573170731707317138159397,0.749280676810905044149536,-2.58209176091934455854471,0.736545832535088207393414,0.0137240484011302826122813,0.00169876056903727336126753,0.0160942470552178987230896,0.00395825084581117973836495,0.0230225096357562809823438,0.0535689267765088045214483,0.998290542168429162472876,-0.0920466748168183301892498,-0.055663077821442571990751,8.65583443160175036723558,-0.0414579287509119764898458,0.0325952288192886477369292,1.17328079475429669642494,7.10406179281291905169837,3.75896165958036565513112,0.776268046905328246154454,1070.28218389461630977166,1086.53057602751073318359,1069.39538933737321713124,1082.05859085174779465888,-1229.52263652417627781688,-972.271759603972441254882,-1209.88508265680707154388,-231.673337964842886549377,159.39161307607926687524
0.57926829268292689967268,0.807113194263888611423852,-3.09180625479240145381254,0.428053074816020839854502,0.0175423696530371507618096,-0.0166779699247064580602817,0.0198296691249723149030881,0.00403377829589802658349917,0.0229665111504915968321239,0.0536444129876734177031494,0.998287390192035495317668,-0.0973822928762940742686283,-0.0644621681822700326458531,8.60793952434431197673348,-0.0393005821530883134307111,0.0318866253983555170137265,1.1661792774445864928623,7.10413014675614640225376,3.75909357384329467777206,0.783430311024985503998153,1063.70925236059792950982,1081.75939249070574987854,1063.49566032074449140055,1081.09090488046967948321,-756.245759897548168737558,-625.527747144059389938775,-608.753667996056151423545,-177.167811325569175551209,159.414114983706042494305
0.585365853658536661185963,0.827707256584731765336471,-3.26124116282416620649087,0.132115966105109061690115,0.0226434514646582409069797,-0.0363993819044708330490145,0.019620209341271479391855,0.00420984311105176978173859,0.0227843627606107677896485,0.0536743140438707549977337,0.998289187652436460496119,-0.0998260675712693279493237,-0.0699997500180987164419832,8.55975491347313877099623,-0.0369175932299179027085145,0.0312723726770490415005632,1.15873650336453981601892,7.10420025335301907887242,3.7591897106568561426343,0.790526117158930619055468,1061.05967462757303110266,1078.90218886721731905709,1061.97156411790911079152,1079.89800778680182702374,-135.356893764382874678631,-407.744040994739123107138,-44.9283228767207276632689,-322.323634643974344271555,159.435813426027351624725
0.591463414634146311676943,0.81000345687196861899082,-3.05689673640210157756769,0.0457620249889315183766669,0.0271039878881326502801929,-0.0557363021787731227618679,0.019804922195056799683055,0.00440258687437345384851906,0.0225250643955278995189673,0.0536921159387334506751799,0.99829331626167483459966,-0.0996610817621482736328176,-0.072369985252353358218258,8.51096205460870436354526,-0.0344358812392310809080698,0.0306233017383486932905257,1.15099312957303090421135,7.10428187116852782878595,3.75928436058297865685063,0.797557351036004003042024,1062.05855853420302992163,1076.78690418589189903287,1062.94775394419912117883,1077.16012884822612249991,284.972427389280312581832,-376.444934066787823212508,63.6365677869071788563815,-637.466205670547196859843,159.45507842234027862105
0.597560975609756073190226,0.717050719028326510873228,-2.50569641333039916375469,0.101199512526997201233847,0.0312064758045673511233087,-0.0730407427744928366974975,0.0200891388241283691540318,0.00454985600288519611428262,0.0222319315195853121902569,0.0537470001919040998861199,0.998296358919888660032882,-0.0970532495949207318908236,-0.071749282903180749970673,8.4612077742340900954332,-0.031973778159069092541511,0.0298085666689203096502148,1.14299611800488842838774,7.10438282646819274646077,3.75940297558367086949715,0.804540513830786618854063,1064.53494813232032356609,1074.31139698835409035382,1062.74761982262748460926,1072.12402966886838839855,336.922488711278845130437,-434.243122617866504242556,-361.562790323289505067805,-907.66451618781286470039,159.475124099031262403514
0.603658536585365834703509,0.413544697448242903892179,-1.80857807231525891111801,0.214627076187625165371031,0.0360970109066313174506213,-0.0861314172562488572504336,0.0208207017752290654555303,0.00464849661527859045473399,0.0219244410236773476507999,0.0538399118468665810466334,0.9982977925663344409557,-0.0914635962893133036555326,-0.0671690663889341760262042,8.40997424812711180663882,-0.0295963108955809434119644,0.0287976493934206656533092,1.13472835809202288182007,7.10450275030886402305441,3.75954911186895168739852,0.811483698996754987398106,1066.1673693721454583283,1071.49125634908864412864,1058.53845162318339134799,1066.09104938252107785956,121.975243909381219964416,-545.081200531691592914285,-980.117280579419457353652,-1010.90106464831933408277,159.494361191621010220842
0.609756097560975596216792,-0.21163433876252207843649,-1.09704204041492703325389,0.243197467331682626312528,0.03828268577838536690372,-0.0953752366057126488296802,0.0230064197867272772490832,0.00473201495282500519262703,0.0216289514748010010258827,0.0539035521365319528208637,0.998300493923042542299129,-0.0829832293040429491703946,-0.0580803904852527849711485,8.35698088524015680889079,-0.0273393691717654339912169,0.0276921671448725412179037,1.12618662645783618181383,7.10463308521002723239235,3.7596908256448431373542,0.818381214084981101208882,1066.02245110682497397647,1067.66406527455296782136,1050.79497005946382159891,1059.79596790486448298907,-157.050745308368135511046,-760.148395602103164492291,-1242.83153512712874544377,-1046.31051477111714120838,159.512756052582801657991
0.615853658536585357730075,-0.900138006942961199641218,-0.495943800078637309081131,0.101542064135786480605361,0.0339169764644836405076411,-0.0998776683279827270922624,0.0249826306254019962771462,0.00479337067781667944266211,0.0214128878491036400699699,0.0539163763473748322563317,0.998304200189463752934671,-0.0724460432526826680899035,-0.0446232323788397916564108,8.30185594298401241530883,-0.0252940050392113542632178,0.0265783239235164378544418,1.1173301881635926413594,7.10476352555195767024543,3.75979494962837801352862,0.825227911092033750151131,1064.25211638057999152807,1062.22115396369713380409,1043.38196948748668546614,1053.33116505604402846075,-452.025820546736724736547,-1017.31556712218753091292,-954.158888316248180672119,-1066.49979367308333166875,159.530367682390561867578
0.621951219512195119243358,-1.34646653520276848858828,-0.142504999829319384252457,-0.130111933003035418199289,0.026250357399969705129994,-0.100570320453477954347754,0.0245485020971512868381836,0.00485161050355082182350408,0.0212251874145649166436556,0.0538813545214626987700512,0.998309772247070292827686,-0.0595706074443394170692123,-0.0278115434904860278630956,8.24466044731529734690412,-0.0232413988590621477248188,0.0256288158606505049597057,1.10816025469785905954723,7.10488373737444156574838,3.7598580325803454549316,0.832009512024356023829341,1060.50994110015744809061,1055.25777787062384049932,1039.15888605560712676379,1046.78987286007077273098,-797.882483601220656055375,-1185.98336100491928846168,-470.254845185596025203267,-1062.36486712768373763538,159.547144123078567190532
0.628048780487804880756642,-1.43553129340874385810878,0.034816309362266151250509,-0.310754318331653678342263,0.0171960476172116974447057,-0.10078331719676751621062,0.0230468029565964217797447,0.00490403708165099583987656,0.0209670491114102575114231,0.053826158723558385765795,0.99831782044223893457513,-0.0437461018743744087244885,-0.00953402849385944287097239,8.18560759659421499634391,-0.0208615772026879628398,0.0249426097466682421266437,1.09866044628718628750619,7.10499655603138968729127,3.75990093624762167223707,0.838724874326053693174288,1054.52184219032119472104,1047.75794224412493349519,1037.64715430229648518434,1040.37549594473080105672,-1080.68630169613788893912,-1147.04431813364271874889,-170.200719651269395171767,-1008.9939393722506792983,159.56311215270122261245
0.634146341463414642269925,-1.13946998424129786187109,0.212253063173529543661289,-0.351670672644940562889815,0.00849285211593140028363269,-0.10130627724899805841563,0.0211346728176559327250228,0.00498789068712067636124363,0.0205823368206861784246442,0.0538118876508669602420909,0.998326051713530171483058,-0.0255542424593824743506154,0.0085192853962950884638694,8.12526790067162174580062,-0.0179743704461969855401549,0.0246280512750985045022922,1.08879259033423325675471,7.10511534552634849148944,3.75995269483295757595442,0.845393059310527439365046,1047.33083985996063347557,1041.26943252753062552074,1037.0832675232745714311,1034.4850687213847777457,-1217.2717149941142906755,-1017.34760395544844868709,-189.600093333746201551548,-1001.77196259520405874355,159.577075917050194675539
0.640243902439024403783208,-0.520512390875144115298667,0.488444494215812041737479,-0.174410419692344220710112,0.00217564069515604075616411,-0.0996612218321285409095012,0.0183568116737047835884677,0.00513778977673788259106225,0.0201329249428486151130002,0.0538726933597560367350532,0.998331174279671440530137,-0.00758313973599675922310226,0.0248019446651167457806864,8.06454833142984561789035,-0.0147311956075013555239606,0.0247092560806800275174933,1.07850288331089472215751,7.10525058681915133718121,3.7600254811502118457156,0.852017497296086334657161,1039.67706517819783584855,1035.35126414710725839541,1035.33495804212884650042,1028.15876469356976485869,-1063.80149032782628637506,-890.065143354821543653088,-476.819907018422384226142,-989.449896207186611718498,159.591356558419278144356
0.646341463414634165296491,0.020279758804199632393761,0.709582048435512979800421,0.196972441020723837423745,0.00169137019385626587511529,-0.0947117953531879663842119,0.0172148448629041370128157,0.0052690439362103776155255,0.019722773641851300274741,0.0539595757309569712401043,0.998334091407654833361107,0.00696681799934471129853719,0.0361488815690220177678782,8.00468213973813824679837,-0.0114351243585081099873868,0.0249237498602240432898913,1.06773057653772029951256,7.10541134783424244147909,3.76011638009584547859276,0.858578081063229969771555,1034.35765095352371645276,1030.41497955978888967365,1031.26839060841575701488,1022.4186065725166372431,-588.890409739034453195927,-775.39171317634713886946,-803.772079914478354112362,-833.469336838358117347525,159.604820632412355507768
0.652439024390243926809774,0.0613065232899321216342159,0.811212745528517964466175,0.486176764328503097090106,0.0049659199695229758533821,-0.0899323340491405831542693,0.0206167107365114697647979,0.00533394991167633180512153,0.0193968109178274915327389,0.0540342038596380511150663,0.998336208509711608982684,0.0166976362007279291455042,0.0411844602300627249391596,7.94692584798834555925851,-0.00829847142696969047870326,0.0250653635271341282408919,1.05649902155415875704136,7.10559805054775761590236,3.76020952001052854996033,0.865069875756935280364246,1032.49547481552667704818,1025.8952676449566752126,1025.53285950658641922928,1017.99450448822392445436,-136.113711086173111652897,-705.483382063192721034284,-861.239937563364605921379,-583.728180855111418168235,159.617474286806100280955
0.658536585365853688323057,-0.352247272268235878112108,0.885042561576405595324957,0.420419000949918519882686,0.0054715235681030644290801,-0.085387307413962956759157,0.0256293041886502051540653,0.00536565965593473279821035,0.0191348358055240981567824,0.054087971646003839276684,0.998338210881404619634338,0.0215604523158042585273542,0.0400119094375580020006566,7.89271240287870501362022,-0.00538203495110260200784413,0.0251068945025188262898386,1.04480966763945692932225,7.10580796189853636235512,3.76029864966887394928108,0.87147881704264729130216,1032.69772764759477468033,1021.81152368096945792786,1020.7654645405698374816,1015.29997022062502765039,41.6266024475107414559716,-525.289647147371624669177,-514.630152146964746862068,-319.603492635524560228077,159.629421654738820279817
0.66463414634146344983634,-0.724304176742154193213707,0.932270267521360218587745,0.0945165640868307205257892,5.3868651717818796949809e-05,-0.0795777186607256048489489,0.0272292357016728110707948,0.00534200358049643532487583,0.0188943671604952304066138,0.0541639647853055655746246,0.998338761577753142084646,0.0228317973453721692611573,0.0334148542555781566387729,7.84267913158740981316441,-0.00267333322500876852112484,0.0249015290854011153709457,1.03274890075490533014602,7.10604268711180697692953,3.76040260246780588815341,0.877812981098468059215634,1033.00311630878900359676,1019.48929633828140595142,1019.25688204137952652673,1014.09690091949801171722,-22.8571970949751417379048,-216.885508268952236221594,-26.0908320246958034260842,-184.827820122905734478991,159.6398328682645058052
0.670731707317073211349623,-0.761527164311493143245002,0.950106965729222929795128,-0.229800770022104250411843,-0.00694257371913629007381674,-0.0738786162691890818665641,0.0257223141319487570710667,0.00525617969205142629429695,0.0186596522168941368613471,0.0543179130584448000007569,0.998335259794834728452884,0.0213143023021799896121742,0.022619427879130654668316,7.79735121334483771704527,-0.000173167349009802074011333,0.0243286669025961146961556,1.020367135076520437309,7.10628654112093283146123,3.76053468973877569325737,0.88407778057155261830502,1032.41898134155849220406,1019.16657845817735505989,1020.44728366221988835605,1013.04597241424812636978,-185.639824612131917547231,29.8688663392431159593343,206.065123043645655798173,-208.737621072366238195173,159.650468834063332224105
0.676829268292682972862906,-0.597814095839241943508569,0.976830296567370526261698,-0.330058150420801055258124,-0.00993919836550099210226161,-0.0692439823569215018306267,0.0229228923727590357117823,0.00521150607907546262187459,0.0184688431224585281054118,0.0545058398442281460960501,0.998328828986781102727832,0.0172321122797771883461415,0.0112450873104000884095122,7.75630544381772590867286,0.00210034559510919455194156,0.0235582807343234432173595,1.00774556516773539094345,7.10652112552885029117533,3.76068552701254388281882,0.890264848149546539346488,1030.73921600864105130313,1019.85355080583315157128,1021.76987134678984148195,1011.55132017471305516665,-376.409991383698184108653,17.7128394935957516054259,4.59248418448532458313593,-245.804623831509161391295,159.660479880688143339285
0.682926829268292734376189,-0.498016634004887936981731,0.881521102768773046065576,-0.195638426101185952665773,-0.0117345777273403766710613,-0.0626363278531642114765887,0.0205223338639664680538299,0.00526724405316549189326469,0.0182924768839953198751314,0.0546598682249313030934168,0.998323393768492550748306,0.0114574326876958690335506,0.00195651383691044025714412,7.71863222112621638615337,0.00431377426258878343690029,0.0227483255534584247192775,0.994975915331364868521291,7.1067346380421039242492,3.76081498326402074994235,0.896354117010098816464847,1027.82861559297680287273,1019.38258869590413269179,1020.50328956690873383195,1010.04835505044923138485,-558.775993027117010569782,-252.893524830107935486012,-396.627867477407903606945,-202.461387711049212612124,159.669846602632787835319
0.689024390243902495889472,-0.387170683888084676826935,0.453873761868041847300503,-0.0346013603353159185371801,-0.0149664620035514783769059,-0.0554181929247394428061924,0.0201647570775986828550685,0.00539249412696182761628449,0.0181004426906860582668912,0.0547071693435583067399719,0.998323659045366129660692,0.00438460882744517305154019,-0.00450494913642149330534892,7.68294683215904949946662,0.00662911731061454137514666,0.0219809086088295010941174,0.982144508638680746592797,7.10693246192101035774158,3.76088744407331887487089,0.902343757981472482931906,1023.92487463026157001877,1016.76948342985622275592,1016.93294613365071654698,1009.0822788611636724454,-659.47462374767917481222,-513.314528701858534986968,-573.434391563642520850408,-156.124813382598489397424,159.678629363948715536026
0.695121951219512257402755,-0.0897428525589305248200134,-0.0789066817968818862150115,-0.0752651022505581440702471,-0.0178980591719562556751733,-0.0546752552651494569402324,0.0212171532204919188746572,0.00550789995817573940078971,0.0178969661802591065158374,0.0546370353333963318376298,0.998330538536172706898242,-0.00430372479714350580914939,-0.00901561597362008845801817,7.64760242359928454902729,0.00906920137823586519632002,0.0212826122385009995630067,0.969286738251119106557496,7.10714232346744534396521,3.7609117914842533636488,0.908258150448406964549974,1019.78624213263924502826,1013.1226554190521937926,1013.51018723076674632466,1008.14439391163705295185,-710.443338090854922484141,-577.007039551837465296558,-463.536765083084276284353,-240.923121119591314709396,159.686218995105917883848
0.701219512195122018916038,0.424885909805439387909587,-0.31289028159824894270713,-0.378858282398319534678421,-0.0184927783072130376418318,-0.0592233763023012824144864,0.0214276270241811513106445,0.00554164790915959160066961,0.0177102877127531463385957,0.0544967814939456909884008,0.998341316658474364764686,-0.0153292068465733996585065,-0.0128251352292084071227141,7.61114073077174513315413,0.0115233795727583583634601,0.0206404703780743020713473,0.956355893602627071814481,7.10738530292624659523426,3.76092490049097261106681,0.914100675108166615956407,1015.26093148281211142603,1009.73281221580941746652,1011.28005875458870832517,1006.14419201824182437122,-684.610328184246895943943,-409.488027061981142651348,-264.316486617939517600462,-392.216740149148222371878,159.693911758808326339931
0.707317073170731780429321,0.76089788003820102435526,-0.112813552406220277135596,-0.675172967089898379278168,-0.0121931788720011317211922,-0.0615215710689267503141764,0.016565747431149795143579,0.00549822551850564795322684,0.0175984542857164430462724,0.0543428521383045176618154,0.998351861688395736393886,-0.0290793073759650425036405,-0.0164788201304086473486521,7.57279546163658334734237,0.0137531780993060126494498,0.0200396091124409661543559,0.943252885909647287299151,7.10766875637463435566588,3.7609661082231178319546,0.919888968524828931627724,1011.43733569136793448706,1008.12889899146705374733,1010.28681544274309089815,1003.36126293420841193438,-518.727032053957373136654,-142.229718663707785708539,-138.172049526938394592435,-441.869889040731607110501,159.701110049782130317908
0.713414634146341541942604,0.589364464182226321931068,0.199754759189050251633191,-0.660836302511897399902807,-0.00549571912657922934108967,-0.0600336904967772311270124,0.0110176357862056990832844,0.00540214126993607268722997,0.0175739012652016655946507,0.0542024203987407846017099,0.998360361480829294755779,-0.04469584137847721488912,-0.0198553470467855291969883,7.53239312534805627308288,0.0155860522110577333354531,0.0194001612497002526303014,0.92983145049143589577767,7.10798591564672399556457,3.76105758180432792059378,0.925626279460912138041806,1008.9349920675199427933,1007.99830345161785771779,1009.59503376035775090713,1000.75553483481826333445,-356.178291739544135907636,-66.5172009357507647564489,-156.548398878303174797111,-399.095159246855132550991,159.707819581177574264075
0.719512195121951192433585,0.209885965431482801601959,0.341859026417106803830137,-0.41371391174454025252416,-0.00439692917250727142997047,-0.0575209725360612683653372,0.0080824102410929302836573,0.00530073350661710088194134,0.0174780971692846016918299,0.0541588457853893479043705,0.998364836287881529663935,-0.0581158468423778953870773,-0.0222544862889429082009052,7.49075013514155241267645,0.0172391637303870477737622,0.0186218037797384328158046,0.91600971733321312484577,7.10831342342763772279568,3.76118711836936814307819,0.931285245380564230543996,1007.09369798722718769568,1007.31771361420180710411,1008.37768862715404338815,998.49424879705168223154,-340.979694535061355509242,-328.407918470706988500751,-309.821225409351029611571,-388.519378928886226276518,159.714102080763069579916
0.725609756097560953946868,0.00678730457928067385658943,0.238986071168813263287944,-0.054653857789393120447663,-0.00429178853138421998597574,-0.0542238252436065895634165,0.00647499581825590475592236,0.0052594666909050562242367,0.0172091850134019203055757,0.054258476562181662261608,0.99836422059386564775707,-0.0659180163304222688225309,-0.0221220930123458975335993,7.4490845370028040406396,0.0188809654349158355379767,0.0177014222846456244220281,0.901756992826632908233364,7.10864065409086887115109,3.76133170773955427534929,0.936835524732596680586028,1004.77670310977532608376,1003.99332883612146360974,1005.81672613341447686253,996.017493628368470126588,-434.89388667102826957489,-731.577305298310420766938,-542.31829043323978112312,-436.233009863174686415732,159.719965943633184224382
0.731707317073170715460151,0.114212677744671795010412,0.0836325635444984533117818,0.312906208005438224439843,-0.0049075069825606984497135,-0.0543301816390425809655262,0.00679575717774551051053589,0.00522962868414413115797368,0.0169216429355292935499122,0.0544553692637654920827295,0.99835863386169565458772,-0.068983236243474244098195,-0.0193925585692944421611905,7.40874000096382978597376,0.0203067241025796582643004,0.0165913205275352998446792,0.887128697658145171089927,7.10895944744917152036123,3.76144914812432329398462,0.942283026869056294927418,1001.79011400343415516545,998.396039159344354629866,1001.76405093894379660924,993.174334042622717788618,-473.903017501197439287353,-867.767684709814716370602,-710.520047912361860653618,-454.849055045466741376003,159.725464760521703055929
0.737804878048780476973434,0.536091202904408814511328,0.104456046325492199478013,0.523445771093031253506922,-0.0062691652853671892345333,-0.0564819140957705800865085,0.00861381677137616416639609,0.00517772204311822518973951,0.0167469929239222464767423,0.0546315900846557900294442,0.998352382042181907273459,-0.0686249234484528070066034,-0.0142364823057500242131646,7.37085222261374806151935,0.021445204536090854696706,0.0154011548804168629106526,0.872197947325373812432758,7.10925512849522522884627,3.76150584660433162653703,0.947642010924873101629373,998.997398018297303678992,993.410796095757859802688,997.15184750033688487747,990.470553932692041598784,-449.876962190246160844254,-629.638566540218903355708,-803.000008399938451475464,-481.1460721699054374767,159.730219247184834330255
0.743902439024390238486717,0.917022063901405948271872,0.102726251078946076433773,0.321982053707809134923679,0.000290798085289987085118313,-0.0540995489090011563715343,0.0146068094625500140282259,0.00520625587781881407622997,0.016644552526708437240055,0.0546991044322351557815942,0.998350358088805789336106,-0.064318913772644509263543,-0.00562824076057051245203233,7.33634264128421342832098,0.0225770855805225018064775,0.0145019486866795853374779,0.857015665535191706325691,7.10952084047877441719265,3.76151992398814760676373,0.952911669005973571699997,996.303809586479928839253,990.717520055195336681209,991.971367909676246199524,987.306699016160450810276,-449.412205234469013248599,-215.022801019807076272627,-823.25015368908043456031,-565.430701990742591078742,159.735024755241369120995
0.75,0.634284982523935503273549,-0.242741123335091318891088,-0.323995855250489850352125,0.0106608558500565185622744,-0.0516496967905496692785583,0.0168146932996289140416213,0.00533987913048212473748899,0.0164990910057553549772358,0.0547016203485098731484904,0.998351925012651131297048,-0.0558647101013281036085978,0.00534227577899878264267031,7.3053720025990607211952,0.0240354568944316782097559,0.0140367702235953406564306,0.8416563586221628145978,7.10977513766201418832225,3.76151935184820507274139,0.958078123305894480132849,993.516761369096457201522,990.788566815028502787754,987.112211479738334674039,983.575057566951272747247,-492.567499423383196699433,78.1982766793238823765932,-707.377338063306524418294,-617.562857282899472011195,159.739472505113354827699
0.756097560975609761513283,-0.12377710134840087807806,-0.76783960271150064613721,-0.831579261675732372971481,0.0113556989788842627175924,-0.0554184635686209223215393,0.0096921419608509175314115,0.00554226937445200656950917,0.0162450072080682871022983,0.0546784809327091406161436,0.998356204470731811717599,-0.0440691713161046952351718,0.0163493173603930022630415,7.27803580053644250114075,0.0259719697096748580733561,0.0139779176624110802740208,0.826170633408439547551438,7.11005000277894172455717,3.76152682920074266093025,0.963135789101407291390444,990.296888861804518455756,991.671157575674897088902,983.344815006465182705142,979.775444659051913731673,-524.682183094168522075051,49.3270070781349687649708,-456.019685916626542621088,-542.443697198286145066959,159.743512655635555574918
0.762195121951219523026566,-0.626386743131718159993682,-1.05280528132834172438947,-0.775578565711419365413803,0.00593820930025118574185905,-0.063156169493694694350161,0.00189346757927448777585056,0.0056788948836519548626911,0.0159154431649424603356646,0.054679499873866312109616,0.998360688252259320663029,-0.0315363528077356111700702,0.0239340428942240932008723,7.25352978227105094077842,0.0282126550269321610397988,0.0140047451924578455345616,0.810601864834787244618042,7.11036039169419797900673,3.76156478698983498532016,0.968106513054595385625589,987.118198160630981874419,991.390115681835027316993,981.55099579782825003349,976.95989052794777762756,-446.285665977080782340636,-156.075124127010070651522,-101.016130938813745387961,-325.116476427692703055072,159.747145753931562239814
0.768292682926829284539849,-0.604265045771009035036059,-0.971790566724435644907487,-0.413108110019405339041754,0.00124329249399159655169178,-0.0696685130197423341247287,-0.000527929098098784961405616,0.0056885261689612635557789,0.015615327848739250782284,0.0547371343868411769362226,0.998362271251824529016972,-0.0213689508442958808753787,0.0260931078331738328102141,7.23119359307387199464756,0.030452058137376870894375,0.0138963944591673910222696,0.794947519551767900480854,7.11070398118741842097279,3.76163988905925261718721,0.972994812594953684126153,984.854380740132796745456,989.76780240339428473817,982.112910970625989648397,975.810609580665413886891,-318.892736903251886815269,-332.822821152453968807094,210.4416300088680884528,-103.375770810590125847739,159.750108168409241216068
0.774390243902439046053132,-0.218676520206983887595342,-0.673473171977863160897471,-0.0805169819105675810266831,-0.00263758240266668804799299,-0.0748281831369945471532645,-0.000677066786576327331662051,0.0056062111637279017292701,0.0153817835792835738012441,0.0548337608316400507146859,0.998361111973968040622651,-0.0148677196342394679628995,0.0232253177670079941075088,7.21007820684110978248782,0.0325129713261729999529415,0.0135762612736166094623558,0.779194350964302895334868,7.11106455908769152784998,3.76173091569483020180087,0.977796124215503215104661,983.229262344737662715488,987.331300789731926670356,984.117357139399814514036,975.699210396111311638379,-239.707870713356243186354,-404.648061692943315392768,243.244962633600607659901,-44.5168140080208587505695,159.75288135608300876811
0.780487804878048807566415,0.119882885605868835798837,-0.381203235451446797998898,0.0691416888891677183792694,-0.00184178292053438865706616,-0.078133023041479052195335,-0.000337613868459813999504948,0.00549217544932721450645641,0.0151906244743558165727348,0.0549581204128028397160044,0.998357835218141254074453,-0.0119322824044439945723184,0.0166537601509068738936392,7.18931675828205829503759,0.0343752359075015362366301,0.013047298295628416420211,0.763332841529218986131866,7.11143410857106061939703,3.76182050893197938989942,0.982499174999313384937238,981.93111402411625476816,984.833069943724240147276,985.079312953962585197587,975.267721604957841918804,-220.273403185971602624704,-436.587882922685651010397,-134.188424037149502510147,-206.343842778133478077507,159.755190604885484617625
0.786585365853658569079698,-0.0807673304367747951770795,-0.351697170190493291208611,0.0702977404318880783051782,0.00328714603610792297991305,-0.0779636469405937948540242,0.00104159128914642871988061,0.00537890086970294403756476,0.0149698156124767195462866,0.0551162904430611971795528,0.998353018525887758727322,-0.0114328848749466194245628,0.0078161479095469055256018,7.16807835003785864813608,0.0361545521292892801934471,0.0123205920912221964652611,0.747370423918835902199476,7.11179645831816920065194,3.76190213088558778053994,0.987090803257239635115639,980.543001330274591964553,982.007058315065023634816,982.48091294382481919456,973.182822069548706167552,-244.353944886950330328546,-568.38269939247675210936,-677.977304639634780869528,-424.799138213990829626709,159.756936085865390850813
0.792682926829268330592981,-0.588713648846426407246213,-0.569205920954932165223283,0.0968737275789502139122789,6.39934798320159211557643e-06,-0.0799533615189151614099927,0.00137099285379531235853912,0.00534820226955541946911588,0.0146948817257815736447846,0.0552525196099474674715779,0.998349693224962697613023,-0.0126887528648320299651253,-0.000870065389774590802751675,7.14567068031283714191204,0.0379499151705612186580296,0.0115468954679949151187479,0.731321743134119350848721,7.11213457882315402969198,3.76197023990756473921238,0.991579017310029509069125,978.951187866958321137645,977.901573609669640063657,976.811297043723129718273,970.087244309665265973308,-271.326275861936665023677,-801.816349779122674590326,-964.534871398952418530826,-485.302830068425009812927,159.758051377851700181054
0.798780487804878092106264,-0.756840962263241268104252,-0.656238716161923529845978,0.442276212242532162921549,-0.0072334454872349084747496,-0.0864015549452857578582865,0.00028634355584526721303848,0.00541068562872265828439522,0.0144043673163494478917102,0.0552984920491503967321378,0.998351015271671915485285,-0.0162278199718937851669942,-0.00815997757781094373852326,7.12150367782537152550049,0.0397650345027320689661465,0.0107990635700440200384076,0.715179583992094580757737,7.1124622467256504165789,3.76202257952066076995834,0.995967439510944352321076,977.234144307568044496293,972.228810147026933918823,970.718292560910754218639,967.264494873592298063159,-258.35446784035980272165,-954.236523404158447192458,-851.765296988929435428872,-418.8610830052721780703,159.758394028181328394567
0.804878048780487853619547,-0.488297440328873955106559,-0.466724448780464928887568,1.04526320701122799050609,-0.0121904889992401933851429,-0.090127029446437620374688,0.00354204135866281960912105,0.00548165998336986540900861,0.0141138544115950621826716,0.0552777451647187348382495,0.998355940494603744106428,-0.0220877985415746866393327,-0.0145622011859305490466543,7.0954992267363783398082,0.0415864199295497005692823,0.0100324728125096452463483,0.698918644240292485925181,7.11280732476628596572255,3.76205587513161265889039,1.00026618185108717717924,975.800523625002711014531,966.264542836448185880727,966.42391537312641958124,964.979182321796088217525,-172.823615629080990174771,-883.109327494271269642923,-518.942059327520382794319,-362.114528701082576844783,159.757941322681602969169
0.81097560975609761513283,-0.0812512106021327368265972,-0.162769213831088471744479,1.40929865923636699065469,-0.0134975906951300440861363,-0.0912504651710716874202234,0.0131410079701162873372366,0.00545475341197191980480152,0.0139092608687530830402501,0.0552646564519984617724901,0.998359723978758273332801,-0.0315078781979087826914387,-0.0211644549704185364058517,7.06777028263720463741038,0.0432488381583263220564461,0.0091646392671944857527544,0.68248130500684978105852,7.11317543238449800924172,3.76208116903924416618565,1.00447651187318998111664,975.126539238920713614789,961.459184201974835559668,964.389730861794646443741,962.84846403577421369846,-51.6347256940832295413202,-751.833561721208980088704,-261.497063739790064573754,-382.040671460365160783113,159.756755495289610280452
0.817073170731707376646114,0.178737599891346021774297,0.242325547686209286091241,1.24021052378373530800104,-0.0113940995212177161033384,-0.0915647415705488076920204,0.023882591345350905748246,0.00531423643245057964606959,0.0137629293556197421222187,0.0552822843655473225576991,0.998361551181260797882544,-0.043521788878147206480751,-0.0282891431696644934934426,7.03907374529313578648271,0.0447287003168805874508962,0.00820057918139437125315538,0.665822072473121528979334,7.1135633851837098973192,3.76211335855349116030766,1.00859706274388249980234,975.17083184824559793924,957.09584086423831195134,963.234926790933855045296,960.32014974301114307309,40.4420104038763028597714,-622.054543711488236112928,-195.0640844048000985822,-390.385391736159249376215,159.754631111847089641742
0.823170731707317138159397,0.137623884861285794567465,0.679911536820730022512294,0.703781490664557751735231,-0.00883743783681036933208564,-0.089235080673796263184272,0.0291145403983066701492088,0.0051274336986826402062789,0.0136551394163049785029918,0.0553056222113425671738085,0.998362714529054229295468,-0.0570689822158693613185498,-0.0351449056741709522921902,7.01042232457163283498858,0.0459921580017656206340604,0.00722663520506577027047168,0.648903802980211552586809,7.11396594594743092443423,3.76216163564810557318197,1.01261281287325832778379,975.619734487748473839019,953.873153181103020870069,962.01090056417513096676,958.087666575577145522402,24.6380157323558037774092,-356.785864467082205919723,-243.23670472684239030059,-295.998921336777527812956,159.751675055610178333154
0.82926829268292689967268,0.0062247228826261564310629,0.970284600407066211147367,0.126504315348101747940035,-0.0106517537897396884910561,-0.0836822604313688656052506,0.0303924467231113520915287,0.00497061274020359211700537,0.0135387111889332042991008,0.0552919296673059293412145,0.998365831553774896178766,-0.0704015571259926919989169,-0.0408955602593093006658087,6.98306031659300430192161,0.0470779362656451177970851,0.00631994864624234233690947,0.631737909016391485650388,7.11437513991464065554737,3.76221308545203925177702,1.01652125363206979891117,975.471295454737742147699,952.744793736590963817434,960.268625513777237756585,956.710406799879706341017,-172.701551161385253863045,-0.124732637814076841031863,-273.749424563089405637584,-162.611079503473177965134,159.74784692620329451529
0.835365853658536661185963,-0.0810720480079325511724164,0.922081848411195004189267,-0.420867080618726630003579,-0.011014313536505875718019,-0.0758566157821873865430007,0.0301326684810680998916066,0.00491700761702274554559855,0.0133783393689348422544994,0.0552650358042902634103655,0.998369700366335766084092,-0.0819223135978243421906342,-0.0446187667356369305204922,6.9582444161832626150499,0.0480518935617351636291339,0.0055537118723610577608607,0.61436736484218179565886,7.1147723208461677302239,3.76225101935637917804911,1.02031283256626514877041,973.513618010170603156439,953.871632051373580907239,958.672492947552086661744,956.104604630412836741016,-459.252562668297798609274,276.442474371143589451094,-155.748494337179039348484,-86.2797767384605975848899,159.743213548328839124224
0.841463414634146422699246,-0.265464331387009644380726,0.582829217429589818699753,-0.903189331262722272519738,-0.00943067093468332763583906,-0.070982793950833358853636,0.027111009131006672673303,0.00496988486835788119411195,0.013168923002475912617526,0.0552613871631995462463394,0.998372343424239749865023,-0.0905919504466270175679909,-0.0461321197703631058484319,6.93722022653063330466239,0.0489673517780645495278691,0.00491986040550495759560157,0.596849865007106350489607,7.11515355479638600399994,3.76227141693428634994234,1.02397569752979955559624,969.870654446587764141441,956.116043424043937193346,958.369253631616516031499,955.658214400630185991758,-651.188394632463200650818,324.439586782016419874708,96.3706924186386686415062,-127.15540680424410879823,159.738210419647714388702
0.847560975609756073190226,-0.452269692985102778060025,0.184122097994146471933163,-1.2358716216710929902689,-0.0129136145852951338824921,-0.0695989776271549315245224,0.0196959035100940718643336,0.00507311669683676007974737,0.0128914830546267115962689,0.055253278528321660145739,0.99837585212403556766958,-0.0956326997632573616581197,-0.045906801304887098758023,6.92080005234502237954075,0.0498942464474771071869519,0.00433496659226193306602148,0.579229966446283328629363,7.11553371854370375615417,3.76228622610263974124223,1.02753910417468197202595,965.572296124408921969007,957.82821237798350466619,959.847745294120841208496,954.553928937678165311809,-576.978607722481456221431,118.321686219050945965137,344.3964495263040817008,-246.261964481072453736488,159.732036430065562626623
0.853658536585365834703509,-0.340631193643867791198687,-0.0171369102184384322629107,-1.19773774292692736231913,-0.017290823049920599208118,-0.0698490960667112192883366,0.00999961792972060663220457,0.00516903610125930921409543,0.0125888236712722798027464,0.055229557960787101222877,0.998380555025142890634982,-0.0971050708116881211573457,-0.0439438273879422525158844,6.91019733148945292100507,0.0508003466573899303826423,0.00369210080578348748617246,0.561507157153323332998696,7.11592399989759272216361,3.76231129255192353610937,1.03101439867973554420644,962.834329962167316807609,957.558990816959180847334,962.569210333156775050156,952.655019711836644091818,-276.234869934539119640249,-149.296202782623225857606,469.952773368527743969025,-350.682917112547499982611,159.725150719097285900716
0.859756097560975596216792,0.0372895619389772281504492,0.0582369968310194052740769,-0.864040867181916638628536,-0.0176094794528487523510574,-0.0702253794132891573376298,0.00303294380639616530451197,0.0053151882174750112938777,0.0122530432150128321122651,0.0551873753883503209705097,0.998386338838829656694429,-0.0949574972588977106457975,-0.0387060575997755437760439,6.90576481039469314282542,0.0517085200465327229912837,0.00300123743322410537620604,0.543679418180389784076567,7.11632381845879180559677,3.76235656357345549238858,1.03439606345043388913041,962.203578198377954322495,956.007526978195414812944,965.578876676663867328898,950.277307997281241114251,-50.4040530746069208589688,-198.09021341622934642146,455.350492308432706067833,-369.236677973755490711483,159.717545646946291526547
0.865853658536585357730075,0.500624995248581061701998,0.345494594206196936614361,-0.640661382240860222125889,-0.0154390822596845809361321,-0.0698300343890710661920451,0.000485680482756412534774831,0.00550737560040660736188078,0.011925979521940613739539,0.0551444777528873886218719,0.998391695213379781748131,-0.0897105992311895139579292,-0.0290783512172035837894946,6.90842012169439545488103,0.0525872126218055596647005,0.0022103057644036042984903,0.525768554156373357777454,7.11672249389427147292508,3.76241614077294084239611,1.03766432947158526722831,962.219646388086744082102,955.143256507005162347923,968.122265117405959244934,948.15213339508352419216,-58.6633061460460751845858,-6.42534170301700591210192,299.711254378217233806936,-240.698400432591597564169,159.709279688648365436165
0.871951219512195119243358,0.99669421363350119147384,0.65291166876730366563919,-0.746984503566591406809039,-0.0133694796859711619030353,-0.0674968470970589290436337,-0.000908541793853143175331566,0.00570968119713361008799035,0.0116925822589018825470308,0.0550850624581512016142426,0.998396668787675967138284,-0.083021540995746989644033,-0.0149364664160545612681119,6.91806557627197982185407,0.0533823627479308032706129,0.00131961556711515551158775,0.507849601239855674705836,7.11710803688219773022183,3.76246294769862554829842,1.04081633121775496420014,961.488172025865196701488,955.929169152548865895369,969.233891973959202914557,947.341961650542316419887,-195.788718840261992681917,251.611894586565085774055,1.74575540077466784261162,5.25073725750780351262392,159.701035846181781607811
0.878048780487804880756642,1.40624924284653940453893,0.700871940794733805368821,-0.913344362098435391672524,-0.00491450000747666211620146,-0.062266895848905004506868,-0.00665492887049301887203434,0.00587666447135438627102921,0.0115046776774992628999961,0.0550301270303420048124465,0.998400928342283555672054,-0.0747329381861415176224739,0.00322952407167452493208515,6.9345811458678587868576,0.0541843968069199086179388,0.000386527747472766632780283,0.490009110719433205183293,7.11748562508161963791053,3.76247793570279309705029,1.04384604644573264486951,959.831979085156717701466,958.211694245865714947286,968.143554817415406432701,948.216166776272643801349,-239.52704192191598053796,405.430384674902484221093,-367.372214428039228550915,258.764551625005651658284,159.691428217971747471893
0.884146341463414642269925,1.31089668990793661862426,0.168794386152557096547611,-0.614119709290768756027035,0.00715296701664913485430031,-0.0561355804856856210882654,-0.0156542918451154991488217,0.00601144508253859295721089,0.0112845869751516426904292,0.0549934894359770665150933,0.998404637462996569219342,-0.0644058844867335666961594,0.0245826198233159362582789,6.95714978269356443263405,0.0550770443073634249908643,-0.000432783617491422963746706,0.472333688755389169422472,7.11788295628489731114996,3.76246424866702877665148,1.04675365192653768708908,958.567110539012560366245,960.873442136389144252462,964.753743017519695968076,950.497626914261900310521,-65.4466601800338025896053,379.127743608746982317825,-632.987002816790322867746,410.330798159589789975144,159.681133895956918422598
0.890243902439024403783208,0.791960507337640007285984,-0.848238645777312116891267,0.200787448401626766880668,0.0125985558639450500456602,-0.0571360396317933463827821,-0.0188527370512668913937748,0.00609078231201718930942768,0.0110551285383233381665047,0.0549503916226336611150494,0.998409074234216542542697,-0.0530480729350598992355437,0.04702340649447477038958,6.984333660097989060489,0.0560143020223872398211107,-0.00101535305432933712493915,0.454891102836139704646001,7.11829903277727638055694,3.76242982057596853096015,1.04955291655599225464357,959.033849082961182830331,962.83520331426507254946,960.424201124527712636336,953.220200900170084423735,221.050085590439522320594,266.512581644206193232094,-626.146466760451744448801,357.4792979519985465231,159.670096854631140104175
0.896341463414634165296491,0.238730783505005483835504,-1.70349070653786749396374,0.856747304146456500895113,0.0128167470424072754697775,-0.0678764514332215046499286,-0.0116088434876342461166132,0.00606259922450765910417747,0.010830827761916753115834,0.0549227637751700525914345,0.998413189528370437209048,-0.0415099399489694473319723,0.0673931958255258589662873,7.01458673814385491596113,0.0569685208988590791046036,-0.00131018347222142204216988,0.437722654817168599361565,7.11871339885286324999925,3.76238890090463407034349,1.0522587175891042754472,961.262843290115483796399,964.123595571074588406191,957.117810496050765323162,954.857130547822862354224,427.545625712643015958747,230.214357854928067581568,-398.19570539849667056842,73.0183732132831408989659,159.658349152760877132096
0.902439024390243926809774,-0.481288585160102866389309,-1.93046113869746460700583,0.869644596821358528693224,0.0143952804111245787066498,-0.0815287176143573294462286,-0.00398992765972882093561402,0.00592609423853209232174732,0.0106004161076910588534794,0.0549610920918465195583735,0.998414363057199993889412,-0.0302267561253527008990893,0.0831235132124954478882728,7.04595370806476228864312,0.0579516706085982380436405,-0.00134625932310899944915894,0.420812981642826711148331,7.11912570191984617196113,3.76235787071251781554793,1.05487482004040744598683,964.247820128237322023779,965.642695483227612385235,955.568155936741163714032,954.110668866185733349994,428.437604483646566677635,271.124000988763782515889,-175.473540969371555320322,-279.700088373844664602075,159.645840921298116654725
0.908536585365853688323057,-1.59034281110340747211751,-1.67084413543722898332078,0.525438576463835738117325,0.012948976727239736375652,-0.0935266258557666818607146,-0.00153207911804185384525845,0.00573759001150332161034218,0.0103742397560608306389396,0.0550330286276120572708237,0.998413900596009762367089,-0.019939395001072619806326,0.0923680399090507225912106,7.07659190781740221609653,0.0589744665994830427613316,-0.00113981851840460517502618,0.404183280709591086221621,7.11953631292542254982436,3.76234939235298782023165,1.05737662048488179067363,966.487692125281910193735,967.429985827035125112161,954.977889264716964135005,951.446153860336949037446,230.798358077848462244219,200.669946202074982011254,-48.8015756088552308256112,-436.352200910835165359458,159.632615767609138401895
0.91463414634146344983634,-2.47946242342267764158237,-1.34715632804500851094076,0.0866728916908129642937553,-0.00273073476497682609415163,-0.0999835025892703427308206,0.000588635150481624019533355,0.0055760782696638684294288,0.0100977471870829400846237,0.0550951322588101380373082,0.998414211003717300130234,-0.0103234190070203082911782,0.0950966430625217462591081,7.10494101886789408695222,0.0600941515848757989992635,-0.00078634041208707145323431,0.387812328577549381147804,7.11993797448447285347584,3.76236219103361335669433,1.05977040665895949622666,967.062434251137915453,968.089889949106577660132,954.973014770779514037713,948.789300562395055749221,3.34757943029671567458649,-52.4396330296228327938479,120.986504303612377952959,-334.769545720434905433649,159.619748713377418880555
0.920731707317073211349623,-2.61056716029070745577201,-1.14460743884466586983706,-0.481604851108689335781321,-0.0230418667031665885813752,-0.106148825161151483253974,0.000886389856544530195525677,0.00542258536337028411444816,0.00972942464441527155027956,0.055149478940878876587206,0.998415654370640281989324,-0.00137348810160081713505065,0.0903078883772693713494206,7.12966940540141269622154,0.0613415475661786280259236,-0.000462428075176421916198111,0.371689852993641323131158,7.12033717056734083428182,3.76239748330426237998836,1.0620488122728903856995,966.52851626467577261792,966.790478107161675325187,956.453334439151262813539,947.363598424721885749022,-63.9717588660520846133295,-306.848402716844873339141,457.912616768699820113397,-74.433784093899859612975,159.605112344430267512507
0.926829268292682972862906,-2.17558785923395392458701,-0.900847812915379742015887,-0.889595721042340192852294,-0.0361793066875352939404387,-0.114033648816924723656818,-0.00414302723566690143941482,0.00525119654082715787285496,0.00933106852547712153911341,0.0552192032263528476132564,0.998416505385259722693547,0.00572095463684618027455642,0.0785655599058942694101759,7.15026007263420115833696,0.0626382369598727922754833,-0.000317219819309877849172752,0.35575259670800490896525,7.12074845977480119785241,3.76244068398899944583036,1.06424254281862462612196,966.282290850332401532796,964.3478362574377342753,960.557314975275858159875,947.881571488079202936206,83.258126345338425267073,-329.953956354231138448085,880.456485145300234762544,201.413439821068379842472,159.589810674291044279016
