t,ang acc x,ang acc y,ang acc z,ang vel x,ang vel y,ang vel z,quat x,quat y,quat z,quat w,acc x,acc y,acc z,vel x,vel y,vel z,pos x,pos y,pos z,mot 1,mot 2,mot 3,mot 4,dmot 1,dmot 2,dmot 3,dmot 4,vbat
21.8150000000000012789769,1.13977197020280263117797,-0.434579671203594919415281,-0.109942363567655757017327,0.0230160980006381583884423,-0.0114365564696657564386362,0.00134379755897496579696015,-0.00963510671159521249473645,0.00440503538662945400006254,0.999928622627783592058393,-0.00573819658771021132159795,-0.149996314758597149019437,-0.0313408137403515668628629,9.75272248799591068291193,-0.0151595340333259380460884,0.0157662912971818468255147,-0.00230853703710678795704703,-0.136252680490627636755718,1.45711885747247094080592,1.25870788890571549956121,1121.09077721417543216376,1129.40303949592566823412,1139.23694584366376147955,1141.70517605853706299968,171.48564531197507676552,101.900371922895189413794,-662.596844438662628817838,-95.7566119543307223693773,154.164856375370590058083
21.8174999999999990052402,1.05555514617873757998723,-0.479411430181874709255396,-0.254055550729780699192872,0.0254748191874868065709414,-0.0145295264158416901484339,0.00232325584422588037394886,-0.00960606288009160404206543,0.0044210802978842502278245,0.999928286451415626601147,-0.0057471148010994404717322,-0.147130178084299345631081,-0.0306030063416434829071111,9.75771510929375907039685,-0.0153679888272209887178921,0.0155702527494372237881759,-0.00245472604188063173169532,-0.136217477343923976107476,1.45708545730440786059035,1.25870614784837497879266,1121.72422202780876432371,1129.63527117347666717251,1137.36161960437880225072,1141.44303917787419777596,320.045568550967800547369,88.5671357212407883707783,-781.483548174101997574326,-100.488570962190337354514,154.164201650870182902509
21.8200000000000002842171,0.954399942334543616162534,-0.416810907054242008040745,-0.410744852514719760439021,0.0271270581034511633344852,-0.0177039712793728813700067,0.00268587420711113552054816,-0.00958054538429211656469509,0.00445109964765317851070892,0.999927884586221393803385,-0.00575132363580425388926987,-0.143914448110448900397529,-0.0294912856757492750081617,9.76300970449453409116813,-0.0155718152644716348320664,0.0153838340387301084066785,-0.00258910216047668079869526,-0.13618078058884128256345,1.45705092381029199799514,1.25870243876248166792209,1122.69100505692995284335,1129.84587517453178406868,1135.32952810279402910965,1141.20273320372621128627,458.267174455743088401505,84.8172536599598032580616,-791.884290924876609096827,-80.2639906325156005095778,154.163434948141713221048
21.822500000000001563194,0.849449663913298458339796,-0.231813067599925676232075,-0.546068712857989080333709,0.0281183008130507713917545,-0.0199270860284001261053533,0.00105011814233165346604837,-0.00955865010073854610983535,0.00449903456918264010172548,0.999927460586442218293257,-0.00575218366785322857137608,-0.140370625969922224740571,-0.0279629458142139873666476,9.76856999501764988735886,-0.0157668500354117904760365,0.0152063195813713965959257,-0.00271085016420709399437294,-0.136141047298224376893572,1.45701541431045278329748,1.25869739120432089229951,1124.01555790008865187701,1130.0593574417766831175,1133.40219814975239387422,1141.04171922471141442657,648.590119873589969756722,103.879547952076535466404,-752.134781709778053482296,-47.0210741313715416822561,154.162533129590883618221
21.8249999999999992894573,0.721570565739760860779484,0.0887489135857877919910663,-0.632182211267046434421957,0.0293265197380793984915925,-0.020838315031100972107847,-0.00279815478999186854208725,-0.00954233285868183803146714,0.00456664117644462862893873,0.999927032864251885690976,-0.00574978147299866435698812,-0.136565175234082125665935,-0.0260182887314852097360163,9.77435640802743854749224,-0.0159488099028520131927866,0.015036491333257292341008,-0.00281895681978333242923007,-0.136096957341746427339046,1.45697868994298151967826,1.25869237109945242281128,1125.93395565629725751933,1130.36527291429206343309,1131.56885419424588690163,1140.96762783306940036709,743.352035429336524430255,127.691270003358965823281,-554.05073046774418799032,-9.4439694822559125952921,154.161295299346051024258
21.8275000000000005684342,0.600946961255819478431306,0.392467021556032469309372,-0.61893912166824038845192,0.0307809760580058204559872,-0.0201292935113453509698989,-0.00612909943851770375178312,-0.00952370706521921302212252,0.00465518381303717601604752,0.999926657674819918675269,-0.00574362113211565432357997,-0.132380075513057970937325,-0.0236675940292797662434232,9.78033158758291953915887,-0.0161138015240104674752342,0.014872887503056955033065,-0.00291196222701999799659101,-0.136049208315683983760991,1.4569411728314987097832,1.25868746968501765692849,1127.73231807723459496628,1130.69781379179335090157,1130.63194449741422431543,1140.99449937730014426052,739.463619966531041427515,156.945527851677724129331,-233.268856934199703800914,20.6569784239385434432279,154.160134959283141142805
21.8300000000000018474111,0.442511279087779041407913,0.676740187848226759648185,-0.522511237074855583450983,0.032702132710574802199055,-0.0179707038481414747843612,-0.0085460044956401325089157,-0.00950016191573319936092279,0.00475689517381555019431838,0.999926370544586995414704,-0.00573246045511422060159124,-0.127808094437654007347049,-0.0210958040633701660038213,9.78645352651882305394793,-0.0162587532221246285069061,0.0147140644354199316701237,-0.00298817312158004312616644,-0.136000118411785081429244,1.45690331491328795010531,1.25868218213281712891671,1129.63127375613180447544,1131.15000055355085351039,1130.40250990957429166883,1141.07091272518914593093,826.331512887355302154901,232.545228622621721115138,47.4088596577170093837594,28.9811040658663294777853,154.158842555238265958906
21.8324999999999995736744,0.187561433764700691284588,0.939827214873812155637722,-0.347011261597487685737207,0.0349422997143222224813996,-0.0139621668253062658493491,-0.0104357738299610328103206,-0.00947100031901403245637727,0.00486611499849301260695045,0.999926183783566124851916,-0.00571519030470429845181002,-0.122884636179012587953174,-0.0184443504768214590339159,9.79267717289102357369757,-0.0163817161242384851105314,0.0145587274466057320365664,-0.00304590803636598092193899,-0.135950996626690079338573,1.45686524281334883745842,1.2586752909895009278074,1131.86397564167054952122,1131.86053993490622815443,1130.86898879570276221784,1141.13940489762944707763,780.823614166566358107957,288.918445636375679441699,263.293616301605311491585,6.08297713001896322992934,154.157141634099787097512
21.8350000000000008526513,-0.081636614598571813350425,1.06949959886694312416466,-0.188794811127623057833702,0.036059091528587342012635,-0.0100902415059501340127701,-0.0109115277932740600136396,-0.00943943102537053366218878,0.00497559991295062377381075,0.999926062349872246670657,-0.00569514351931981865212462,-0.117725787147839364155111,-0.0158816072903220639744859,9.79895419813138524034457,-0.0164817960808335411959646,0.0144059936573685282851232,-0.00308358113166982451824882,-0.135902522191211766466878,1.45682766461542323455092,1.25866663713149939951563,1133.53539182696385978488,1132.59459278173244456411,1131.71897799108205617813,1141.10132761083923469414,588.209426089196426801209,316.92895682378707533644,385.137956175534213798528,-54.1158006928249619704729,154.155601589334622758543
21.8375000000000021316282,-0.395680779483282285546863,1.10121260151047106745636,-0.0660967997539922275107571,0.0358044530607498773244757,-0.00657009040064380871182248,-0.009949406550332001372694,-0.00941254061284999346548297,0.00507746912570827130251061,0.999925962661543432652422,-0.00567274141125209945685226,-0.112525769255646515554226,-0.0135861749968743186767206,9.80523378038891912922281,-0.0165592878781335092752691,0.0142551772076089239282837,-0.00309994626847393244667428,-0.135854567373522472362168,1.45679093545074711535392,1.25865718927157677065054,1134.80502277211803630053,1133.44518471902597411827,1132.79467857658141838328,1140.86882589416518385406,421.087561675396614191413,385.83717227378144798422,466.205271553692000452429,-163.266847043938213346337,154.15393773100061025616
21.8399999999999998578915,-0.794457311913368657840806,1.04548214805967054630287,-0.000270620993778364349324761,0.0339908673440896327844207,-0.00320373191298820112621337,-0.00794565873073318877650717,-0.00939695081806629292642263,0.00515944840766566475281918,0.999925858156444413715747,-0.0056513387438892120559486,-0.107470846432615216303752,-0.0118194089748625760782907,9.81146560921100885366286,-0.0166154055164972058733497,0.0141059538650393900133251,-0.00309402173768689786256814,-0.135807547347381540880917,1.45675557471651062613205,1.25864746800562254946954,1135.64082963534042391984,1134.52377864310096811096,1134.05000434885005233809,1140.28499337561970605748,169.574061995433197580496,391.16807978456159844427,419.595959285690526030521,-267.07463129633509879568,154.151802669223286557099
21.8425000000000011368684,-1.12149815900032101545492,0.943220575760085666594534,-0.0215430753184695893132083,0.0314248821676728837259951,-0.0011951481045296061516553,-0.0065882079503639954035088,-0.00939412162752211420124748,0.00521213210931618584065284,0.999925795959509589039271,-0.00562796334626219224572807,-0.102644336993942805746904,-0.010785645708539536025139,9.81760219086681296118968,-0.0166524169106109405646965,0.0139578974970197364907643,-0.00306522235604323855379105,-0.13576245018833082989218,1.45672128931044952970808,1.25863767135454485135426,1135.65289308209503360558,1135.40102511794839301729,1134.89265837300945349853,1139.53345273768377410306,-142.512590826328221282893,331.862495440166298976692,269.007247531325333511631,-343.651319087916988337383,154.149912023767541313646
21.8449999999999988631316,-1.41855880372301146330472,0.808350830597570513269545,-0.105559688404098656056007,0.0280700317643406346834745,0.000228963009427198303314191,-0.00620813412751156958047094,-0.00939495678713828802353092,0.00523889778527772062566292,0.999925853748672044396528,-0.00559942814207847749941038,-0.0979181534658378899260711,-0.0104359896238823135483642,9.82360089426889793173814,-0.0166732493440177910459798,0.0138104962244624488582057,-0.00301347662041305097008204,-0.135719889812577099164059,1.45668778031975976183787,1.258627567554810866568,1134.92826668120892463776,1136.18309112030146934558,1135.39504058650641127315,1138.56673678018046302896,-396.416724536935987543984,291.107542341809391928109,137.409223788272413457889,-403.121234808657561643486,154.147911018099421198713
21.8475000000000001421085,-1.67635694292028403218353,0.659086949986552927960304,-0.216867936696092167281336,0.0242237078588749508989419,0.00149228768652489326811128,-0.00680787201111518209400986,-0.00939423387014052223287219,0.00524852958077577126660973,0.999926022557217408781582,-0.0055669837027110570526478,-0.0932359294725031567674378,-0.0106098756287303433443192,9.82941930708602029653775,-0.0166809297212832836898588,0.0136632601021285365189284,-0.00293952007417233205852081,-0.135679514569300024851017,1.4566547867196280030555,1.25861770051062382691498,1133.67080945941074787697,1136.85656282965715035971,1135.57970449195067885739,1137.51784656364088732516,-590.047231516535362061404,243.313367302574192763132,0.820114094494364231913153,-406.883610537735080470156,154.145822910539408212571
21.8500000000000014210855,-1.87311571668428378245608,0.499162864120784366406269,-0.328906431831288981193495,0.0197828501838846378124703,0.00292749949229493622651632,-0.00841306057639009015336473,-0.00938912318729967672326087,0.00525187100023050395386504,0.999926262994058179245371,-0.00553254989586775096366278,-0.0885839310462754464525759,-0.0111015925332913004131008,9.83501737592540692389775,-0.0166783463042661193875826,0.0135155718983099373819989,-0.00284477204226173596354754,-0.135640367056924004973695,1.45662208775411383676612,1.25860762786587399020277,1131.97803052362473863468,1137.39965795681496274483,1135.39914115697888519207,1136.53231872749074682361,-773.188463817331580685277,213.915339330011903484774,-149.246961977389815956485,-371.431614101476270661806,154.143635676024302938458
21.8524999999999991473487,-2.02452561562279775841944,0.300169201697026544195523,-0.434974026789735734865872,0.0140344590586079544236586,0.00498719631256908362687552,-0.0105181683544241805911001,-0.00938137391852993801633076,0.00525080791750285810759458,0.999926532040180449101285,-0.0055000615801895384390785,-0.0840354708918542164797216,-0.011876479004265264038942,9.8403585335275884915518,-0.0166679375846836216878977,0.0133667781322418331019231,-0.00273114002724082240158854,-0.135602002764956042213385,1.45658994560130872208958,1.25859749016317512548824,1129.804867140324859065,1137.92613952630699714064,1134.83346968206387828104,1135.66068849313387545408,-763.824793941982647993427,174.348510136804293324531,-251.128986049393404300645,-234.16109148706820519692,154.140904756398526842531
21.8550000000000004263256,-2.07212105204296959115595,0.138202161072584650547412,-0.491029383540917407913184,0.00915452868482419766793523,0.00639463057208694302807617,-0.0118980343894126618792262,-0.00937896874263275358296621,0.00524129013430347807239729,0.99992677685766495621067,-0.00547049484172444297480631,-0.0797835801201495081746984,-0.0130126398885722568965484,9.84540995374155158970098,-0.0166516521163605248079254,0.013215988132927677239925,-0.00260119902023870112547921,-0.135564667015917433845473,1.4565582056974424318696,1.25858857552697611659198,1128.15890655391558539122,1138.27140050749881083902,1134.1434962267321679974,1135.36151327005563871353,-564.016196839141002783435,114.086329718371260355525,-302.019355783959440486797,0.540715850274587683799155,154.138547092046962916356
21.8575000000000017053026,-2.02984325654239361469422,0.00552191323631346514533291,-0.51263486494834098472495,0.003959985115421331414165,0.00636553180936185077076761,-0.0129919328816568719481284,-0.00938653510901000555366469,0.00522319443517121461545427,0.999926967080716488922576,-0.00544283746037801594019889,-0.0759519823203766569763573,-0.0145076066331542713472302,9.85014615711251551033456,-0.0166308291094721776015586,0.0130620494309616596434465,-0.00245807415837853400833457,-0.135528547710560137717906,1.45652625202597518772052,1.25858182795441564394423,1126.98478615612771136512,1138.49657117489914526232,1133.32337290314330857655,1135.66339207238524977583,-359.346013535267616134661,55.6633173213978622584364,-366.195778529008862278715,288.984604569726059253298,154.13611296674699246978
21.8599999999999994315658,-1.86892881830029189416109,-0.0836217337472362765016243,-0.499763156601538360845893,-0.00247965536853401438341371,0.00479794893354807371055326,-0.0143718109694203517723299,-0.0094116056314078669342571,0.00519257229646567786129907,0.999927073203097593889765,-0.00541432012020890123665806,-0.0727199297821353868309657,-0.0164302116503294293181625,9.85454746417211424613924,-0.0166060104321958182382879,0.0129036354288709232546184,-0.00230523363564759994209785,-0.135492782972127606688773,1.45649417306788975245979,1.25857808526377734636981,1126.36217648623960485565,1138.54971709410574476351,1132.31251733408748805232,1136.80643629290398166631,-81.6899814323440978114377,-31.9446281166228693848552,-355.697482188841433980997,544.669393301700552001421,154.133114024756594062637
21.8625000000000007105427,-1.64564732589480944291438,-0.082948085982158678564069,-0.456271295911721663784988,-0.00742233550972071914886286,0.00313611600550791486119451,-0.0156554838535402050803125,-0.00945222089665061215857378,0.00515612033350045483037771,0.999927086306073298338504,-0.00538279533627549801322321,-0.0700772572692091449964025,-0.0186364426049637071924892,9.85860339679259034539882,-0.0165768458555534091425354,0.0127393454452819979150213,-0.0021461174107979793038159,-0.135455795100359349669716,1.45646200626570365699308,1.25857673220601706809418,1126.57633624896607216215,1138.33684803431606269442,1131.54488549219945525692,1138.38673903889321081806,231.329714282692179949663,-155.099594971045689817402,-268.334652328484537520126,734.920655216034560908156,154.130557291271969688751
21.8650000000000019895197,-1.34490532309794663667901,-0.00706648766349021045796164,-0.378796313968100595293009,-0.0114011834338891299839291,0.00199756052149382360566543,-0.0168212034049877584562793,-0.00950367406086667122766531,0.00511969839985164983792165,0.999927003324779573034675,-0.00535033950251391759306285,-0.0679592265428801273197124,-0.0209945764184074658287305,9.86231046640941144687531,-0.0165420485955141520484357,0.0125679652651835491172783,-0.00198371222668890668378028,-0.135416802508254774384255,1.45642987442645766016369,1.25857759071083563640059,1127.51882505765365749539,1137.77421911925011954736,1130.97084407244437898044,1140.48103956898603428272,547.46780217485115827003,-337.258492568183783077984,-183.585945228824272135171,984.419425253386521035281,154.127948988780417494127
21.8674999999999997157829,-0.924174019821043968292429,0.141865248727499781988826,-0.249800415181641644046806,-0.0147658903981715411424247,0.00173931241514824674529449,-0.0179955978420045584198483,-0.00956063366751530412102067,0.00509028104959506275117853,0.999926835519442058775041,-0.00531665689077767678050179,-0.0662883919271871763223558,-0.0233480225514536773867569,9.86567059639590837605283,-0.0164998103713328431174645,0.0123883192897496479528696,-0.00182037874306717906841557,-0.135375230633310000838421,1.45639746037147044255278,1.2585800824444450807249,1129.31367525983978339355,1136.6505555714754791552,1130.62695576605551650573,1143.30883616515916401113,729.109554830628894706024,-481.515714113543538132944,-54.5544265286134191228484,1039.1899710510890599835,154.124768232528197131614
21.8700000000000009947598,-0.549099577791999249321009,0.283162894259303854482823,-0.117406737677341679870757,-0.0163933082481341717284717,0.00257699248466930095832761,-0.0188347195163794701999738,-0.00962034566996387320580997,0.00506700043934888832292129,0.999926588740672084298922,-0.00528521453354513677524995,-0.0650392693420507456147917,-0.0256914083389462623296939,9.86868941512220487766172,-0.0164480040637176826157084,0.0121995863157011025235121,-0.00165752462015484659275943,-0.135331151119687048689499,1.45636549314686059020119,1.25858269673146305756006,1131.1643728318060766469,1135.3666405486828807625,1130.69807193980136617029,1145.67698942424044616928,758.192654506334179131954,-562.470860149344844103325,112.761968054678320072526,890.268792288038412152673,154.122081242426730796069
21.8724999999999987210231,-0.178163837651184348009892,0.405298736724821639931804,0.0296766955636345031166456,-0.0168712789224215106709259,0.00440868900951698824974834,-0.019306919282457566527933,-0.00968000635802319236988822,0.00504872189032892684096288,0.999926288850269240349178,-0.00525666932976431681978635,-0.0641851888872741888070195,-0.0280231744291584254635818,9.87137554636009362241111,-0.0163847537888025147900795,0.0120011063881686093346435,-0.00149564753261985849616678,-0.135285726030425462740325,1.45633401347524471525219,1.25858475745344744467502,1133.10463853237069997704,1133.83820127072931427392,1131.19076560632879591139,1147.76018012659847045143,748.798097163274860577076,-622.63045717517002231034,267.83948258135620790199,750.244876886621682388068,154.119363085387988121511
21.875,0.170405716542252422263104,0.491902850639203581550873,0.175814491449204218787017,-0.0164370728203021079782964,0.00672472719044236045410345,-0.0192944441376548675437519,-0.00973469400725742936564266,0.00503880228914558355585163,0.999925975226982677313003,-0.00522925607366153590710445,-0.0636562690379083168101815,-0.0302524363650925783020273,9.87373991674573758814404,-0.0163087377728579688285215,0.0117924053644998996087656,-0.00133445730798941657006818,-0.135239756946577749374683,1.45630230492470924552606,1.25858672879986954740161,1134.908363317621706301,1132.25348826280765024421,1132.03726935270788089838,1149.42821380867280822713,644.016528966256146304659,-603.088174683089846439543,415.357075163607419199252,543.512003247582697440521,154.116623591666183301641
21.8775000000000012789769,0.475383127351451217901257,0.52887627014125027091751,0.300483270645854005920228,-0.0151898099713688883999341,0.00889395874901020844216504,-0.0185721794686506055938047,-0.00978046182853318374350593,0.00504080219646809140482402,0.999925664899023125542499,-0.00520409217905534737802498,-0.063400191569567734828361,-0.0322833045188485670551337,9.87579379328277617844378,-0.0162192366029790639714303,0.0115734431213216117095843,-0.00117297772067639634145653,-0.135193405322880461083557,1.45627035560377549039401,1.2585887280415486433327,1136.32472117720362803084,1130.82276039731232231134,1133.26755098214789541089,1150.47774014283777432865,490.582052377528555098252,-536.917185806548786786152,606.901162369588519140962,319.830613493577345707308,154.113863352288433361537
21.8799999999999990052402,0.778419554085436837809198,0.528127833173349436890476,0.398777766523985777169514,-0.0130383355412480549107013,0.0106205269038485514837555,-0.0168597192614868135462913,-0.00981306947941261963064274,0.00505822142234300595187158,0.999925375881788869314448,-0.00518320764855456726089011,-0.0633557174915515691759893,-0.0340213494810446340221866,9.877548288657884256736,-0.0161163054844870833048898,0.0113446484281337165583858,-0.00100959481840053955439829,-0.13514629293595797898675,1.45623886431687599163354,1.25858927678805154748432,1137.36127357950886107574,1129.56890233377544063842,1135.07177516455521981698,1151.02736687614037691674,250.694439938438193848924,-349.211877032236202467175,691.908687880824231797305,104.988262754225587514156,154.110533042592123820214
21.8825000000000002842171,0.974443247783329247191375,0.506696404652057341699845,0.42371578297934786583312,-0.0107594010340607785375378,0.0112638370470607308143629,-0.0148913536380184535756754,-0.00983311964050508947876583,0.00508459671079643325125597,0.999925122511939878933163,-0.00516934452512250470351818,-0.0635535714239146704018779,-0.0355695565235522731528661,9.87901222200265749506798,-0.0160009016238315815439108,0.0111069722914707638694587,-0.000842202804007976526742829,-0.135098207299816058801767,1.45620932328914021169908,1.25858683770523116507434,1137.57819337689556959958,1129.07670101215148861229,1136.72709442155132819607,1151.00268145660879781644,-53.7582966049010408937647,-59.5496304394750950450543,658.53508257203395714896,-69.8126935540683319914024,154.107746957166114043503
21.885000000000001563194,1.11101958825424174115426,0.480120439463973536220465,0.385698706865497786822061,-0.00819519515909763671124288,0.0115129042033484136481336,-0.012951836356478368950107,-0.00984634921050746118875718,0.0051092124182765775650128,0.999924910667008948195189,-0.00516101807403269823015801,-0.0641195567368356839077492,-0.037116906661509990739134,9.88019153821146822735955,-0.0158751469545699817886852,0.0108616097699549586652612,-0.000668743709341250089361886,-0.135050613050170131845817,1.45618215801150507893169,1.25858173631249004031929,1137.09248209648421834572,1129.27115418157791282283,1138.36445057741707387322,1150.67830340836985669739,-361.174678689375468820799,244.247042028931389268109,671.814238927433507342357,-165.355287234921121353182,154.104954567218442207377
21.8874999999999992894573,1.20800584840169245026686,0.445459278093521149344269,0.283317847458916416414354,-0.00494127877000562383547067,0.0119436655000724149117142,-0.0115063683828555054361464,-0.0098564748849007885467266,0.00512730911889115303220477,0.999924732273416827510459,-0.00515728882579989580253743,-0.0651308590452258501235505,-0.0387371963107970562756321,9.88109162499184989769674,-0.0157422803946930187080078,0.0106099204698941271957091,-0.000487675388519629739430411,-0.135005354045304198917776,1.45615670982262246369032,1.25857471194870340625016,1135.77231998344905150589,1130.29793622229590255301,1140.08616561618782725418,1150.17590502043435662927,-580.708813666048627055716,490.801678077384508469549,558.654734012290873579332,-178.469325335517197572699,154.101602073644414758746
21.8900000000000005684342,1.23430553875502968530498,0.404761173850450350908403,0.171968561366045186167284,-0.00206340887202464745228681,0.0129206248146170460389115,-0.0110588137313576678061322,-0.00986778560168634702454149,0.00513461712090164997673858,0.999924579157264736828381,-0.00515582798847232307015709,-0.0666661892367228364753018,-0.0404973313805487150629503,9.88171711855510537247937,-0.0156065359355334071916888,0.0103531621059194181566632,-0.000298327510324496560437102,-0.134962700352072945131354,1.45613238446281090254786,1.25856762625826790191752,1134.18893802815455273958,1131.72516257196434708021,1141.15772424747797231248,1149.7859567816924482031,-686.271218616651822230779,649.566564384199068626913,318.831892601265906250774,-136.25124583629562380338,154.098811076022684574127
21.8925000000000018474111,1.20456916356743848339761,0.333745390303871292125848,0.0612898761995489399501125,0.000821346350234565666589837,0.014490082752408406027711,-0.0110714734658974613135118,-0.00988187049545229123648227,0.00513226479158158683385738,0.999924448915224806100355,-0.00515294968152209958978105,-0.0687395111479118386954568,-0.042360781623799220740878,9.8820737755426097947975,-0.0154728328929908121036618,0.0100923700536870320637606,-0.000101100448134611834469059,-0.134922299068969492319425,1.45610821241913845902616,1.25856217407827908338902,1132.34096389036403706996,1133.54576904421855942928,1141.68032507919497220428,1149.49464879125252991798,-806.700223883286980708363,830.445780623069026660232,73.5996983721325648275524,-106.971839034598275475219,154.096027800615559044672
21.8949999999999995736744,1.10400525353461875788241,0.199292050180489288546681,-0.0426764661687213942009578,0.0039595338247658505570481,0.016223458875258861544566,-0.0115064490888107245902816,-0.00989405814405907094166714,0.00511998377063022352267962,0.99992439008076738904407,-0.00514855118980832738434517,-0.0712302257959657875163728,-0.0443215110243225587915994,9.8821707964037237559296,-0.0153463488941821234179397,0.00982851139838138501692022,0.000102830705643328928111831,-0.1348842652772676009576,1.45608394847717659281727,1.25855915429744102951304,1130.15543690873892046511,1135.87739147507886627864,1141.52572273933856195072,1149.25109758651956326503,-745.775019673613428494718,832.801642467513488554687,-197.107484714563838679169,-79.7950607588222311505888,154.092702435277971062533
21.8975000000000008526513,0.964770812172925928962286,0.0463331917678001248273034,-0.0894138856535094950217513,0.00644790333652202774655793,0.0172459132295674638646332,-0.0121809725409915223931501,-0.00989825818936145886139943,0.0050985861312562129332715,0.999924455434829217992387,-0.00514395617188409190467802,-0.0739784827740112144178752,-0.0463546378147246806999959,9.88202022368910171223888,-0.015232252798486426229041,0.00956249359677633845033817,0.000311531516887329903639503,-0.13484861113308643787434,1.45605985241501167948286,1.25855824865641885423884,1128.6120887919967117341,1137.70977725655529866344,1140.69478765562234912068,1149.09567348745849812985,-507.826968143958197288157,663.796948879577598745527,-471.915284459041288300796,-62.346757685795573422638,154.089947545251504834596
21.9000000000000021316282,0.765198178221409119892371,-0.136329792093535018260297,-0.0833712136925731789327543,0.00914501131001665273911883,0.0176106219270272708332659,-0.0130162625649911344039023,-0.0098921843860805269699199,0.00506870480064952264043221,0.999924641998233276751762,-0.00514469874294687466026454,-0.0768895337027856035083673,-0.0484400463728016650311048,9.8816359461709275535668,-0.0151353393488921923043522,0.00929532745421077742642435,0.000522454439881730862450804,-0.13481589519734349380542,1.45603696185903630500036,1.25855989890292918609305,1127.61630206801783060655,1139.19637621947845218529,1139.16614631704214843921,1148.9393637980904259166,-271.755744203036954331765,544.764799996500300949265,-800.535463698111129815516,-71.0979721389463037439782,154.087214328542756902607
21.9024999999999998578915,0.459759982596165905910368,-0.36248779919001211657914,-0.0140540079712507398612686,0.0122344224322718103659113,0.0169093183830204482620552,-0.0140447400632183194701952,-0.00988046865962092547841511,0.00503043620559159073563071,0.999924881633916573520082,-0.00515623840334534025431346,-0.0799961844430873564304463,-0.0505693615422210876464426,9.88103299702062898290933,-0.0150597655186867837584508,0.00902798493756687761568891,0.000732658227466442346989539,-0.134786345957994102562338,1.45601597210025301976088,1.25856446917579800626186,1127.2533100709817972529,1140.43360125653725845041,1136.6921103371325898479,1148.74018362676383731014,15.9547544604297311110486,361.594832451809566009615,-973.028169766815040020447,-66.4958073480780029740345,154.083964723577935274079
21.9050000000000011368684,0.165500436331159295200166,-0.533304959619807950055304,0.0866313373927109636740695,0.0139854196599379435039801,0.0153165613983765203781617,-0.0145615009738131340882861,-0.00986735430464632211344789,0.00499172157769081550199308,0.999925098566689096735161,-0.00517817720729193010226199,-0.0833146812350180759887408,-0.0525815948002000960181945,9.88023036706775670268144,-0.0150087415941193465240833,0.00876112950276704965935082,0.00093923096928734471459943,-0.134758991191434529532955,1.45599630743118280129522,1.25857144967263856472073,1127.69607584031996339036,1141.00435038173714019649,1134.30100546820904128253,1148.60688476135010205326,318.64392539820954652896,154.133380612651052388173,-961.636144704753291989618,-26.1266779449267367851917,154.081285408863521979583
21.9074999999999988631316,-0.134482780526422485145588,-0.662360614778756628950873,0.210323008744866646324567,0.0141564944477579751636043,0.013031116864378645622824,-0.0143544024322474553234663,-0.00985524982267968301108407,0.00496008149629153290843808,0.99992525028365530914698,-0.00520807000282996410134295,-0.0868195644748606804030899,-0.0543256964844979622908383,9.87925141086412850199849,-0.0149840966052365350685838,0.0084950950380125577615642,0.0011398183047857770363448,-0.1347319315732516120665,1.45597769106387975313055,1.25857979859057445004566,1128.84652969797252808348,1141.20426815960036037723,1131.88392961360978006269,1148.60955023703922961431,549.232947999116845494427,45.1663255117272299798969,-917.995138295601236677612,42.3363793973833324457701,154.07863965515173276799
21.9100000000000001421085,-0.404979140540368376388614,-0.747752021362043328700508,0.332068112920361480089326,0.012836568557713376806384,0.0107770574484708347301476,-0.0135421550810964023275895,-0.0098407077966531780743864,0.00494516736020123460343401,0.999925355342130672831047,-0.00524095054226084589715784,-0.0903664487976420655046539,-0.0556102178755672124643716,9.87812505192760781369543,-0.0149861041176174367151042,0.00822979876291738896010308,0.00133291048654293471480148,-0.134703719975964614219421,1.45595946602413839343626,1.25858829954788586924508,1130.44224058031500135257,1141.23018200929573140456,1129.71102977673194800445,1148.81856665833697661583,695.056258585063005739357,2.04774483754485858710837,-746.873144414239391153387,153.103446048875298401981,154.076024291750087513719
21.9125000000000014210855,-0.602660990942338603559847,-0.780145652267414724256867,0.426214322197800310476623,0.0101454698366293342287614,0.00894915091756176214743412,-0.0121001517156972097921663,-0.00982124841292866639086423,0.00495036218933276195991455,0.999925439084914380316604,-0.00527457995898437514287194,-0.0938310103173552595423601,-0.0563671583722067659483201,9.87688246189220819815091,-0.015013474837553563573378,0.00796486149495304052159383,0.00151780832161144889173865,-0.134673114275523697624948,1.45594149912392367696157,1.25859532873525958862615,1132.32181099089962117432,1141.21450688378808990819,1128.14956389153667259961,1149.37506746728399775748,819.342764748607123692636,15.1364723539275569663687,-476.807392955747047835757,338.604752107061415244971,154.073448360645272714464
21.9149999999999991473487,-0.729663553862768710089881,-0.762315631749478583856217,0.482038877182154434919426,0.0063635038868450951449196,0.0067932614881031682177448,-0.00995247411264258904917135,-0.00979789015372340560405817,0.00497464916806028382978422,0.999925535964506173591815,-0.00530251279417101682028823,-0.0971605343823492145771681,-0.0566155941333001400117553,9.87555522598242419007875,-0.0150637445287680696998089,0.00769944901667401430250814,0.00169433449327657977001582,-0.1346395495579857659596,1.45592291200555168373398,1.25860081562006298483425,1134.53895440405722183641,1141.30586437106535413477,1127.32699281195368712361,1150.5115904188719468948,757.211293378591676628275,61.2573404980261315699863,-93.5169874657462543154907,492.574482595507788573741,154.070406047114715875068
21.9175000000000004263256,-0.745893262596729722524458,-0.703172096955800185469343,0.4711624561997616034148,0.0035791420036867960946525,0.00478207914553622440850811,-0.0080087470185787965754054,-0.00977562915751119775042977,0.00501412339823889725842765,0.999925637591763338818396,-0.00532117214361441971670619,-0.100386292326142059772032,-0.0564300151647245742947412,9.87417425118325553512477,-0.0151335465389492301868657,0.00743261708938891627745926,0.00186250621173044013899334,-0.134603479520240265632225,1.45590333707564756338115,1.25860605968653627151355,1136.10786745779182638216,1141.520793586278159637,1127.68197895420803433808,1151.83793988026104671007,527.752046096705385025416,108.134921232830649273637,368.102240730143364544347,592.116825172449239289563,154.067913536173449529088
21.9200000000000017053026,-0.693316630589115412419687,-0.603199106641800653072494,0.40164402941394344859205,0.00167347767281023312828381,0.00285379883092659342863628,-0.00613431111615286416699488,-0.00976592423345765126008189,0.00505699958826113116910905,0.999925672831672440743489,-0.0053307445563767650795195,-0.103675021594471131192172,-0.0560381273308761182483373,9.87276778330317661414028,-0.0152190163377639593039747,0.00716352308049229054981444,0.00202232665235054908520196,-0.134565191537139638988663,1.45588359695335989307807,1.25861296828896751520688,1137.17771463454209879274,1141.84653897722978399543,1129.16750401560534555756,1153.47217454473570796836,338.465195677439680821408,141.899850479995649266129,883.567148597551977218245,756.317950234338695736369,154.06546757728483498795
21.9224999999999994315658,-0.591463923549397807555295,-0.448496081463022888691228,0.268839339563855861392483,0.000359206832560437247601343,0.00109307500472998245753808,-0.00434080117423272029975045,-0.00976763412116416450403644,0.00510003239804312016869581,0.999925630271187859676729,-0.00533076882974459296399283,-0.106951526143204342367277,-0.055499361604111341339518,9.87136887910005356161491,-0.0153161298054291759862533,0.00689154607477720018704481,0.00217413768463377721912311,-0.134524915724529403604492,1.4558644767979045386852,1.25862152685456818446141,1137.80019343617868798901,1142.23029283867799676955,1132.09981469719491542492,1155.61952963143198758189,128.426093689702696565291,112.185694959247982183115,1215.36962437709530604479,788.642563658297603979008,154.062588402593917180639
21.9250000000000007105427,-0.502237122305692396118104,-0.303802619956321240390906,0.141202140444957047193952,-0.000149627329453917728594933,0.000173883279764766151415101,-0.00345159341994510926454609,-0.00977535521701167892105744,0.00514090499746910293416002,0.9999255318594160168999,-0.0053225011855427264637064,-0.110065253592559961215436,-0.0548540473450080251494043,9.87001145402197721523407,-0.0154209916744776319441623,0.00661641084727064999332358,0.00231864930577204862369167,-0.134482875326602996368663,1.45584681070164845273496,1.25863082766688583191694,1137.81984510299048451998,1142.40746745202591228008,1135.2443521374896135967,1157.41538736302641154907,-61.6267089748046927866199,8.88701686580589189645707,1316.17540155963047254772,683.919531764891189595801,154.060237075482973523322
21.9275000000000019895197,-0.431258728064665863843885,-0.160217727406322174577014,0.0336749123987251583467462,-0.000383032947818114197398309,-0.000241632030103611911402844,-0.00350860143358169796964918,-0.00978206882205551186970638,0.00518405242855872906010406,0.999925421381065437920199,-0.00530727210613310320524993,-0.112842023723822196257238,-0.0540088235654589757239741,9.86872878141115705830089,-0.0155301246873676308812851,0.00633813241047432446295673,0.00245689357470351863940716,-0.134439556727636994049035,1.45583046311712660525473,1.25863918208026159817337,1137.49205989130450689117,1142.27472792300704895752,1138.68069170499643405492,1159.0391272902581931703,-171.151726349296438911551,-154.120485199458670422246,1465.33437592394921011874,639.839753491733063128777,154.057936884375948238812
21.9299999999999997157829,-0.375902104982587859094423,-0.00828377768036121092665169,-0.0271854046855971170915112,-0.000714562186834687878070338,-0.000281426178860410950745286,-0.00483754360969104995476853,-0.00978433684602073895641983,0.00522710178528078620030506,0.999925338912129313406751,-0.00528604296732330947161671,-0.115187725319606790175264,-0.0530043173034969103407654,9.86755045421454113352411,-0.015640695769403974157985,0.00605683733961770009307513,0.00259017940120604729659082,-0.134395689796777934033045,1.45581574347812359171428,1.25864640363926749699885,1136.96408647124417257146,1141.63686502602877226309,1142.57102401710790218203,1160.61458613048444021842,-179.174420225435085285426,-314.725100620006628560077,1311.36008366205419406469,498.664147401094908218511,154.05523698911176211368
21.9325000000000009947598,-0.350030113000284359703329,0.0894269390865692487269101,0.0020953311900615187966801,-0.00125734986578157344021267,9.3247750148431799092101e-08,-0.00671484933392898792475778,-0.00978506533071865983175464,0.00525771554484279896035659,0.999925280047788911375051,-0.00526109566722880207800817,-0.117142730672523523449691,-0.0520771323401279448428447,9.8665006730718438632266,-0.0157506150516791183779919,0.005772668976396385515093,0.00271983265565328138566037,-0.1343518810716383404813,1.45580241591298875647453,1.25865322877077323582284,1136.59618779017750966887,1140.70110241990732902195,1145.23749212330540103721,1161.53244802726317175257,-103.278787503288725702077,-435.778732997592044284829,880.908461496567497306387,277.937239952835454914748,154.053038035174353126422
21.9349999999999987210231,-0.331358083664335889562125,0.145908088122283563503601,0.117431506811951524849036,-0.00224419033733614433495651,0.000560297967831281228806573,-0.00842803628000871052350362,-0.00978125171781033843354525,0.00527052458614541037562606,0.999925266409206647821861,-0.00523393750506421888413211,-0.118637219601194623952445,-0.0513278737040181454176491,9.8656035919817597346082,-0.0158585003654774479853184,0.00548570957909754602921382,0.0028471965722954074330675,-0.134308297954501942861327,1.4557890047852599657574,1.25865948433139918094525,1136.44769253372783168743,1139.45797136104124547273,1146.97556632458986314305,1162.00427233024834094977,-17.6742993348433330424996,-515.529949156109751129407,517.026489328521279276174,117.773195574068964219805,154.050892551915438843935
21.9375,-0.307052954901517738406369,0.162638888215598548248053,0.283224352159918091320634,-0.00359430894020089158544251,0.00131374759270176427912447,-0.00898496863632914158359632,-0.00977552786255268986448375,0.00526407940567361065653529,0.999925300572751307726094,-0.00520806346377035087047425,-0.11971865480015712879247,-0.0507801049192824413558434,9.86487808121557030460735,-0.0159636468604324871511935,0.00519606766436446487755774,0.00297319668696392758189262,-0.134265287579556136243752,1.45577495168071635589513,1.25866608145409952790317,1136.50781629350331058959,1138.12345267412729299394,1147.82262456994749300065,1162.12131400513339940517,61.9086262409975276455043,-505.980373984280390686763,126.445108148963186067704,-29.7814711161965952612718,154.048791672420350096218
21.9400000000000012789769,-0.267756984231654227013308,0.129694838059857958656451,0.463193285161224987955819,-0.00509437800915415149594079,0.00218206359939600432959472,-0.00764787859849945690637885,-0.00976912972872896571974177,0.0052431445121726349620217,0.99992539065974228584821,-0.00518241380809602875806563,-0.120411109631444815382117,-0.0503380884828408814435363,9.86434080295837034668693,-0.0160659511313289773970503,0.00490384340748429691653199,0.00309849052902535799375316,-0.134223292397758237060046,1.45575992386371511067011,1.25867335260788792972164,1136.75723566493297767011,1136.92806949111854919465,1147.60779186533500251244,1161.85536497466728178551,122.807859533556310793756,-433.722284260552328305494,-303.183524577312994097156,-191.978174635680261417292,154.046744751143933171988
21.9424999999999990052402,-0.206579713519666197107938,0.0393667687414254105493505,0.631448153362275110822566,-0.00621779135564912849298835,0.00298827511592798149633876,-0.0046275522868148401614552,-0.00976451746063376410655898,0.00521331824025084936830021,0.99992550923498602077899,-0.00515755434754560856958072,-0.120767367928879695848643,-0.0498918509750862493312695,9.86400505884784273291643,-0.0161656956107495940189178,0.00460951868988163614149212,0.00322346981826690179295802,-0.13418241367813044107038,1.4557444348520052201934,1.25868124805111314401529,1137.12185559117097000126,1135.95484125282496279397,1146.30670694706122958451,1161.16142313195518909197,120.109760618539695542495,-251.069414212592988633332,-607.467976857999815365474,-305.778129588240403791133,154.044351123101819212025
21.9450000000000002842171,-0.154772568386616321545191,-0.0664880004311212552403632,0.696720887271682798314032,-0.00613359243067963365997342,0.00305062319743693933019046,-0.00171670088738955423958432,-0.00975760542660173216256148,0.00518057078077211081990061,0.999925679810555245730086,-0.00513459944002838796633936,-0.120714826852076004271019,-0.0493280078395989807216182,9.86388436554369185671476,-0.0162633148961551822486715,0.00431413337178276467404059,0.00334856041607317720526504,-0.134142426845202888952002,1.45572924477779941376809,1.25868906089154086735959,1137.35778446802555663453,1135.6727224200558339362,1144.57045198104560768115,1160.32647432672638387885,58.508533510818857337199,3.5707622725094472215801,-769.504027065174454946828,-370.967325107304816356191,154.042409054531276524358
21.947500000000001563194,-0.113931591192928297062714,-0.185548502969924561378789,0.663676149404081039406833,-0.00557297708488950493954661,0.00235510347618512897241438,0.00115082400106794211988581,-0.0097487403516806434705666,0.0051476710980912334172932,0.999925880560742608160751,-0.00511731816551763956518739,-0.120272124857182069468386,-0.0485992466449572044218108,9.86398763691679825171832,-0.0163592581624919727878442,0.00401944961814766632546281,0.00347389954774311162863376,-0.134103173466477015862708,1.45571517755459289844566,1.25869709423026732153517,1137.41439825872521396377,1135.97269506418751916499,1142.45918681173338882218,1159.30658650641771600931,-24.7933305884593409018635,237.154777623620134363591,-946.939125505702691043552,-468.146101441245662044821,154.04052230276411705745
21.9499999999999992894573,-0.0769252649682153621935043,-0.325402106167071769604604,0.513865231772315134151086,-0.00532512590836802229138369,0.0011222155883559342594985,0.00431065927936444704543506,-0.0097452396660187620008875,0.00511017117450749715212854,0.999926037672051348792479,-0.00511157369145185096898087,-0.119599196107554386903082,-0.047803972427771623809889,9.86431811760249743770146,-0.0164538660145644791144015,0.00372789372613654404128858,0.00359925675299587301617099,-0.134064139348084143676942,1.45570381494566314373174,1.25870640547378287443792,1137.23381781508328458585,1136.85849630817369870783,1139.83575635351803612139,1157.98574381952062140044,-101.791898677331360545395,371.641652354247810308152,-932.466181726935246842913,-481.577577805324267501419,154.038323264158947267788
21.9525000000000005684342,-0.0464596044431639376703913,-0.431757821712513922829402,0.317117367948556605483645,-0.00563766798495575222754939,5.46004249357203179024434e-05,0.00639466195771905016737024,-0.00974746535545110114051592,0.00506983702583387475099075,0.999926123457168358754643,-0.00511874937857433216781278,-0.118720365406617525683153,-0.0469246247750836759093929,9.86487970696039440099412,-0.0165472131462663929468704,0.00344225257140308134665152,0.00372445566821635225610021,-0.134025502815971725434352,1.45569610957627038061446,1.25871761428297257445763,1136.90543876533865841338,1137.83090332595838845009,1137.79685590309964027256,1156.89869861739157386182,-151.69669075295556126548,377.184843362545336731273,-741.094805625364756451745,-409.214240574983534770581,154.036545970471109967548
21.9550000000000018474111,-0.0025683827619047104595662,-0.523380713659438723261985,0.0883428776206146570970645,-0.00606302730667713715706491,-0.000866430886922213904996481,0.00709399325134182912044878,-0.00975800798681859815619788,0.00502648999412761560146023,0.999926113831144602883683,-0.00513646687280662917612917,-0.117706518845376487125698,-0.0459874757499267872162818,9.86567270066793433613839,-0.0166390763734219904179668,0.00316527452102393280428116,0.00384933534635473629387237,-0.133986860757777159758319,1.45569198575702674069987,1.25873080480998633667866,1136.47533436131811868108,1138.74442052498739030852,1136.13028232538931661111,1155.93967261664465695503,-189.921821491581368945845,318.722482815037210457376,-609.682405795213867349958,-368.278475793322797926521,154.034827482992113800719
21.9574999999999995736744,0.0762121501378702770335138,-0.610878488127305052657334,-0.160490213736948827971673,-0.00630273326142809578453985,-0.00181835973552978472610187,0.00571001499769270733086746,-0.00977393429824679853268332,0.0049841807595179844769806,0.999926048152111279776477,-0.00515590589247231969455276,-0.116521458968942018263881,-0.0449417331583025561614342,9.86669700739869348637967,-0.01672883037628898617033,0.00289920724648026198119743,0.00397421051190444303558014,-0.13394785332135841771084,1.455689892640256388745,1.25874523541901250922592,1135.95582965788094043091,1139.4245157400332573161,1134.74844387412417745509,1155.05730623842532622803,-177.782652398526693104941,138.615425282823991892656,-387.245827333012755389063,-265.753193534699789779552,154.032835316857585894468
21.9600000000000008526513,0.166831944726322040084554,-0.655499652809764854488606,-0.306659274790614333472405,-0.00631384310154279020793622,-0.00286286138124498476531521,0.00334398442196204770046619,-0.00979119755191407148409155,0.00494905830980599606427894,0.999925955784855990948756,-0.00517097445353692508618337,-0.115110250376260256355287,-0.0436980034821577711934282,9.86794981662065318062105,-0.0168154118543389387296916,0.00264576447925324960072646,0.0040999420603213716784996,-0.133908344308005966549757,1.45568930318236300358592,1.2587599634293971107013,1135.58642109932566199859,1139.4374976514013724227,1134.19405318872463794833,1154.61090664897142232803,-128.114078593969622943405,-138.972471818917085784051,-95.1817636570435325893413,-114.226339184447851948789,154.031235179183653372093
21.9625000000000021316282,0.282441265615765990659725,-0.650722672225158671466261,-0.366137783885499890068616,-0.00612190662849439962839293,-0.00464888113608363448547856,0.00106462844681456535352038,-0.00980077073526435492423214,0.00492959499194231369478825,0.99992588358552358940301,-0.00518005650568100894232115,-0.113323122349780910922412,-0.0421226922185570298862167,9.86942689025513608669371,-0.016897324329950457605376,0.00240600854325145148068787,0.00422813401061419586596246,-0.133867932003612827296379,1.45568972260397133666743,1.25877349829907192457767,1135.31525926491076461389,1138.72965338093831633159,1134.27253505583871628914,1154.48617454250279479311,-95.4540233892392961934092,-404.448373753656142071122,123.058965824772641894924,-5.37270667077898433916516,154.029699283647460106295
21.9649999999999998578915,0.414100652631729959640694,-0.58803207717814720556504,-0.357205712954615339782549,-0.00563038649504284897245876,-0.00712854464010765232623301,-0.000657128215416657480985041,-0.00979808530402134260361979,0.00493204761641212723749517,0.999925844710205957710514,-0.00518247653024780669667182,-0.111101859156264540229309,-0.0401261990751562991341927,9.87111817878054331742987,-0.0169728183013401201506554,0.00218009939422987748802729,0.00436072318861719081944939,-0.133826491908691030952028,1.45569059394409561214445,1.25878519905159103053904,1135.10915098237956044613,1137.41525578263349416375,1134.80934801784837873129,1154.58404311561753274873,-77.4368847635896031533775,-646.105018521203760428762,290.1860574440556774789,66.7954305915051094189039,154.028218035041476241531
21.9675000000000011368684,0.554451939435140594980567,-0.444306758243678490138961,-0.287582045323104940059977,-0.00456462899389885930906408,-0.00997689153988651905580198,-0.00164731107075591050661889,-0.00978219642152251996070067,0.00495397784718559774930213,0.999925869160542823976812,-0.00517812269320038886383228,-0.108463885556809205845674,-0.0377896992980726043054318,9.87300824924595765708091,-0.0170400090810048296385837,0.00196719987167292978749722,0.00449974696033821845025935,-0.133783625073456147180906,1.4556913948930434443696,1.2587947288586149863221,1134.92807484109289362095,1135.49912828833294042852,1135.72346534305870591197,1154.82015169546025390446,-87.6092793218678451694359,-913.980808436417532902851,425.748613711169241469179,90.350257568406746599976,154.026804226147163490168
21.9699999999999988631316,0.715241577088333357892225,-0.189903622396931565097233,-0.171583918461489098872264,-0.0028083206176689502753252,-0.0125855859029005250071531,-0.00194167279372407949010471,-0.00975297796595185444157305,0.00499398993498387493844559,0.999926005215640345547001,-0.00516707674427791148474842,-0.105445599898917261039166,-0.0351720108327059077790722,9.87507767590835960902496,-0.0170970157968387895253137,0.00176561542937855755867893,0.00464702304829261655938488,-0.133738996075377758465663,1.45569069746789359065531,1.25880197015153982853519,1134.67110458577030840388,1132.8453517404523154255,1136.93809108640380145516,1155.03579440345947659807,-104.962347682724569608581,-963.105672606716893824341,413.133566576234784406552,35.4307501650125686865067,154.025187470680322121552
21.9725000000000001421085,0.828936843026036207504603,0.060422333727641518164031,-0.0747818442662943200227588,-0.00109126033896763514029205,-0.0132470186910372406119407,-0.00160926492184467156802696,-0.00972199562338891404289498,0.0050423549138942196090607,0.999926183890654463048975,-0.00514921146804727183909911,-0.102317596497121618415171,-0.0324926824258001192835543,9.87729920860810572946775,-0.0171422702292239534371809,0.00157289616618989198590373,0.00480342726577402245186077,-0.133693284473961671032782,1.45568774348532969931114,1.25880880380807425034106,1134.40326310267937515164,1130.683599925300313771,1137.78913317593946885609,1154.99730544628528150497,-112.275435076377874565878,-765.030752738648175181879,251.334876337713126304152,-85.4530845709195432391425,154.023907937081190766548
21.9750000000000014210855,0.903667805205551566416489,0.299075092990691682182103,-0.00190232656321415866118585,0.00104710617584373075726611,-0.0120771911923112408582259,-0.00107205767939722485145027,-0.00969938743743667571017841,0.00509318222362888615994958,0.999926322854685079022374,-0.00512393584131746494814141,-0.0993236963123503707739914,-0.029892195472272273248926,9.87964381262435686892331,-0.0171745972588469783537413,0.00138629548763190149976432,0.00496904440511626403764733,-0.133646194029271220271582,1.45568248556254276060429,1.25881701782107580100956,1134.10972741038813182968,1129.02019797675711743068,1138.19476546809300998575,1154.60852898060466031893,-115.590379418177036541238,-532.638666149220171064371,33.4137859756149850909424,-252.665004092664531754053,154.022700119897365311772
21.9774999999999991473487,0.927123890311960074939179,0.514788947252510231678002,0.0432100550641926900441447,0.00405261062408732251199917,-0.00934382907120575798010087,-0.000460776258145583557553071,-0.00968893440876662098704131,0.00514168936932863848698894,0.999926388352495809641596,-0.00509330679590226306774348,-0.0965830502856545175527359,-0.0274852115831009588542422,9.88208313397461779459263,-0.0171933317762885187751642,0.00120327424735229733532282,0.00514335806812478511101938,-0.133598117100816288216336,1.45567517774145938069807,1.25882808156167014246307,1133.82531120558860493475,1128.02040659455474269635,1137.95620210581751052814,1153.73398042582221023622,-74.3771418649578350823504,-170.048250024308060801559,-216.90214245504415657706,-369.756178472453825634148,154.021335119309355832229
21.9800000000000004263256,0.878760105055587992239907,0.608183603050739818307591,0.0423627645771966210297421,0.0065604227487756653844353,-0.00670967184535403975836898,-5.8137771027890048811896e-05,-0.00968400482552375131695133,0.00518619952672859894915458,0.999926422489086808020886,-0.00506155615951603150143301,-0.0940084545969085555450206,-0.0253214531553718237566475,9.88459128117317398221076,-0.0171984354979580339461975,0.00102191141299476134958468,0.00532561707388682758351761,-0.133549533771493172951139,1.4556668651017095061917,1.25884114433661009613274,1133.73784170106341662176,1128.16995672663574623584,1137.11025475581800492364,1152.75974808824275896768,16.6652674885796159287565,252.942492734889782468599,-452.475098923010136786615,-403.067636042054118661326,154.020268923925414128462
21.9825000000000017053026,0.750331191083823179077683,0.601182801871602667809213,0.00411866241454413549438751,0.00897569026720503211624891,-0.003859900741491584588716,0.000208056473893191101829508,-0.00968056355967029762144005,0.00522242220208726532632015,0.999926451590821052661795,-0.00503446177399818634717876,-0.0915627173847623349045577,-0.0234977287675114214493544,9.88714006876747397711824,-0.0171907298263629382262252,0.000841114159378863633295675,0.00551468156236928613161963,-0.133501659901418295861575,1.4556593736555991647208,1.25885558108953077294245,1133.90863754303154564695,1129.2851190582298386289,1135.6938266112013025122,1151.71864224561090850329,148.652645789645731611017,646.891053835990078368923,-696.448441870645524431893,-427.426417389636753796367,154.019277827134999370173
21.9849999999999994315658,0.501401401561860637912105,0.492978498527380126770225,-0.0767035988419297876106384,0.0117894788403944440757787,-0.000518898329779321205827702,0.000355025232270193662198476,-0.00968347607905874728506657,0.00524441576284472282115656,0.999926416148552710261299,-0.00501969996276052741329687,-0.0893822514409964991033419,-0.0221386141825190042864424,9.88969684838862406195403,-0.0171719497781018075321935,0.00066071319672163491415473,0.00570900687252100247359721,-0.133455894855768641971139,1.45565436181811413973719,1.25887170122941571825947,1134.48110493001149734482,1131.40441199581505316019,1133.62801254646547022276,1150.62261600129500038747,271.008402926608425786981,836.292084694589902937878,-760.52363030363846974069,-351.216641766156328685611,154.018176479651941690463
21.9875000000000007105427,0.222603387262628960030497,0.351889263588618661504626,-0.164205836341369787456657,0.0137024167846629737338437,0.00116233061526924944147077,0.0003005742592455876291066,-0.0096952303822397389865273,0.00524880577523716487786665,0.999926289111257693420498,-0.00502078977808906399410427,-0.0875525089820122365269484,-0.0213156521553099394250541,9.89222871400192893531766,-0.0171444268787352034622007,0.000481135386739085031855556,0.00590721713902303460080878,-0.133413443546829491026529,1.45565218279511210397459,1.25889033675336725615068,1135.26367955766431805387,1133.46657948170195595594,1131.8912084596838667494,1149.96255903678047616268,363.267088329526529832947,799.579683367619736600318,-625.96892030783044447162,-198.556556973006365751644,154.017332763921785954153
21.9900000000000019895197,-0.105637526775516216170914,0.214095786982362368267019,-0.258433891868638354605281,0.0145622214542098817047222,0.000865072675886119466133473,-2.06521957374332788652527e-05,-0.00971623106748663312171033,0.00523473936583154428325848,0.999926072387057662815835,-0.0050376740631618097815414,-0.0861131781103210286465455,-0.0210482205339267459953678,9.89470201009894978483317,-0.0171106947323418252804306,0.000303098850367126775549875,0.00610836185620081649483293,-0.133374144587353193891488,1.45565331236959383254259,1.25891166087636841020014,1136.29744037166005909967,1135.4023104126551970694,1130.49816794492471672129,1149.62983321642946066277,436.991705562145909880201,702.839172919451584675699,-455.665087708439102698321,-82.0768510433189959485389,154.016566770171266398393
21.9924999999999997157829,-0.445304169987462750146534,0.120174941169406260255137,-0.345051251813244197474972,0.0144594937275601635034983,-0.000597650363965102548666208,-0.00065161208346083609663224,-0.00974429861330887089887476,0.0052020029920927602154479,0.999925798291629641667555,-0.00506919558938542531151272,-0.0850481845673992514766937,-0.0213403900662604562032953,9.89708213022193028507445,-0.0170730256043871223003983,0.000127277155555756394354761,0.0063122518343623002304299,-0.133336415437887823021157,1.45565752094714850883861,1.25893437868654345379582,1137.44863808547461303533,1136.98077534629851470527,1129.61288302114212456218,1149.55217478156396282429,460.395159279642655292264,514.939356965817410127784,-201.012405879277110898329,15.9902419699878901582224,154.01586579579540625673
21.9950000000000009947598,-0.753335471491158426005086,0.107734733119843509308033,-0.404575100232216433582266,0.0131481062781197578087644,-0.00232356140240273529445902,-0.0017539782137655449828495,-0.00977106192290305014536145,0.00515861877995959193510256,0.999925524573737956046671,-0.00511208086103577541425835,-0.0842132776006324773598877,-0.0220309787149168476161343,9.8993340259557935922885,-0.0170330467539701116419515,-4.6038005616745751916695e-05,0.00651981008344116458319562,-0.133298831101788889386128,1.4556635438605860510819,1.25895666550776974546011,1138.59941616805781450239,1137.97700719748377196083,1129.49310591552853111352,1149.70978442627938420628,466.780138707328774216876,306.536432417367052494228,126.382660664583127640981,100.949071749275461229445,154.015243847432600432512
21.9974999999999987210231,-1.02191849499751619134713,0.186142846322423061167228,-0.423143592227948062145515,0.00976336721305799161430006,-0.00357022503418307195904857,-0.00362131875449920627441092,-0.00978997815952505588688037,0.00511358052795171571375255,0.999925303107050189588278,-0.00516001855583780259101312,-0.0834954601229950382768052,-0.022936423768662252825612,9.90141923633815856931051,-0.0169917177734733131078126,-0.000217352870099290959018598,0.00673280568829258234397894,-0.13325982892536153423535,1.45567022802073187115468,1.25897705745118604347965,1139.78253877901079249568,1138.5134575083850450028,1130.24479632446491450537,1150.05692014031023973075,373.581596658579428549274,112.51044569614769841337,400.016703343533208681038,138.850627363790749768668,154.014589592253201999483
22,-1.11819146875144359576382,0.3049839143536464125539,-0.384230243645496460924704,0.00538848847944372547763559,-0.00366873717381690318470322,-0.00541801850785482170397289,-0.00979244974864627686084173,0.00507808658277854145512986,0.999925200550928039433529,-0.00520612819492854463077069,-0.0827363329201575431470772,-0.023826072636303038260186,9.90329720116133493945654,-0.0169493701634556535873255,-0.000387996199849352605554254,0.0069537358805226399949273,-0.133219583085500109520538,1.45567656994431282591052,1.25899455450639252696021,1140.46732415135033988918,1138.53955942596439854242,1131.493189432245799253,1150.40403756309819982562,185.760177093193760811118,-33.6192075932841234475745,575.8827064848229611016,137.870336444959718846803,154.014121564588094770443
22.0025000000000012789769,-1.05142656876367879270617,0.433494295686106312359698,-0.288143677487104621359748,0.000400437431468665607121882,-0.00259784900784114803490299,-0.00695804865749745198033605,-0.0097755634369763068358683,0.0050625126521796114456575,0.999925236773667291956258,-0.00524323137290461181031498,-0.0818859525038754393344576,-0.0244811577692660813088121,9.90492275547453360218242,-0.0169060048720139945166441,-0.000560107345640734033929975,0.00718511943861884719991773,-0.133178457244159664796257,1.45568133943591382362115,1.2590090440576262587058,1140.71133966447723651072,1138.34536147041853837436,1133.12420985689050212386,1150.7462718225353910384,-8.2690125792867625875715,-91.0329027524038849605859,734.025800383970477014373,138.806874001266237428354,154.013733927746756080523
22.0049999999999990052402,-0.791415582664277916791207,0.540852043453850406251604,-0.122324393185654023419318,-0.00437991041871512928884691,0.000432230858739548844376505,-0.00801742033922816718649607,-0.00974264314742495987631266,0.00507174258227539517807081,0.999925384896516611377137,-0.00526697560627879639294502,-0.0810147836877691401857859,-0.0247867909449159991297496,9.90624673338157712976226,-0.016861498502023369860936,-0.000736388124802355771049422,0.0074289390208659806733027,-0.133135869746311252814763,1.45568359469626606994552,1.25902107668117979599742,1140.42597908845391430077,1138.08439491220246964076,1135.16331843416492120014,1151.09807193310439288325,-196.216567678077751679666,-80.7160043229647783391556,714.37595137845733006543,112.73433618464392225178,154.013361462770973275838
22.0075000000000002842171,-0.460369227702275896074724,0.559839480794713018063646,0.0386653535845426984951523,-0.00621945715715772808745987,0.00386679863704008502933718,-0.00815797515645825740970842,-0.00970700759569522765579652,0.00509737081332108012826643,0.999925555204849048074323,-0.00527733980052782353231677,-0.0803892779960359432633865,-0.0248862942461195169041588,9.9072159474081971097803,-0.01681586966245961212163,-0.000919814178554892469298621,0.00768600569512400272342845,-0.133092381184131608451438,1.45568302981261732398366,1.25903331059070366926278,1139.73025682608704300947,1137.94178144880379477399,1136.69608961378207823145,1151.30994350345849852602,-349.219546955103908203455,-37.5351615626904120404106,540.30265803066515672981,61.4708863972422676624774,154.013127748873131395158
22.010000000000001563194,-0.0702586847974099731883868,0.497333418582287356546345,0.197047424622614653078045,-0.0060050604812080712185951,0.00661569884632501672983018,-0.00750944336992669450592253,-0.00967706435336772655131377,0.00512760104987301183060433,0.999925728894733634177783,-0.00527330527108110964917831,-0.0801751594389390614958657,-0.0249883290520958555036568,9.90777965574109309443429,-0.0167692506301841855187451,-0.00111321979679475900615326,0.00795619562358679255353877,-0.133047983429323085635687,1.45568017796023951859752,1.2590470229475032581945,1138.67988135367750146543,1137.89671910438892155071,1137.8648317243196288473,1151.40542636509076146467,-499.665377472510328971111,-11.3907987850802712159748,411.869906275424114028283,10.794828879763700868466,154.01297245961114867896
22.0124999999999992894573,0.402099829726964341780615,0.356138704265368088996979,0.357208853051247054999351,-0.00458868532292380348208694,0.00826438938565000197344901,-0.00581495676250464062218004,-0.00965608891873486092916057,0.00515506152756044309232175,0.999925925237739487982935,-0.00525232346716866804747781,-0.0804318799129982303641739,-0.0252131568832336359908819,9.90789092957769668146284,-0.0167220251981164691468251,-0.00131874154248176980210039,0.00823846280903213663837636,-0.133003283591751120251701,1.45567621249419709705819,1.25906244532412014969225,1137.23192993872498846031,1137.88482745487840475107,1138.75543914515878896054,1151.36391764785730629228,-526.749571127325225461391,-12.7171253529493526457372,242.145905864665991202855,-41.6437470425617988212252,154.012874836001060430135
22.0150000000000005684342,0.763750810543814218078751,0.216575855260658367562598,0.453963173855685908630875,-0.00292995109403807081627225,0.00834920990711563761055292,-0.00402923534734111153665648,-0.00964000758235053663292025,0.00518288388147184527626754,0.999926158692367228475462,-0.00521542837480294674268322,-0.0810680278030460749194575,-0.0254728019176965400638402,9.90750894629323219930939,-0.0166748971970083620375291,-0.00153719094493677912484364,0.00853105325306099775140023,-0.132958795434612170316413,1.45567191390830297237358,1.2590791151578237805353,1136.04613349804139943444,1137.83313347762418743514,1139.07556125364271792932,1151.19720762987799389521,-434.208807620739889898687,-44.7697096504951517204063,51.9478697788333931839588,-92.2309295788164718032931,154.012865607605107243216
22.0175000000000018474111,1.05916353901892712485733,0.0914564870914612859653658,0.511771393370418881119122,-0.000737413230467959300920566,0.00726972027714771831807816,-0.00246789644661944392381447,-0.00962805316513720699234113,0.00521275609768902768725862,0.999926392206477610002935,-0.00516899087994812048846294,-0.0820535731641399007640914,-0.0257079118816095873734096,9.90659732314670016251057,-0.0166291052932677277387263,-0.00176799016049079891869933,0.00883124650795543211789784,-0.132914753207247854360773,1.45566856834581637158976,1.25909743194496726026443,1135.06088590062017829041,1137.66097890662581448851,1139.01517849405308879795,1150.90276299996298803308,-343.967802767542934816447,-94.0849007750972106123299,-74.4344748629521575367107,-137.291563739227086671235,154.012928614275807603917
22.0199999999999995736744,1.27709851231933924076145,-0.00618647285955221514636149,0.544653411901411366180525,0.00222208903113286669259163,0.00596187347653203986858061,-0.00127340618870369517816321,-0.00962352539211400702379162,0.00523916805493228939644146,0.999926577997039656153788,-0.00512094131666148647680226,-0.0834350417399202931578728,-0.0260038774208969994394813,9.90512559557177496571967,-0.0165864230737535305049146,-0.00200937504393653657702723,0.00913544159883548402556475,-0.132871195054939578161779,1.45566718733083821923913,1.25911866307655584407144,1134.32629448420402695774,1137.36270897374879496056,1138.70338887932803118019,1150.51074981118199502816,-227.473562801332946037292,-147.475488675520182368928,-167.923109745367327150234,-179.540645155238308916523,154.013049216168383281911
22.0225000000000008526513,1.37602380562727022450531,-0.0731535991944766983419157,0.558949442002241170257548,0.0063507270938634487189578,0.00553824063018917497891458,-0.000431160734530711630373145,-0.00962333660800536103141489,0.00525742728810144836076867,0.999926716163828666061875,-0.00508099232675100417888636,-0.0851274361971933318793404,-0.0264342870337808157066295,9.90307401725569746986366,-0.0165489281621492463625334,-0.00225838780372424963518996,0.00943976023539692607466911,-0.132828851777625489560819,1.45566878823036027768012,1.25914268236565640712854,1133.92351808661373979703,1136.92360146324836023268,1138.17556294532641913975,1150.00505977418697511894,-108.870668225052909861006,-216.067296233476071165569,-260.296010866935432659375,-248.61152370859613824905,154.013236170828463400539
22.0250000000000021316282,1.33602668425603354762643,-0.136730284559676007472007,0.563618399254905422246509,0.0119042452544437255684828,0.00636393695469984407853126,0.000485992834605039787654324,-0.00962323331527730613244032,0.00526466420324469587532779,0.999926832233969498098247,-0.00505470740896446155132615,-0.0870173478651645321280128,-0.027042547790292692511116,9.90043258784538870997949,-0.0165189492505118176723933,-0.00251133240098032513298865,0.00974019055503006631058227,-0.132788260614214864707705,1.45567384338869110216308,1.25916903265966095837314,1133.78194114307848394674,1136.28237249258086194459,1137.40190882499268809624,1149.26769219263837840117,-8.43486496610407421314903,-246.41183497192642448681,-293.204951276187898656644,-290.491840402195123260753,154.01353308711247791507
22.0274999999999998578915,1.17138709950074493271188,-0.184825987976032085624567,0.556233030944208062251732,0.0159812211804061833630985,0.00733190758757645572735173,0.00144519660238813713905304,-0.00961828507332170186405751,0.00526271383563204665778645,0.999926953788607075779282,-0.00504411485596212901677537,-0.0889727799049552375842964,-0.0277853323585568572073878,9.89720133406795987696114,-0.0164988748652627470470122,-0.00276408545859759555499147,0.0100328721956376241269959,-0.132749077799113351927573,1.45568295690897375749273,1.25919678028727854979252,1133.88134376178322781925,1135.69154228838897324749,1136.7095381889457712532,1148.55260057217628855142,66.1268431642060647845938,-242.113271432347545442099,-275.347215849897338557639,-299.535096508102924417472,154.013837932857114765284
22.0300000000000011368684,0.891963656063636589621524,-0.219446295463701340766605,0.528126703550566123368526,0.0187893365271077812661549,0.0073714839200775894925699,0.00286876173688443503531631,-0.00960430261159025966399838,0.00526063276566962525343518,0.999927090608840440921767,-0.00504575770401539686754733,-0.0908715035935826059843023,-0.0284832761274029407083663,9.89338986523074126466781,-0.0164909382315843178190562,-0.00301256760514453589272499,0.0103142642237956539547072,-0.13271163613159295269206,1.45569573853959921549972,1.25922549817478945932692,1134.1125753588994484744,1135.07180613541936509137,1136.02517274574347538874,1147.7700167100981616386,112.390454638875397108677,-278.426530655916280920792,-295.450786380174236001039,-340.892105053648776902264,154.014198678222243188429
22.0324999999999988631316,0.463863718394065704941909,-0.216204928927883011091637,0.457548990401666910710077,0.0207223275626915379166171,0.00609881759351017533471451,0.00515364294829303171835422,-0.00958186665076629119630613,0.00526651623507215331521092,0.999927215442595884731247,-0.00505545779480062306560084,-0.0926827983934826044043476,-0.0289814077546795452466899,9.88901584623426188613848,-0.0164970940367178617314003,-0.00325322514629989819126554,0.0105810651353707152466654,-0.132675612414831139984628,1.45571100742868875244085,1.25925481814061757113166,1134.44329603497749303642,1134.29940963510966867034,1135.23228425704519395367,1146.8481400469083837379,118.335868759073392197934,-290.521967136977366408246,-290.027330110673062790738,-314.824259625919580685149,154.014691851271095401898
22.0350000000000001421085,0.0612996631236175440471392,-0.154910208057830844907699,0.364680829455038935105193,0.0213091353668903756013453,0.00430337099979723625847727,0.00722167110311327815203031,-0.00955313096711685356965393,0.00528016252108394305853079,0.999927308939813297428145,-0.00507286523668920748264544,-0.0944063168344486808303273,-0.0292925352064026152387743,9.88410578374772441634377,-0.0165187699343119429040705,-0.00348343120214816880444997,0.0108302901936717429348667,-0.132640335775373624516149,1.4557282922718499662551,1.25928473520989325784569,1134.70425470269469769846,1133.61919629973476730811,1134.57503609519039855513,1146.19589541196887694241,89.826220761551184068594,-284.016634109266533414484,-272.359650677523688955262,-210.689749296017453161767,154.015149849442508411812
22.0375000000000014210855,-0.352237782828801915258055,-0.0231279655069001194300782,0.247463760448344421982725,0.0210619325651454879222424,0.00260146513623330487285923,0.00851834490561310421485874,-0.00952175882608586286737218,0.00529928360316331455159844,0.999927351234190298079341,-0.00509743185856484457701976,-0.0960712806268385205443749,-0.0294733477267304332103404,9.87869395641247471928637,-0.0165566786652727691853126,-0.00370176393634096684293056,0.0110593136723068675986159,-0.132605679789574826266119,1.45574678084762765273297,1.25931611070656401807355,1134.89242713878547874629,1132.87932646456260954437,1133.8704860036568788928,1145.79469130042775759648,52.8626487708257286612934,-342.124619779701617972023,-332.560278879803036033991,-96.4722862682002499923328,154.015652772584729746086
22.0399999999999991473487,-0.818160674638253260226861,0.197956730063433811173113,0.108399035880303473700081,0.0197921169729070138554317,0.00153668482580048785385296,0.0082866933357396421744312,-0.00949061164746320753970998,0.00531772788137272866409999,0.999927352750336728703928,-0.00512864771058075055720771,-0.0976925041741299043929203,-0.0296576912607425281775964,9.87282231475231242256996,-0.0166106559598300750069111,-0.00390820068806049455978346,0.0112659851340151436621673,-0.13257128428156716992703,1.45576568075527235102129,1.25934827290096196250602,1134.96856794654877376161,1131.90857320083659942611,1132.91223470079171420366,1145.71353398062797168677,-8.43937470399564126921632,-368.058263352741505514132,-373.133949468757805334462,41.7188542780960460731876,154.016303632740289231151
22.0425000000000004263256,-1.14629680393205268806867,0.402938872793604463407036,0.0151486670124217539384892,0.0174706022625333405595693,0.00181619225539847244620117,0.006983672834604601371844,-0.00946145730552860886319877,0.00533233643949661273442331,0.999927340317403712255384,-0.00516218532334699383573584,-0.0992652962472615335576265,-0.0299198509023766295866764,9.86653920608197054775701,-0.0166795438088938180465348,-0.00410412260712399688811214,0.0114487539280842924582782,-0.132536660897444480422536,1.45578340902343317253553,1.25938017607424401766991,1134.85023026526550893323,1131.03903514779926808842,1132.00481625631346105365,1146.00328557181819633115,-100.912797611675372877471,-352.765008966299831172364,-378.325096471405402098753,180.071382269715030588486,154.016881966790919022969
22.0450000000000017053026,-1.36772276002488801793788,0.579195152124645562530247,-0.0465936609708331103685275,0.0134419469181958559089729,0.00349166868997851428252366,0.00582241899736539968157611,-0.00943514427148935477807079,0.00534572406113452934517394,0.999927326924647141836999,-0.0051922383640550084232812,-0.100770330635885682624142,-0.0302174768004248653352484,9.85989794545475817244551,-0.0167611901613614819317455,-0.00429202178221629003507243,0.0116066554955436482265974,-0.132500776837519096407192,1.45579884070061060796775,1.25941124246767266470215,1134.46400395849013875704,1130.14474815600419788097,1131.02060921843371943396,1146.61389089197700741352,-209.877086339334624653929,-352.721016883631079963379,-393.179958175538558862172,279.758369327975003670872,154.017493018582342756417
22.0474999999999994315658,-1.47320649826006788707389,0.693864771676433456093491,-0.0925417653029259046348898,0.00827152643892002312209222,0.00625966003968564735360225,0.00548050671465923067149362,-0.00941842804186563548052291,0.0053574704974589677092256,0.99992725651832170541411,-0.00521858665842615115915137,-0.102310927142053628702278,-0.0305616805667287896874917,9.85295297429138905442869,-0.0168527663794418060272395,-0.00447514023018195841036038,0.0117388692734326418459778,-0.132462271156636224311853,1.45581199461445787157743,1.25944197549614789188865,1133.80084483356904456741,1129.27543006338146369671,1130.03891646543615934206,1147.40207741845779310097,-337.724528766215257746808,-330.172746571927063996554,-370.963050399706048665394,329.264255052587031968869,154.018127413521028756804
22.0500000000000007105427,-1.42669072004659991392828,0.701905565640304263119731,-0.141503790969748521888505,0.00283697463900639892941946,0.00981926309603544170134803,0.00626310691545873057806126,-0.00942233079536792042518734,0.00536347007660369773374143,0.999927057018612730487916,-0.00524020873069482463063595,-0.10408087246128548686297,-0.0310299129833538599176901,9.84575915052773531499497,-0.0169509498589447867022972,-0.00465728481235082487910137,0.0118446189587285907740544,-0.132420206177447763451482,1.45582311596360058914001,1.25947356075485061843722,1132.77538131465939841291,1128.49388442314489111595,1129.16579396643555810442,1148.26021216723961515527,-523.94490123929722358298,-313.913741632426024352753,-333.121070572690427979978,355.957173927026587989531,154.018784939244170573147
22.0525000000000019895197,-1.21617520043447324695762,0.577833749152188325126644,-0.22195580913094106745298,-0.00262741347661068786606409,0.0136302167938880964409565,0.00778619802976517234871512,-0.00944866026855694859931667,0.00535531396927364355259327,0.999926747351657096984923,-0.00525914477323628174604275,-0.106099677778360976243555,-0.0317776469775327558009437,9.83837596908872669132506,-0.0170520646853585013114074,-0.00484231833179184223414637,0.0119235854272244350821053,-0.132374675187042600832399,1.45583364105427537360526,1.25950614891817913587602,1131.18112032737121808168,1127.70586135521853066166,1128.37331111257185511931,1149.18186328809383667249,-621.902384476867155171931,-263.046706084521758839401,-234.488740516964099924735,298.759106941466029638832,154.019593671551064062442
22.0549999999999997157829,-0.950705918477071865169137,0.380182691647481696417543,-0.30077127746088327953089,-0.00555890549035859080767574,0.0155316728571124815228011,0.00843808436777241863135934,-0.00949531630413806039536784,0.00532866489165518576742731,0.999926382599091057024054,-0.00527332737745822479474844,-0.108316190321581171107646,-0.0328743115405555480501576,9.83086403244826989578087,-0.0171526111196652862600498,-0.00503391963294253126648403,0.0119758880896412896882586,-0.132327021745739348279614,1.45584426276434864000464,1.259539592435755528399,1129.66586939227568109345,1127.1786508927225440857,1127.99335026385097080492,1149.75400770194664801238,-604.05493328674504027731,-189.845505821487250841528,-87.2286042086844446430405,177.571344553861166559727,154.020278493827703414354
22.0575000000000009947598,-0.652128801981515238139764,0.124875578626344935218029,-0.359382695624312686888402,-0.0063837962606538558793523,0.0158126248027863867962051,0.00740154339901471104018471,-0.00955322205500190764493329,0.00529218912770983585663886,0.999926008151430512072011,-0.00528052871933645806556967,-0.110547517185672003470209,-0.034127955471135229537083,9.82328510767872842279758,-0.0172496041817046807942404,-0.00523508589372840942022247,0.0120023873932728879915244,-0.132278782535703520739645,1.45585444590083068483466,1.25957297002246093597932,1128.16084566093809371523,1126.75663382611128326971,1127.93716809152851965337,1150.06972001086296586436,-609.786172153765960501914,-172.681382436610675767952,44.7687254957689191314785,86.2916765225862718580174,154.020967518421628028591
22.0599999999999987210231,-0.31767278036513924011075,-0.197001702152041491267198,-0.358167088119099030762982,-0.00593341839993136079683955,0.0147477520125121070587726,0.00460898108315008214752595,-0.00961443325605918462650745,0.00525332388225666514075529,0.999925647097581582478654,-0.00528210386631197334472709,-0.112639691627539215157405,-0.0353649028957705516273968,9.81569819209257232728305,-0.0173409935692843755750125,-0.00544823233607430370412095,0.0120043088697770750084004,-0.132230537324980496061144,1.45586404871319152753983,1.25960573539192122183294,1126.61693853150745781022,1126.31524398053966251609,1128.21719389132977084955,1150.18546608455949353811,-493.697225869853355106898,-158.436454013585404254627,149.018379895308129334808,10.0804674873435988757819,154.021790442410122068395
22.0625,-0.0858039162856649856303548,-0.448708242879674701342196,-0.274437504844120383484807,-0.00527790728406610492456918,0.013388643317278478214738,0.00197248679565594810247919,-0.00967046183466907169345994,0.00522019443474541853383863,0.999925335779958235349341,-0.00527796460333222663269259,-0.11443299701044630511948,-0.0363947861170803368957571,9.80815925834623314472083,-0.0174256050296280745603994,-0.00567516708609156882853197,0.0119832619088950913938119,-0.132182288421571619840833,1.4558729270014700851732,1.25963745459688469807702,1125.69235953158931806684,1125.96445155604351384682,1128.68225999100491208083,1150.12012234829967383121,-276.799612660574268829805,-140.809846195653136646797,213.713836759852512159341,-48.59340942809709673611,154.022466638748795730862
22.0650000000000012789769,0.0879970573090019386741645,-0.660273498835645122895244,-0.105345423549530428641852,-0.00454711254536488765354285,0.0118971232263571716214479,-4.88114327507148241559742e-05,-0.00971541908160654561765757,0.00519573378188620694367872,0.99992510469638506975798,-0.00526994922909191504389881,-0.115823228081439869030511,-0.0371265252506624635064902,9.80071917397337166732996,-0.017503221959196919171875,-0.00591694427749563274521183,0.0119409322201294784693282,-0.132134368301144972113192,1.45588142555303634573249,1.25966785540583137148474,1125.23294046820387848129,1125.61119474956103658769,1129.28576307512958010193,1149.94249903741888374498,-95.0574403330127069011724,-152.204172663171704016349,269.287799752199987324275,-103.456387268827370462532,154.023126296027612625039
22.0674999999999990052402,0.23818953515356078298737,-0.849203391868057932967417,0.159445178908151991015174,-0.00385757060382812795931717,0.00968404133362670699325392,-0.00104241115684313096281799,-0.00975001733285581380361595,0.0051766389001049314608216,0.999924971210593538373246,-0.00525610390633477961297437,-0.116838198592026445976622,-0.0375914265628141119890415,9.79342125614386027621094,-0.0175745416764635370432401,-0.00617391944750245343087602,0.0118787543921397217849822,-0.13208768664658129821099,1.4558897034332081155128,1.25969772912794586439134,1125.21707232992434910557,1125.20343069272780667234,1130.02869898976564400073,1149.60284041195563986548,73.1271546329626289661974,-138.76778865963419207219,254.231823795367404272838,-154.048380633079148083198,154.023892594262946431627
22.0700000000000002842171,0.327351619251269487786971,-0.94033378672772005568703,0.387420469834950209619961,-0.00360350774561902934337021,0.00734600099111561155584837,-0.000398958526169120302352217,-0.0097742780104367911475638,0.00516036820140559557290594,0.99992493149400407670413,-0.00523902418955259768784671,-0.117493336884355883964481,-0.0378066771442117366408553,9.7863038519024136974167,-0.0176409319132377340189066,-0.00644515395061578608149055,0.0117981220175916706044417,-0.132043486644722735112722,1.45589841969827205048205,1.25972769134286322056937,1125.59857624136861886655,1124.91735580626300361473,1130.55692219410616417008,1149.17225713425364119757,217.699395120441778317399,-90.1958238560375917813872,169.027447706007421857066,-218.098005952449341293686,154.02450659028551172014
22.072500000000001563194,0.392166909734761648387291,-0.95006211563219489235621,0.563077867859976044506709,-0.00340372682573767196267944,0.00459749603030761011535077,0.00165829017120212060358575,-0.00978959353066455144343205,0.00514478864472387668188569,0.999924957907302180970532,-0.0052232800187582304959899,-0.11783092578589625387675,-0.0377849458675593857792663,9.77939925555758371444881,-0.0177041562018988851701096,-0.00672844332430895617630506,0.011700301791363327055806,-0.132001276618199908652329,1.45590869373244902185149,1.25975808246041309779173,1126.30556930552711492055,1124.7524515734473880002,1130.87383622829611340421,1148.51235038219283524086,324.981503424051936690375,-36.7522565973631927249698,78.2611437561328102674452,-311.099993418127326094691,154.02509205031051919832
22.0749999999999992894573,0.439886989694533603323379,-0.887058948421723947319606,0.655683191548399046943985,-0.00291379565168039091418994,0.00191513649764959927208896,0.00469505462808248678202583,-0.0097983182674447541482543,0.00513176486910882703740278,0.999925015448540177587233,-0.00520912136843069539099416,-0.117910435850081110609189,-0.0374679419663740201351665,9.77273379760846161445897,-0.0177659393697602759065735,-0.00702050892289650570188275,0.0115865669610803728034609,-0.131959829824483759752596,1.4559213229609948569987,1.25978848618230210298918,1127.22348375848855539516,1124.73359452327622420853,1130.94822791288675034593,1147.61675716716331407952,406.882511519678701006342,33.2583474321902698989106,-36.1197290841190792320958,-414.878589585114923465881,154.025652467551395830014
22.0775000000000005684342,0.462011531880976711317288,-0.73722928894662498322532,0.619197983637738147422169,-0.00185897358995544721704807,-0.000467287155824759386710254,0.00845545561636421895423954,-0.00980434081461590244133131,0.00512029063497058262166561,0.999925060771618023913732,-0.00519845397533623323343965,-0.1178204943162939749568,-0.0368610849795887873803224,9.76632775177185408210789,-0.0178278264275633750723937,-0.00731715600263964805610728,0.0114581410434013049315372,-0.131918051453713353060593,1.45593782404753069315007,1.25981745546666235036071,1128.33998186312510370044,1124.91874331060830627393,1130.69323758287555392599,1146.43795743426767330675,524.259612306382337010291,125.262504972651683488039,-182.845620561781430524206,-562.307848626491022514529,154.026182075761710166262
22.0800000000000018474111,0.448000662564126017617383,-0.467255866195386337924589,0.426808405698035797648515,-1.5725813826027309431238e-05,-0.00297112089337193963078931,0.0125346738368065872132329,-0.00981032038994185395797132,0.00511109881876723251559191,0.999925072659356040105649,-0.00518979381979932635066133,-0.117623893962984824024254,-0.0359461138144696462637384,9.76019668802403650431643,-0.0178909781569873173323604,-0.00761370713048093415709072,0.0113162976318884403448273,-0.131875592675358505045935,1.45595824726989042652292,1.25984448355234501804034,1129.84478182002180801646,1125.35990704813980300969,1130.03399981007737551408,1144.80521792402942082845,567.449649916965540796809,188.143241438539149612552,-285.973065130622273954941,-603.337262257429756573401,154.026782523552952852697
22.0824999999999995736744,0.397471642793268520321703,-0.182236917630821698699251,0.17394072754047631979013,0.0016050505645339295957702,-0.00469151768256681565155697,0.0144479434640464310390939,-0.00982018234604880094207324,0.0051045870548853114131993,0.999925008074627696963432,-0.00518422457704096999175913,-0.117407260396458698603617,-0.0347206285371354228530549,9.75435069158674217248972,-0.0179563450921567287210667,-0.00790531019380368883686661,0.0111620672035041574449155,-0.131833159856172166257693,1.45598208920642679942148,1.25987077088142718217512,1131.17723011270936694928,1125.85945951780081486504,1129.26337225722272705752,1143.42127112298112479039,528.438728284086778330675,208.829020992466837469692,-328.020253597079999963171,-508.790201594694110553974,154.027254896287786323228
22.0850000000000008526513,0.309360167427824128694169,0.134221900722225229163342,-0.110172657343833801935062,0.00270946526263072563767142,-0.00557664196798174013891547,0.0141383412994467785872565,-0.0098371614003528312641933,0.0050961068692771793048335,0.999924831116883905401949,-0.00518786559492502054313778,-0.117243844257618648474484,-0.0332895852848952289448903,9.74879570717439314364583,-0.0180246788719694919778114,-0.00818740546580751064886794,0.0109961044978271228755862,-0.131791891686231121827433,1.4560088553419601176131,1.25989790694484438127176,1132.48697546144171610649,1126.40405215310192943434,1128.39389854209230179549,1142.26126691605645646632,537.024715103050652942329,226.420821842859936623427,-371.386853273034944322717,-401.264925507779764757288,154.027700463471717284847
22.0875000000000021316282,0.172420366705582778221739,0.496175567109563342427236,-0.403844674383451840427028,0.00332080457018651097056416,-0.00470439760562640831714765,0.0114179485275288355311529,-0.00986138420220903158530668,0.00508426745843216024156597,0.999924534554161636989988,-0.00520421037217280984393808,-0.117145519686710705697941,-0.031704768149255532772024,9.74353489581674381270204,-0.0180962572435239311963162,-0.00845617648618265764504098,0.0108189726166543227076078,-0.13175192880321850985581,1.4560371054313421268489,1.25992639701615560809955,1133.86235368822599411942,1126.9915636270156937826,1127.40643799085660248238,1141.41494649544119965867,442.671670492651912809379,189.714416003190763149178,-330.411386270109005636186,-188.603557823754499622737,154.028207686169025691925
22.0899999999999998578915,0.0425837620188310797542108,0.73724006566082456171074,-0.562558615732607791848352,0.00345985407458726220222833,-0.0020593873433677541313902,0.0080260831012970625802927,-0.00989203123971556762261681,0.00506700524412004998930925,0.999924150304098424690835,-0.00523211735708904810554509,-0.117105974914047492041469,-0.0300407253699242170197348,9.73856818418099656753384,-0.0181707097149427718174586,-0.00870894836349560622079657,0.0106312174071285289039812,-0.131711955999222307678309,1.45606629000904996829036,1.25995524344991349785516,1134.70033381390453541826,1127.35262423311769452994,1126.74184161074208532227,1141.31824912693787155149,238.316283101223348239728,106.644396928980611960469,-214.19375113873397253883,100.213816812649312737449,154.028610666567999487597
22.0925000000000011368684,-0.0930280737753313019533508,0.870731641729544314500799,-0.609167244614975511574073,0.00349188609162376546735107,0.00190077015712380049256014,0.00484873452923751530052598,-0.00992441941494479930307993,0.00504821825660995045226276,0.999923752682036592887016,-0.00526369671182773304213276,-0.117043874757101887262856,-0.0282648606982929886943801,9.73389373911636113234636,-0.0182468008118787002047601,-0.00894421629666520071055835,0.0104337802838468871047262,-0.131670849052281102586903,1.45609551868574471633622,1.25998341672951919001378,1135.05393510373187382356,1127.52478561166049075837,1126.3354692351631456404,1141.91601557950434653321,16.4722481174554573613023,27.4832506677339658551773,-111.182733448480874471898,400.141569370669003546936,154.028997692320928081244
22.0949999999999988631316,-0.250450800080812774339734,0.888459462965404678236325,-0.551181318427975797114016,0.00328270044979959724901208,0.00669550281729649424816708,0.00220160517159632669950686,-0.00995593321975014183822239,0.00503426729956068293864169,0.999923375650322965313421,-0.00529283800110334507610377,-0.116919995540939666844871,-0.0263013249944094827659224,9.72950576152473445290525,-0.0183227536858030781719009,-0.00916140194500919546882756,0.010227786780268484367884,-0.131628025826212718962793,1.45612419196325082459964,1.26001060766122741085837,1134.78269505449179632706,1127.49004048645633702108,1126.18592794349979158142,1143.31895697379081866529,-223.241209201295390585074,-52.9078257861888872071177,-2.6666236679835342293643,587.933360611194643752242,154.029449790111073070875
22.0975000000000001421085,-0.366081080849554207912178,0.798740787313031219696313,-0.437455222648990893485887,0.00271433339969666008115179,0.0097524821867059439256531,0.00110648396287281089965526,-0.00998873821305688858185334,0.00502638470286329280128923,0.999923020855174704557555,-0.00531548279009618016704986,-0.116791036489241453755206,-0.0241765144725082092858059,9.72539395199775746903015,-0.0183964953360921459890598,-0.00936087993305166100876935,0.010014259911944682276963,-0.131582924807998907779094,1.45615216417074266885834,1.26003670822763069736538,1133.9377290577256189863,1127.26024648272959893802,1126.32213611682323062269,1144.85568238255973483319,-459.261332192447014222125,-131.740502684511653797017,92.88902260645750175172,625.741682295709324534982,154.029821309027397546743
22.1000000000000014210855,-0.449085438043235918303964,0.641701499889848814284221,-0.296782126377602595290739,0.00141882064753812609132766,0.0110234614645229409696237,0.000996724474156897820298351,-0.0100200961261028270027351,0.00502525910313034607918015,0.999922713440567823006688,-0.00533223175089723652742002,-0.116620856749165460741757,-0.0219281245336092854569809,9.72154807641500440240634,-0.0184657770221248046516038,-0.00954360236775134672393417,0.00979446752697183189995123,-0.13153617975650139237942,1.45617955774510821065348,1.26006196067746412126098,1132.48638839352838658669,1126.83133797303344181273,1126.65037305653231669567,1146.44766538527096599864,-664.02582700684001792979,-201.789166602970141184414,144.781041260950274818242,597.144879048328789394873,154.030194094941265348098
22.1024999999999991473487,-0.493384477866843085269721,0.464322319574900665983819,-0.159452326703856728240538,-0.000439315661404192012422926,0.0108967544174638150678014,0.00144390880609311135496231,-0.0100536986261983013468679,0.00502531102563576886899099,0.999922429589706451835696,-0.00534538877444619940637605,-0.116501098602290173444906,-0.0197141749300384153120724,9.71795382851761679887659,-0.0185286156106182903213764,-0.00971114488561762058405069,0.00956932121302832977560726,-0.131488021119811476777883,1.45620693095607744993458,1.26008644270954039967592,1130.61759992269207941717,1126.25130064971494903148,1127.04604132312783804082,1147.84140677780078476644,-817.393124260232752931188,-261.057385188821285737504,147.441222610206978060887,467.022922112257390381274,154.030573087787189479059
22.1050000000000004263256,-0.484785544492610354083695,0.291080653910550324336981,-0.0439028324220089027907221,-0.00237097010918539642318481,0.0101757555741897286194497,0.00211550151660394678693189,-0.0100900021620017946166747,0.00502852430191608624349131,0.999922160567442097622859,-0.00535188615396537531454513,-0.116460870907065819346293,-0.0175451002482173504248841,9.71459703777753702524933,-0.0185831802637655627008506,-0.00986555879187362046167653,0.00933994237204455526879521,-0.131438418004768436953,1.45623364332851745750474,1.26010961351715988776334,1128.39942277222803568293,1125.52605104708959515847,1127.38757916958320492995,1148.7827799958317882556,-1011.0485673934647365968,-334.594106679616572819214,103.246756038690293166837,287.876316964218915472884,154.030964759981003453504
22.1075000000000017053026,-0.419786298266844326576575,0.0949142736274004444885222,0.0650562833087756364758292,-0.00389194000391664390176016,0.0100715754685193926987186,0.00248145394954016502986338,-0.0101267414939221894742971,0.00503721157610709929786097,0.999921904018448715056877,-0.00535160548174965899209665,-0.116477181591326847676093,-0.0154211252711225384193217,9.71146434493104671048513,-0.0186281626626579946415241,-0.0100090861644979520900245,0.00910742991233460391642396,-0.131387602814850346089059,1.45625941192229624299159,1.26013171496059905862808,1125.56235708572216935863,1124.57833011631601038971,1127.56227510332155361539,1149.2807883626226157503,-1035.34116545745428084047,-340.667195605441975203576,5.43405182888926763240534,85.8392066496151358023781,154.031454048009578627898
22.1099999999999994315658,-0.331326579192158965359027,-0.06881577008372287418414,0.136119791509926146844123,-0.00446394805787518784978563,0.0107644471705673049760632,0.00230965119787801846304442,-0.0101556860272653849686098,0.00505481089255293853518269,0.999921699753523740561434,-0.0053460675096894273022885,-0.116410770710059188748353,-0.01331637586930220495951,9.70854529161050550101209,-0.0186628824073409235739796,-0.0101440175947392439287364,0.00887289744267056625093293,-0.131335781319572936221007,1.45628444625331132655788,1.26015227132499663120768,1123.22271694494179428148,1123.82271506906272406923,1127.41474942872764586355,1149.21197602907977852738,-890.925337195853785487998,-266.360273466087392080226,-130.516236254269244909665,-97.4155841116237866117444,154.031879697402558804242
22.1125000000000007105427,-0.219402414847622295734908,-0.244001979952809339158293,0.191578432121245756381001,-0.00487850686460656809972924,0.0114267473157979859710309,0.00217342707344545188821727,-0.0101718251738509620624162,0.00507950272571469890053875,0.999921573748868253161959,-0.00533712796820354912208373,-0.11618393630286087681025,-0.0113014184019692917604338,9.70582948760797137310874,-0.01868757404139662417486,-0.010272675603534422300589,0.00863688926913223735393199,-0.131283928777915892549544,1.45630895244799529741897,1.26017203204134964344973,1121.10773039974378662009,1123.24652874898583831964,1126.90969392205033727805,1148.79371044206459373527,-833.418857631778564609704,-178.002198528611074834771,-298.791374495460274829384,-220.624912693097854798907,154.032324316249741968932
22.1150000000000019895197,-0.0663866296137635841789759,-0.462857183663444748944471,0.236065868482570745401361,-0.00578008321702543157588616,0.0113863723735692506933148,0.00254314641781623303543047,-0.0101761420084158036442057,0.00510229281657461567617284,0.999921525770076868866454,-0.00532729512884772080788531,-0.115833176901088644172866,-0.00957948620630123814922996,9.70330641078655276032805,-0.0187034804698576334613946,-0.0103972827335597744341511,0.00839914710526135956103477,-0.131233385626535442591845,1.456333844829350798733,1.26019153001643280376243,1119.05562265678076983022,1122.93270407641921337927,1125.92079255624958022963,1148.10885146561372494034,-639.564417429382842783525,-32.0804681257477710687454,-411.054563768939203782793,-254.386497720866515237503,154.032877933252365210137
22.1174999999999997157829,0.0692756010501308500115769,-0.636020711268604044263952,0.246596303949204148642238,-0.0067953306672606838059747,0.0103376556332951848038437,0.00340172332753715077335865,-0.0101713422638732252367699,0.00512150839557831954323985,0.999921538430664558205763,-0.00531913664599053225001679,-0.115423446421114614390824,-0.00820538169289237312442609,9.70096703799701742809702,-0.0187126479492825369133069,-0.0105196623183166377418774,0.00815907187206861214678888,-0.131185099028588769698445,1.45635913055166721363776,1.2602109409517823213065,1117.90990831259750848403,1123.08612640835713136767,1124.85442110320605024754,1147.5217779534605142544,-308.105171693812167177384,158.806200871126520723919,-449.703222911783427662158,-219.445838762474522809498,154.03335313582132926058
22.1200000000000009947598,0.19276723112309063212777,-0.771298474263957367647038,0.220474648931782479799324,-0.0072717961273370962382856,0.00798778602395023608340185,0.00462542670280292195217342,-0.0101627609386892095444388,0.0051388874632066657011098,0.99992155903507895509108,-0.00531372525829990928480928,-0.115065102495633883594728,-0.00716180455207231225767117,9.69880422848444823102909,-0.01871763618290528050081,-0.01064137561812159189778,0.00791568909410653859248796,-0.131138986484134772991794,1.45638440114171796579967,1.26023091151849819802067,1117.51509679831201538036,1123.72673508077468795818,1123.67227644169111044903,1147.01162227180157060502,22.6261278809078696383494,384.747415489013462774892,-510.868438579711209968082,-202.198454227886230682998,154.033837560595827653742
22.1224999999999987210231,0.28445646467286000991237,-0.861406169566538704174263,0.146024304356298484375287,-0.00593527975392360920836587,0.00424623210207302446972388,0.00579834463843714904840443,-0.0101519824038235652319262,0.00515789645905790922891798,0.999921570769052969751556,-0.00530880656272340791662634,-0.11478958006777841005519,-0.00639329247459541338827194,9.69681602740598336254152,-0.0187210518226343936021294,-0.0107638094258908096484406,0.00766798561956143730211632,-0.131093868708676397627499,1.45640968248961732989244,1.26025099886676983373945,1118.02303895200202532578,1125.00986348580181584111,1122.30007891030800237786,1146.51078568232128418458,348.800511476134772692603,533.303813859826391308161,-470.777025122200029727537,-168.134847051066373069261,154.034421810067982505643
22.125,0.280980975886422512655116,-0.868410173863817469452897,0.0560162422892877542857093,-0.00330693331016795183385781,0.00104769242105947854061532,0.00611040157983966381038954,-0.0101436317315819948120525,0.00517677145164978196045791,0.999921534273355172572906,-0.00530336698112479805466979,-0.114681625051778826596127,-0.00593970212252695195509489,9.69500347461945821692098,-0.0187255120481494979900461,-0.0108880812042268793060629,0.00741465350882412107397235,-0.131049032942537946322403,1.45643535913494837075177,1.26027157323454308546218,1119.25909935569234221475,1126.39325415007328956563,1121.31839131608057869016,1146.17094803654640600143,634.720985261895293660928,578.50830148761326654494,-336.270914098496064070787,-122.979765698010695018638,154.034904992160875281115
22.1275000000000012789769,0.176171082689120184205933,-0.814620181429056788857679,-0.0484670895131907031316842,-0.000706378796939039193397702,-0.00164698276975367894313373,0.00603225867473847644079088,-0.0101423310844828903909409,0.00518451583539597266742094,0.999921436507891336908926,-0.00529960363236197003200534,-0.114820656997502781870857,-0.0060139120722172978439346,9.69337224946955089421863,-0.018733522603316187654654,-0.0110150056239192890850109,0.00715426259915942323874827,-0.131004472803304239381106,1.45646225973580412116348,1.26029282930028219134044,1121.19664387831312524213,1127.90240499324136180803,1120.61872433981466201658,1145.89588685383091615222,849.729724493714343225292,592.08270411161674928735,-222.780611257984418216438,-97.8534124699048390993994,154.035376858780864495202
22.1299999999999990052402,-0.00151828491838505263804293,-0.729554413648188848640075,-0.154075835412897127474352,0.000824628537063907336886193,-0.00362379658004537271928647,0.00577964048478652250850907,-0.0101469710481044365218972,0.00517976316844427544378027,0.999921302568104852781516,-0.00529925946686247723721452,-0.11516803892567785416734,-0.00663781000343124233387115,9.69193340993749963274695,-0.0187472620710376382258122,-0.0111450123682939970098937,0.00688606920710954379521995,-0.130960933530855860862374,1.45649048464982411310586,1.26031424751131426731376,1123.50774797816006866924,1129.35366767063078441424,1120.2044882597908781463,1145.68168097419697915029,945.680143066016967168252,532.864896327979863599467,-93.3932324750643942934403,-65.1485135688419632060686,154.035833661507950864689
22.1325000000000002842171,-0.228514870133385061823361,-0.635981784651405424035886,-0.248739198078804651936835,0.000527865101404667515401503,-0.00455198895763570671180176,0.00503606891535735880227609,-0.0101556965368199449140096,0.00516716693382443005566618,0.999921147276572885864709,-0.00530155202687702421793237,-0.11566477803604567620166,-0.00771276086991730391861921,9.69070106601741088070412,-0.0187685112214402288755011,-0.011278432597329685407872,0.00660992363468590384684154,-0.130918561672959316011244,1.45651970295171007130364,1.26033534445483841324176,1125.92504459364226931939,1130.56672947488073077693,1120.1517581774394329841,1145.57014428598677113769,989.789026271676675605704,448.425653745196314048371,53.3739504289951369742084,-18.3992699047754761920714,154.036265313747236405106
22.135000000000001563194,-0.497212082101082142315818,-0.544982801554177331837536,-0.336800331224041737954167,-0.00171026154587233564403903,-0.00481439756304373033674038,0.00358242788099319506983642,-0.0101633828020398307018235,0.00515146738437130633642136,0.999921013175728345956372,-0.00530568893178267383253788,-0.116184176277177128588924,-0.00913463734177219488508115,9.68969339853093103442916,-0.0187985219069413192483076,-0.0114156231501773113012899,0.00632632835660893160650842,-0.130876596281876589333848,1.45654941178311947425073,1.26035528606073721213932,1128.45669310952098385314,1131.59579593935791308468,1120.47135801193599036196,1145.58968462467305471364,799.769781866530138358939,294.691999425562642045406,168.254361690321104561008,32.8809226481163889843629,154.036745049221337922063
22.1374999999999992894573,-0.680992104811249832074793,-0.496294794184336696130089,-0.38494193935288412156126,-0.00426988687506381619368723,-0.00508993275420921344881497,0.00212974888544929623346302,-0.0101653021198053247070581,0.00513528508919865178672381,0.999920958721959851622785,-0.00530862323823278262069358,-0.116604175398141982067379,-0.0108369784281215283949784,9.68893059200189910029621,-0.0188378992325849842215391,-0.0115571525906403658329191,0.00603624121096304425831969,-0.130834159829290558318959,1.45657978066618398749199,1.2603731009011200914216,1129.92389350297412420332,1132.04018947200825095933,1120.99302998589087110304,1145.73454889922732036212,394.723175841260285778844,89.4439064609010188178218,240.00065659907022563857,76.3165422185163038193423,154.037106158404469624656
22.1400000000000005684342,-0.797433236608549034230009,-0.468911376444482108638567,-0.411403487273226509124413,-0.00696108442384339113490066,-0.00615127010779829581227363,0.000823842449202070374429663,-0.0101575519275939104429929,0.00512222399177149345650406,0.999921023069031633667691,-0.00530816650410029407247681,-0.116816632180987020617202,-0.0127302368949349861693143,9.68843372784732181912659,-0.0188866677393894448477862,-0.0117036852941488026674799,0.0057409923207985946030929,-0.130790317250440712992798,1.45661057617098554928248,1.26038857747322685654012,1130.43030898872689249401,1132.04301547166232921882,1121.6713612949311027478,1145.97126733576556034677,-25.6241974127857119469809,-92.0323348926542479375712,307.869672404310051661014,107.56637031830859996262,154.037418899302195995915
22.1425000000000018474111,-0.851561356314921025223441,-0.441826826692888141590032,-0.433217502137907939374628,-0.0100563890895911285661146,-0.00832516255871498453422497,-0.000238280842293848277822776,-0.010136404485541592943032,0.00511746509173859661506745,0.999921236607132724039104,-0.00530100153295776695822061,-0.116715883810432283218539,-0.0146909811432270470676897,9.68822439363351328722729,-0.0189443197549504539767273,-0.0118560746896309732872909,0.00544210255678449512234396,-0.130745858910782775108572,1.45664118840787115694013,1.26040183072823297472098,1129.79577251591013009602,1131.58002779754474431684,1122.53237834791320892691,1146.27238075081913848408,-426.369865666895975664374,-234.360023953605633550978,308.242766560549569021532,98.9312590071418895831812,154.037728953109620988471
22.1449999999999995736744,-0.830472542111964528999124,-0.414945311421928753059518,-0.455764795706907477335079,-0.0120237626345390726662066,-0.0103627591733008832253216,-0.000667974643593162811273933,-0.0101094939544308076023738,0.00511870143586629772203267,0.999921533344177104751793,-0.00528537965500074438662814,-0.116417828419129801287291,-0.0167359537498435566316157,9.68831974031324527629749,-0.0190101046929470537949491,-0.0120153322745008561689417,0.00514041615506462268303522,-0.130701179887526053313707,1.45667162484602297212177,1.26041399838969914171116,1128.2984596603928366676,1130.87121535189453425119,1123.21257512773354392266,1146.46592363080117138452,-747.418754961439390172018,-328.10456807953573843406,256.087587411508138757199,51.6323737481446158881226,154.037927040695677760596
22.1475000000000008526513,-0.751517927604705371358307,-0.387333770851839676030437,-0.491564664717697552553943,-0.0134027795857103379506547,-0.0117302208758287944412313,-0.000798478711788912134256213,-0.010081292812091692881471,0.00512144511970209336676474,0.999921877024264937894316,-0.00526201888235806533589134,-0.11597926375747248661785,-0.0189207086824045161987939,9.68873790645496590911989,-0.0190829319490607232645552,-0.0121824398113693083134379,0.00483662646506784373034993,-0.130655989203752959104676,1.45670209941634620776085,1.26042567227713608879469,1126.05867874110367665708,1129.93950495714739190589,1123.81281628497049496218,1146.53054261955981019128,-1061.44547952990524208872,-429.951676589969906672195,250.001901674849591472594,-9.28869675798957850076931,154.038056985377636465273
22.1500000000000021316282,-0.596874380904783397028268,-0.372435111620122660802679,-0.542822861838704429082725,-0.0152323118389384969117994,-0.0119715990899837785438331,-0.00119304856234079517847413,-0.010051512112576653154572,0.00512125505150979373064635,0.999922278373845174748169,-0.00523239329640918550412554,-0.115367767243889238204524,-0.021297336321864864666642,9.68949809971465469971008,-0.0191613632236794124985568,-0.0123583073295019611054224,0.00453137185369693884506859,-0.130610142688882130412864,1.45673222647630540294017,1.26043707569865959250421,1122.99123226274059561547,1128.72145696894358479767,1124.46258463610843136848,1146.41948014701119973324,-1107.33200703302122747118,-440.251580375612604711932,236.363846547375686668602,-70.4961836169926954198672,154.038129632669495094888
22.1524999999999998578915,-0.419009804656065965033918,-0.38706182004682104791371,-0.573857154347857334464322,-0.0170579196274571291691569,-0.0113881006202366380497537,-0.00224110085187054870400902,-0.0100187197330096882524897,0.0051189348601279466288716,0.999922730415402916115397,-0.00519903069105814592126835,-0.114532284346719900880451,-0.0238136777166644587888644,9.69061832575954440471833,-0.0192437321917576509289205,-0.0125436209449644921892775,0.00422528026820135748503615,-0.130563023363907265705919,1.45676185304067518089255,1.26044820870597429340876,1120.52201870593967214518,1127.73824705526976686087,1124.99463551770713820588,1146.17806170147491684475,-877.782038947263572481461,-364.085039936917041814013,224.904539382486461818189,-115.535294151436815468514,154.03811876667052160883
22.1550000000000011368684,-0.195454014587819940862445,-0.425658555967574958600608,-0.560786343465894288051743,-0.0185834749355349194976927,-0.011275818733188587919547,-0.00447690454103342322378367,-0.00998575173287956363576967,0.00511568006224523245950575,0.999923200968760639284483,-0.0051614395594058786950753,-0.113509068077036576194239,-0.026408264035356329713089,9.69211287626207962375702,-0.0193282032483628705976653,-0.0127389355472455698820022,0.00391871840629321420423903,-0.130514658905294983481937,1.4567918026047712576343,1.26045900893532580866463,1118.60232206800515086798,1126.90103176925936168118,1125.58710733302063999872,1145.84180367625413055066,-637.784200075011085573351,-318.940738853025095522753,286.778353155352988324012,-146.029948531788193122338,154.038032924591675509873
22.1574999999999988631316,0.105065346861712427539715,-0.468379565012750576080691,-0.46363975525242562270023,-0.0194676831298118205304526,-0.0127134574453121786813403,-0.00824587324497762230723907,-0.0099595066266947012562083,0.00510918906469740204123742,0.999923623646887471672073,-0.00512167984529368017915241,-0.112419008391977978678078,-0.0290849493307089104754404,9.6939920482742643059737,-0.0194130403548038073247017,-0.0129444147338065237984317,0.00361177579127472305614566,-0.130465814601021412588722,1.45682267603573545322604,1.26047051420354372375243,1117.33309770556525108987,1126.14354336100495856954,1126.42852728348361779354,1145.44791195881612111407,-263.702449644331579747814,-232.390546967236190312178,333.141085895497667479503,-123.86306989785870769083,154.03784416364561593582
22.1600000000000001421085,0.357289989179167377653101,-0.471575033840715640565122,-0.312367498426919298903925,-0.0192222972461739104177436,-0.0148844731407351826835139,-0.0111785368782109859053797,-0.00993938762593508939868769,0.00509815155529140355550322,0.999923983188330312010805,-0.00508552103958358203694701,-0.111243657761837852482323,-0.0318273847898453213223213,9.69626629644701942822849,-0.0194966464704134680163694,-0.0131597504346356256738071,0.00330496927225423266227811,-0.130417512138260582865712,1.45685459319950361134488,1.26048265442564666471981,1117.28380981978375530161,1125.73907903442341194022,1127.25281276249779693899,1145.22248832676496022032,183.755046437997066277603,-115.169255290752715836788,350.652586447179373863037,-53.3661307770398565253345,154.037617346555862241075
22.1625000000000014210855,0.573963298442727087866899,-0.416051032457973868350365,-0.117890110524324590035583,-0.017824867885985515303382,-0.0170859878433771705807942,-0.0124836682056267741364186,-0.00992581650729193638860171,0.00508230641193673730177105,0.999924280617062177789478,-0.00505339032919181144892784,-0.109989795924638741886348,-0.0345997471010568435900723,9.69894190182870907790402,-0.0195773809393031926473494,-0.013384583830921198410735,0.00299912721795445123135204,-0.130369491281798921544777,1.45688761829402468883643,1.2604946468736502040997,1118.25187293775570651633,1125.56769708455090039934,1128.181790215720411652,1145.18108130493078533618,523.023652822907365589344,-31.0206904911017637971327,380.682956995481845297036,14.7111797254212604002532,154.037321912868549134146
22.1649999999999991473487,0.73269509410274646921124,-0.306695755870372510631938,0.0718148333481988809801067,-0.0154678791923736017738245,-0.0188643444881374418298225,-0.0120717761408095525937911,-0.00991841323788381599990682,0.00506755755239146881557799,0.999924497517158061832276,-0.00502645431220600027999446,-0.108653965818866535264497,-0.0372467145168920155118286,9.70202096448875295209291,-0.0196536369508148560381056,-0.0136183244631736619784101,0.00269574617508646155461527,-0.130320513634278656311949,1.45692148597434512069526,1.26050532502551559943527,1119.89892808389777201228,1125.58397558196793397656,1129.1562275474748275883,1145.29604422539205188514,758.943658376998428138904,52.9898392384089618190046,387.78050842050544133599,69.9231262989226678428167,154.036972664450530601243
22.1675000000000004263256,0.795393593813536692316291,-0.141729467433626521444268,0.204254485707959315687887,-0.0122335839677840518130436,-0.0199533318642887286253895,-0.0100338664630679631067922,-0.00991512197620580786050493,0.00506131952677912975296914,0.999924635459922050984005,-0.00500576507190405618763496,-0.107205674799500147442721,-0.0395844091012720056266261,9.70550125071540747967447,-0.0197238359505390835335614,-0.0138602851188189182124466,0.00239692052824802158059181,-0.130270436478544526792689,1.456955745483856423661,1.26051416819519923606663,1122.04659122963994377642,1125.83264628074289248616,1130.12069275782255317608,1145.53069693642532911326,968.586769536255019374948,169.261411638676491975275,404.859741043830808848725,101.883023043858599976375,154.036562499243672164084
22.1700000000000017053026,0.748052346651959410017696,0.0946269257241619532461385,0.253235593364177946629212,-0.00826775967542341463922817,-0.0204141355729466171531339,-0.00693331563235866782379802,-0.00991659148814854653208872,0.00506394330846150764191549,0.999924700720065229297973,-0.0049921792468006235751754,-0.105672812151889214393741,-0.0415668746517633483361642,9.70937377983972815798097,-0.0197865520268752335952822,-0.0141097419572600493026249,0.00210482591697554828266692,-0.130219649319096575368349,1.45699058722205565530317,1.26052178938495718085733,1124.74186193158152491378,1126.43028264016174944118,1131.18052625269501731964,1145.80545934061160551209,947.13536139830205229373,274.900072401815236844413,360.941821785016998092033,78.5416548061832031635277,154.036005305591970682144
22.1724999999999994315658,0.618090583903576074042974,0.298418638082493359320324,0.196700834449566180905933,-0.00571005247700131796789735,-0.0200695744184776932172998,-0.0048333806256673867915441,-0.0099196333075253616956557,0.00507273591463951005475774,0.999924710660610505108536,-0.00498581300775272420744422,-0.104013652803494130449913,-0.0432093732058453361410955,9.71362489432056541716065,-0.0198405609211281044879094,-0.0143659182923725758929123,0.00182195562929541535895916,-0.130169169141981511117478,1.45702688653736323054488,1.26052795120268013029374,1126.78226803663051214244,1127.20714664275169525354,1131.92540186674727920035,1145.92340521045616696938,721.203956692131896488718,372.515726984221601014724,258.195504381416412797989,8.35620474326954365551501,154.035490987989788891355
22.1750000000000007105427,0.427757397202844114048048,0.475834500098183621474845,0.0622520739576566117801093,-0.00442217137197811228921385,-0.018900416002750854843617,-0.00395866326108912369718951,-0.00992477784396963470803232,0.00508328587825306130870695,0.999924665950713831286123,-0.00498378034373429031761438,-0.102262493618648184212638,-0.044562879362533808214053,9.71823279453178656694945,-0.0198848132945664557436061,-0.0146281287381066337632829,0.00155074781728861384524909,-0.130119087873778627173493,1.45706495093612198310495,1.26053228287030316678852,1128.34788171504146703228,1128.29286127508248682716,1132.47150377460184245137,1145.84724036432794491702,550.139854778208700736286,543.68040003673206683743,185.270104425304253936702,-79.1675731144600547395385,154.034930014362970496222
22.1775000000000019895197,0.178649475734985935249099,0.620905751675535411138185,-0.139995033988914746592158,-0.00406859906249511238396366,-0.0164834628524449001985008,-0.00432644537533970283821327,-0.00993202513381686441507057,0.00509371186405894668669525,0.999924576502891682139307,-0.00498209916270822301270771,-0.100446128146482141496598,-0.0456318286885494042715017,9.72316928295682458838201,-0.0199184183625556350538677,-0.0148958236571590050406622,0.00129373347667032217306327,-0.130067863695929375467131,1.45710426878157495167443,1.26053480583725874275558,1129.53296731052296308917,1129.92554864293674654618,1132.85175238887427440204,1145.527567344883664191,317.111773918504127323104,641.2263850238925897429,89.0131288326478795625007,-144.393527210633322965805,154.034209298548745437074
22.1799999999999997157829,-0.013068892686397668226328,0.66454099354425733015006,-0.304321183530084915513925,-0.00442518596784302869345806,-0.0137309194331116102283374,-0.00545017905242238445001624,-0.00993558207658486874924719,0.0051058130142160318420963,0.99992450402342414328416,-0.0049762230969843937108954,-0.0984804944745801130734364,-0.0463523056682859577182221,9.72840213376159645974894,-0.0199406894602006529160221,-0.0151686883628215883612622,0.00105362150011349816822182,-0.130015324440687141116513,1.45714374293465298570993,1.26053605964149229023974,1129.93344058463367218792,1131.49899320020131199271,1132.91656941876499331556,1145.12527272827492197393,52.8564507955357498758531,649.746333905379401585378,-30.3054235851565216819381,-167.610769531199053972159,154.033573947233577428051
22.1825000000000009947598,-0.157388081350778530342893,0.619305906099204550585569,-0.425872437858517693953786,-0.00532920579885278866000275,-0.0107892032675216045095601,-0.00727309462084754776434181,-0.00992826776208893986563897,0.00512407639493000274105716,0.999924507090469871783966,-0.00496394379995646235770312,-0.0962555994959754940287766,-0.0466104770324448081098012,9.73389372892150817051515,-0.0199513991730231911303495,-0.0154465398640628494980609,0.000832964773042297874743045,-0.129962027224886728093978,1.45718250217692224524058,1.26053647193896378730926,1129.79724956450058925839,1133.17428031246299724444,1132.70022527094852193841,1144.68951349722783561447,-154.783193559918657911112,724.595648202792744996259,-162.901301362067556510738,-174.657779807137757188684,154.032908294383787506376
22.1849999999999987210231,-0.253284465557848004202413,0.479748100124744447647629,-0.494349735878912066588953,-0.00688382311501098236028451,-0.00815408902158946263805106,-0.0102450842407367168074295,-0.0099092612809322886541219,0.0051454721530118634892359,0.999924595114624170655304,-0.00494894803719066883607169,-0.0937867619390437973203589,-0.0464402319729227547329131,9.73959864329224167533994,-0.0199510395037416042585132,-0.0157290785000334387699894,0.000633451184787668826470242,-0.129908825944485106784754,1.45722107964282532321931,1.26053594800112644946921,1129.15952461683423280192,1135.12197144121455494314,1132.10206291195481753675,1144.25198382923940698674,-287.614754532853964974493,674.022484924987566046184,-275.150239685044823545468,-135.460479057046200068726,154.032080308008858082758
22.1875,-0.262857796196021953338828,0.321154510754824262797058,-0.482937649530466472924672,-0.00820640991896347087031227,-0.0071854377511869453598603,-0.0127215755505856124157882,-0.00988416771628832305229828,0.00516242564199177744743707,0.999924732869448051886252,-0.00493702915550693795243564,-0.0912146578989192907682693,-0.0459670323547132012032002,9.74546470572161815937307,-0.0199407373544555725775052,-0.0160158583775881456501278,0.000455917516586430552651132,-0.129857027829079180181182,1.45725980909439845056852,1.26053449862772715128756,1128.35917579183660564013,1136.54439273708726432233,1131.32447407252357152174,1144.01221110194273933303,-343.14701727699412003858,491.738935819215271294524,-361.52802757723895865638,-70.2277379485717574425507,154.031369413457440487036
