t,ang acc x,ang acc y,ang acc z,ang vel x,ang vel y,ang vel z,quat x,quat y,quat z,quat w,acc x,acc y,acc z,vel x,vel y,vel z,pos x,pos y,pos z,mot 1,mot 2,mot 3,mot 4,dmot 1,dmot 2,dmot 3,dmot 4,vbat
49.0750000000000028421709,1.986778469416019321514,0.483941345840597170191444,-0.0565297164582692704404288,-0.00194884213620368298980345,0.00144664781812862204730952,-0.0216239570735090001762924,0.00711073952409570046728771,-0.00517020519007296147639963,-0.303845594032390697858403,0.952680538093098605578746,0.0403420129480006120492597,0.00237419643751672626574845,9.85782501397947541477151,-0.0114526239996546753269202,0.00263602121662345235952873,-0.00867768615775117539701267,6.4853800282082998407418,-3.39446358287552296673084,2.06546654940308505032931,1134.92862282162627707294,1128.02942058655662549427,1150.50264736550934685511,1144.2450179090458277642,-146.944907475214989744927,-433.149958741847854071239,-129.692510791098413847067,459.429203436085629164154,153.804944969826181022654
49.0775000000000005684342,1.98135272993477951075647,0.561885532075383942185454,0.0362264803206707869387415,0.00405649054052549702664709,0.00256877925825901810494289,-0.0220232566329760688639272,0.00712708792234682288191383,-0.00516674183049763494079976,-0.303864187027245324923541,0.952674504654842713158303,0.0397662823238389695479356,0.00311117776762075137764185,9.85727728047015183676649,-0.0114870449954505814138539,0.00246865315750962504084964,-0.00854309412638747447954479,6.48536451676916581021715,-3.39444579284011460629245,2.06544964126233754342366,1134.58416899007897882257,1127.04060365287250533584,1149.94471029148053276003,1145.21246767513230224722,-115.998236125929906847887,-410.625333471271574126149,-355.569043191558705530042,311.118960387021729729895,153.802569092333783373761
49.0799999999999982946974,1.82667228122069347229228,0.639983824082464347604571,0.20378154232674067225517,0.0108822337285273389867468,0.00419322900273838301138385,-0.0221500429728427629394449,0.0071420283585438490425723,-0.00516584770844350817109447,-0.303883365318651121889104,0.952668281834581076594759,0.0391870876531476841631019,0.00396091097331846553331047,9.85657830432152159971793,-0.011532401494765609842319,0.00230588469314648575325677,-0.00842358131615956323701155,6.48534752339508280272184,-3.39442797796739226257046,2.06543252352015560546761,1134.34863164099715504562,1125.97629391920213492995,1148.72480214955317023851,1145.80061271097952158016,-41.1922877152181428073163,-379.515645953039438609267,-531.956477600488824464264,112.624919518963594100569,153.799761415945511089376
49.082500000000003126388,1.59200258997080790202006,0.680588551140256292626418,0.386310524705289093372329,0.0156697565072170287570064,0.00600303709615345165023781,-0.0218924687724206396000071,0.00715727654580293904534871,-0.00516675542428253215671008,-0.303904805347604611842627,0.952661326903554650513684,0.0385960384219132604521896,0.00493056013722553698741535,9.85578824876212600258896,-0.0115860991757872934526663,0.00214868909034425558182702,-0.00831896156165666707249517,6.4853287672203379088387,-3.3944093837695001880661,2.06541543999373944373588,1134.37820755150278273504,1125.1430254231063372572,1147.28492790347672780626,1145.77559227272740827175,69.5232076105284164668774,-321.330924448256382675027,-645.648766818646322462882,-106.138575987133933153928,153.797462901136356094867
49.0850000000000008526513,1.28378611096551198400562,0.683239315315079309698376,0.601940796493191543348189,0.019109675247747592852221,0.00820819293412784409258443,-0.021294299167718477167055,0.00717549665186225423679778,-0.0051671526527504304734939,-0.303928427745227991429999,0.952653656881403798628583,0.0379454823693866558076415,0.00603349880897638413124184,9.85496609468800244258091,-0.0116449562359582457077289,0.00199783997095826035966804,-0.00822845633722165369083879,6.48530787994871005253117,-3.39438953712469881907055,2.06539848651672386381506,1134.69624767904997497681,1124.36963929696003106073,1145.49655831545828732487,1145.26991983104358041601,206.997452748880277795251,-307.016444479410893109161,-836.558095693395898706513,-299.202371170985486514837,153.795212784228453983815
49.0874999999999985789145,0.878492491509574979779984,0.636584832798171351697647,0.87490196362779160121903,0.0218471756059224510304606,0.0108378643842833664173719,-0.0199838931466125198366246,0.00719750184606879166160365,-0.00516646944967885223681803,-0.303950981582397805613738,0.95264630427512897448139,0.0372262704338269384551907,0.00725706237897361106092831,9.85416768564941314423322,-0.0117055724392564845098841,0.00185398082604920112770319,-0.00815062846071995701635604,6.48528499590549323272626,-3.3943688239099523151765,2.06538140114374479949788,1135.413194815246242797,1123.60794320071067886602,1143.10213742501355227432,1144.2795804168738413864,311.694862547869604441075,-228.624584217069610758699,-893.080607858789903730212,-392.457438482442057647859,153.792574572598368831677
49.0900000000000034106051,0.545552356526832871175259,0.56022411521499160258486,1.08773636135213203068872,0.023191737023675714629567,0.0127124714568064099001754,-0.0181214662916033275585903,0.00722173249317095700128277,-0.00516440475433787866271773,-0.303969246028423345507008,0.952640309063754631146992,0.036442721667587635314689,0.00854482595007191592095808,9.85344431784968399767877,-0.0117646450228631824913572,0.00171756386969992781883765,-0.00808344513980672509101399,6.48526041696076216425126,-3.39434773494758657008674,2.06536395408253259375897,1136.25472199179012022796,1123.22651637587409823027,1141.03115527616205326922,1143.30763263863036627299,372.831760430144925066998,-70.8872164794776153939893,-812.681434854714893845085,-376.025290786891218886012,153.790431680838395323008
49.0925000000000011368684,0.252658197675207807364473,0.458606934421124878831222,1.24451501580201639995948,0.023621874843089162021581,0.0141481451040905530092129,-0.0151363310215344715192742,0.00724854307488437266115966,-0.00516267574867275425010149,-0.303982557068211423079163,0.952635871814705548210611,0.0356198203003465982408038,0.00988847218832299146296094,9.85284021468587667413885,-0.0118192517799561701979938,0.00158868351651766026230717,-0.00802436208083834659476885,6.48523440380423465967397,-3.39432628175383754864924,2.06534509811055011496705,1137.27735361739792097069,1123.25350711831310945854,1139.03873025073789904127,1142.39945396293842350133,471.084296783893535121024,131.537536746674533105761,-827.229072618663167304476,-346.283704734556806670298,153.788350900136606469459
49.0949999999999988631316,-0.0212669241496248329070795,0.330306428801775853187905,1.31784978007061370774977,0.0229111801417289720483872,0.0151063338032985331610414,-0.0102303094293696300587371,0.00727556675151907333853885,-0.00516025532608238579612703,-0.30399209353125966615039,0.95263264043584250373442,0.0347422675737324576639153,0.0112130080005670290654862,9.85239293166812046820269,-0.011867009616347283518234,0.001467149521037979962787,-0.00797053843852106591594264,6.4852072276750183377203,-3.39430439505947800782337,2.06532462751232603892504,1138.61014347570744575933,1123.88420405960687276092,1136.89500991307249933016,1141.57621411495915708656,490.699482680451183114201,338.783623643948374137835,-726.910995114932234173466,-244.666976590963145099522,153.785930353884111809748
49.0975000000000036948222,-0.171578575183329612441341,0.235339079860523298082242,1.25531718657474944400576,0.0212913690711285762124927,0.0152426852823588174917768,-0.0054166175181530745730285,0.00730157172064914254672185,-0.00515534178657133836110038,-0.303999505150599869107708,0.952630106684412725215338,0.0337695421343984225615031,0.012461720820271457443873,9.85213154104589072801446,-0.011906260211070884835749,0.00135243020301433641318367,-0.00791907507348077986664148,6.48517926682493328627288,-3.39428214565154817705661,2.06530295988354106739848,1139.73085103080143198895,1124.94742523653371790715,1135.40417527516137852217,1141.17611907998298192979,434.290858017635116539168,531.246459741215517169621,-517.642008415495070039469,-107.570363766253180415333,153.783979913479385004393
49.1000000000000014210855,-0.243984031282488383896023,0.167463018039003042058965,1.05410611496824024868602,0.0189742213802079617845919,0.0147662436728069959568366,-0.000767834687439449556714544,0.00732575112859045352725618,-0.00514748320250842106293732,-0.304005619893328360436868,0.952628013977483090179987,0.0326815487964947082311085,0.0135962806943699804351766,9.8520760134410814146122,-0.0119362364487164054199786,0.0012436918455257831798294,-0.00786718999659302697935459,6.48515127129338075917531,-3.39425985232514992873121,2.06528064198522542938008,1140.78159776579673234664,1126.54043635831430947292,1134.30679987099370009673,1141.03836229612761599128,434.602701600019486249948,799.393914226674837664177,-373.761828248483425340964,-31.7982184074315199495686,153.782101920649012072317
49.1024999999999991473487,-0.278022663971815242600627,0.118630791093545712167057,0.678458847925804908740588,0.0166155434817357589016851,0.0141308344561624464608141,0.00324743640919251518733857,0.00734744689349236829861711,-0.00513535847875899037484615,-0.304011258460267497216734,0.952626112517749756847252,0.0314402092264675567245824,0.0145789550128963135700033,9.8522375386808747066425,-0.0119570852362436280680313,0.00113982276837015544974918,-0.00781242389464786510244743,6.48512380307048807992487,-3.39423787350821593022943,2.06525834958046461409253,1141.90386453879955297452,1128.94439480766345695884,1133.53536613392066101369,1141.01712798794596892549,385.949726383007941876713,937.151049403721913222398,-180.423879931503051921027,-14.5990223776532612731671,153.779935377872362778362
49.1050000000000039790393,-0.311734549611870914720413,0.0932129341108094006118634,0.294945207304084078270279,0.0161179118067495096011665,0.0143142468192998251197423,0.00455195264163558988013136,0.00736794721461816494445518,-0.00512023391475102066655589,-0.304018513570447068694591,0.952623718734753266446091,0.0300452104326106757270498,0.0154276297948961055306327,9.85261793037812338980075,-0.0119698660298093659259955,0.00103940468912043027308045,-0.00775265806025846656440725,6.48509714549164950625482,-3.39421620248349054094206,2.06523599280084724227891,1142.71134639771275942621,1131.226191605335316126,1133.40468047133572326857,1140.96536718423931233701,299.609139245223104808247,932.643462784131202170101,60.9420995800662410601944,-59.6276220396398102252533,153.778204570997218070261
49.1075000000000017053026,-0.419395109508328256531229,0.0615166636934842830930492,-0.101039959331286399724092,0.0173732279104166706384937,0.0153108517062807251984946,0.00391590212197541042565829,0.00738449746644800897321659,-0.00510224507209719197603492,-0.304029785055741685884101,0.952620088050303959192888,0.0285018169288663060501055,0.0160814489351912559556013,9.85321192263223721852228,-0.011976402625788940339846,0.000940908918190930254610294,-0.00768616793653465000396574,6.48507174860105717328906,-3.39419478153285147925544,2.06521410282945394598642,1143.40191023502643474785,1133.60761212158649868798,1133.84007663182114811207,1140.71898987774761735636,261.678924816498408745247,938.779739807922624095227,263.573467054323884894984,-142.345096730689277819693,153.776553411700575679788
49.1099999999999994315658,-0.626242513011502466291347,0.0121371083363991938419701,-0.465970746446111139249524,0.0190400199999203635636835,0.0163025072349022893958281,0.00225570363602369504396616,0.00739356903949415274895918,-0.00508268803127207360881279,-0.304045607211518631451952,0.952615070030744304219184,0.0268459577619940235881923,0.0164760475725747312925051,9.85400697345188092413082,-0.0119791347950340167083372,0.000842787249771379367094259,-0.00761159621884300880562124,6.48504783348534274978192,-3.39417359831356657551282,2.06519288933750422287972,1144.01974102179406145297,1135.92009030437066030572,1134.72254780660614414955,1140.25364170058651325235,234.910528755124573763169,872.666937008361060179595,440.437152833739901325316,-232.951684073504083016815,153.774969668690147273082
49.1125000000000042632564,-0.960802768856590772017512,-0.0610059591997240413530079,-0.757295079946244786839316,0.0198669408576935477284131,0.0166523090236104648331761,-0.000253968807723067282675067,0.00739208158145841787156627,-0.00506390336336857548732437,-0.304064833838535719667817,0.952609041642343390421388,0.0251359469746448051241661,0.0165658294986128634684874,9.85498395599552878820759,-0.0119809149093117548595666,0.000743576898924225987430603,-0.00752791554587132344389389,6.485025438582217027772,-3.39415277941416082541082,2.06517217100342831415105,1144.5764628788026584516,1137.97094680663053622993,1136.04226239599097425526,1139.55423145737950108014,232.153246725073955758489,800.664818886161469890794,638.585493321980493419687,-332.161271009511608554021,153.773468577284063485422
49.1150000000000019895197,-1.46578375549942552247273,-0.167254682715252900315761,-0.995084554181597136235382,0.0187613028406991740049126,0.0160930514218717846119944,-0.00405418292323605176930013,0.0073802646192735526717299,-0.00504650261111434447758306,-0.304086412270730965801135,0.952602334054595600854043,0.023383986028456229394612,0.0163609417189523459468248,9.85611794433938825932273,-0.0119847397639393660889739,0.000641958657257635234572035,-0.00743445998561622928973991,6.485004468758821971619,-3.39413259804719391610206,2.06515176335341044122629,1145.18050725542002510338,1139.92341439880351572356,1137.91547527321768029651,1138.59283534553810568468,205.264436803468242942472,606.728790063977385216276,696.607289144637093158963,-342.081946132786526959535,153.771764200691052337788
49.1174999999999997157829,-1.90752898896317568677716,-0.263128401682817980589135,-1.09524963208106096423933,0.0153822670646633578167561,0.0150320824901457317235298,-0.00767593148484573689627197,0.00736378603024756810818685,-0.00503218626800384320058024,-0.304110037974443137009928,0.952594992327244427521293,0.0215967016235314203387308,0.0159838117735652401885105,9.85737844151765685296596,-0.0119935548611951083020077,0.000536807868723344710180923,-0.00733085528429343411677133,6.48498453291824183963854,-3.39411301190996894661112,2.06513099278978318196209,1145.60278506281906629738,1141.00459075694766397646,1139.52529884171099183732,1137.8438217267171239655,136.714761311780506503055,300.481714178368747525383,609.488155517608106492844,-252.622091431347058687606,153.7704254056950787799
49.1200000000000045474735,-2.27206008667292991276554,-0.363297712618531887240891,-1.10621059661047671518475,0.00898774696016353680239064,0.0140682998108830059624808,-0.0110834262045342180763585,0.00734579994641223338325275,-0.00501963598797401308604371,-0.304135351862247993448563,0.952587113614049463272693,0.0197457566132226876309819,0.015494696994952941726531,9.85873265915091145927818,-0.0120100256796840214323918,0.00042742003715625774985104,-0.00721707325209894161310853,6.48496495701324882077188,-3.39409402988509745213719,2.06511046888374849572756,1145.86408106197927736503,1141.42582296969612798421,1140.96291605080728004395,1137.32972488838072422368,51.5218196496071101364578,30.754422755974427872161,555.02580642836414881458,-144.499267106556288808861,153.769171708635354889338
49.1225000000000022737368,-2.51415245058354219764851,-0.49241079962981615381068,-1.05058527386559297234214,-0.00149342632244511960490363,0.0134979634979367994068733,-0.0140424221839865453337337,0.00732591700790310995650145,-0.00500787486212428585574674,-0.304161773680791724938643,0.952578890281420065377915,0.0178367986178560346266497,0.01489185983045811234593,9.86014636983850678575436,-0.0120364447402028645894845,0.000313537912633564440703648,-0.00709338254026147321806839,6.48494516632973017067343,-3.394075690334110717572,2.0650909272698889651565,1145.86039416106723365374,1141.15836287072761479067,1142.30042787385423252999,1137.12132539118397289712,-74.747027167609076059307,-212.116917356081216894381,413.080751034215666095406,-3.69730351172047200236648,153.767765441138351434347
49.125,-2.50666727119835641701684,-0.607814838473032081900271,-0.976512092937907971723632,-0.0108996973498669876695422,0.0128903189930715308259002,-0.0155981673697373774550856,0.00730297266104524937790909,-0.00499591338623485599346186,-0.304188527842148503932407,0.952570583577655671803086,0.0158855264946918019186572,0.0141607865781321479170529,9.86158441026795884454259,-0.0120746366322078482746782,0.000195284678596667189785091,-0.00696033257420701489959214,6.48492486672925050328331,-3.3940581065159549645216,2.06507270790793517889483,1145.49034592614157190837,1140.36523838291668653255,1143.02831980597647998366,1137.31123837082213867689,-242.891500863191055259449,-399.910206193453575451713,214.030431897812405850345,139.222173481029329877856,153.766674612562496804458
49.1274999999999977262632,-2.28044936695767930245893,-0.721443210813971003148026,-0.900638208619254476694493,-0.0187307711717227855230394,0.0112930692372990304495062,-0.0168813753390322854319727,0.00727550535271425779376697,-0.00498380186839410353055735,-0.30421444794310154025041,0.9525625771873934555245,0.0139336317081353230906693,0.0132888656228523915903139,9.86301141101419176493437,-0.0121259345308226008236518,7.30841837108184695604926e-05,-0.00681861477580520541907916,6.48490396230053178783237,-3.39404154873018804039475,2.06505542603535330314912,1144.64593665675238298718,1139.15881183976216561859,1143.37058003334232125781,1137.81743625858848645294,-485.693553052421350457735,-571.373530324470834784734,81.8771596335899971563776,268.591997450493124688364,153.765666331059605909104
49.1300000000000025579538,-1.81235175595682918014973,-0.837320938391280522594684,-0.819771040437731079997263,-0.0253006005547148464518425,0.00829236776995636096221354,-0.0185768321185570614573201,0.00724552200118539022760666,-0.0049752590571950612921559,-0.304238916995901220730047,0.95255503436381805393296,0.0120743401520199168663883,0.012351377158763637842398,9.86439160209282128732866,-0.0121911703620807797265879,-5.25308526662278735459323e-05,-0.00666892239487573874889836,6.48488250986008907261748,-3.39402584014236685661103,2.06503777754953921075298,1143.06187816087822284317,1137.50837073129287091433,1143.43770560414463943744,1138.65419835807529125304,-663.437717373269038034778,-598.967763542726174819109,-13.6388390067553046947069,325.165656984397287487809,153.764549098908503310668
49.1325000000000002842171,-1.31840382070744310816224,-0.907999287711612090845392,-0.758717312863186221782996,-0.0285188483832281534924302,0.00549709091202892335265018,-0.0201276683260251804119534,0.00721391332077097897218509,-0.00496965083303417543003633,-0.304262873107936759886627,0.952547651809022788427228,0.0103277613922302148596888,0.011376727660806704167662,9.86569140448360570871955,-0.0122705596187842273098179,-0.00018096444444195484806126,-0.00651210015931928936500084,6.48486059846938722728282,-3.3940106121312170195381,2.06501984979543973253158,1141.32874806988434102095,1136.16397302204700281436,1143.30238583830850984668,1139.44326454351130450959,-745.234316354795055303839,-494.15718738022786737929,-74.0986750961602353982016,319.311151084520417953172,153.763692759413146404768
49.1349999999999980104803,-0.787927280538379348762135,-0.952778412743785607652569,-0.693604796355314578981677,-0.0300929688385288274243834,0.00306224507018600707736189,-0.0218783499323150498749868,0.00718133380452591011527952,-0.00496518419145681663695591,-0.30428753474016079216824,0.952540043461714613926006,0.00869425100529103503377293,0.0103817624836617800054839,9.86687947363583184312574,-0.0123637215382461362889188,-0.000311632961300946234942111,-0.00634916249034844695081636,6.48483817484122493368659,-3.39399557646337157734706,2.06500222781218223389033,1139.33570657910763657128,1135.037584794393978882,1143.06721222866417519981,1140.25075411349644127768,-804.250940929566809245443,-398.856655636223536021134,-100.350227434677023552467,322.406652174976102287474,153.762910199079726680793
49.1375000000000028421709,-0.271466117277099294735621,-0.983022867065712513401365,-0.614961193768873815024278,-0.030753477124994450103701,0.0010260514377794054379639,-0.0238302374450447378151363,0.00714912857698655340721317,-0.00496035891272521897027437,-0.304313524478420527330513,0.952532007655298995629778,0.00717473170860803439313758,0.00939765881206622299970377,9.86792687144062696802393,-0.0124696983584754259727356,-0.000444000533000396535848048,-0.00618131628068855319690922,6.48481494655233170476549,-3.39398048387898176869726,2.06498563458834683004284,1137.3074933652344498114,1134.16968974386486479489,1142.80063470113486800983,1141.05529780438700981904,-770.186018574274157799664,-281.955080282970243388263,-105.11288068854889843351,322.117449589740147075645,153.762185519303670844238
49.1400000000000005684342,0.186188272384571584794344,-1.00378402289169477157316,-0.510882653407713327453621,-0.0303864441653616673688632,-0.000788494853870777513346613,-0.0258410223071241854086999,0.00711792051634302803259091,-0.0049543709433745586334652,-0.304340378394929056415918,0.952523693356559508771397,0.00578540940582153873777971,0.00844565212724258940202304,9.86880772643202774929705,-0.012587007874587543762579,-0.000577568603950552529775753,-0.00600989736635267838421592,6.48479065763740258887537,-3.39396526893125383139704,2.06497078553622070984375,1135.48477648623429558938,1133.62780939297840632207,1142.54164782522116183827,1141.86134136144596595841,-694.010701100063670310192,-175.630943512647377247049,-99.1528929167990611404093,354.436987158446243029175,153.761526153749088052791
49.1424999999999982946974,0.623500487663147251460316,-1.01978161564307612252378,-0.355533218215833946018734,-0.0286395784922717985820917,-0.00318765864645381528930113,-0.0277786653587226498030027,0.00709107745116423562881103,-0.0049497572151358118844322,-0.30436797592514591714874,0.952515103141512664564061,0.00458534422889964477648705,0.00761800920546880366845954,9.86949856874469411138762,-0.0127137430167557647503473,-0.000711979675674718494836346,-0.00583618773366122254447896,6.48476502464346626908309,-3.3939496916580313978784,2.06495735386664414079405,1133.83743985973728740646,1133.29153502630242655869,1142.30487023655132361455,1142.82748274017762923904,-479.846389927961411103752,-87.0476345956840589224157,-61.6041978601654989233793,348.163218929043239313614,153.760804738220201670629
49.145000000000003126388,0.868903346262674070032972,-1.02036969661294363298509,-0.208807393979239447334706,-0.0259890537614011346567722,-0.00561360218672579680543322,-0.0287225996338405613339528,0.00706693320123932822163226,-0.00494782895417087819484037,-0.304397186044187140208095,0.952505965044797231477958,0.00363624900084877095834957,0.0069042875357397393010217,9.86998047605276696003784,-0.0128476728281159812555812,-0.000846948569237542447582512,-0.00566130327071295499918868,6.4847378128083370540935,-3.39393353150699983444838,2.06494511943151781707684,1133.08554453659326100023,1133.19257121999976334337,1142.23362683592017674528,1143.60215745609207260713,-150.483964096715993719044,-22.7570190664093381371913,16.5819387288963042692558,289.042063207386888734618,153.760258044306823421721
49.1475000000000008526513,0.971407694596714055279563,-0.99787678693576642441343,-0.0608175534465585365673235,-0.0221618548010650215362993,-0.00836755438380168067857845,-0.0289422490479281126207756,0.00704265721720308268682942,-0.00495049235826340323224359,-0.304427796642462666909523,0.952496355145499129513098,0.00301280469278412694339453,0.0062750880252635116152149,9.87023810199003470700063,-0.0129864245679724137766398,-0.000982278778908898374949699,-0.00548604499785564948821648,6.48470907278208485990945,-3.39391666663257529634734,2.06493328910326034986156,1133.08502003925332246581,1133.17774993097032165679,1142.3877799301958475553,1144.27269305621530293138,168.273004681776257029924,-6.7313333653662370537063,141.978151052800939169174,249.501271214603093540063,153.759764088171607454569
49.1499999999999985789145,0.9332466162650512320198,-0.936322420220168316618015,0.0970642633900534457236375,-0.0169682847270276951356927,-0.0115266112731528432011618,-0.0285728809875180136956807,0.00701713834194802894145271,-0.00495953384885520088404265,-0.304458838175823365279626,0.952486579430571134174954,0.00277133278352841450759003,0.00573202501048741819289489,9.87025908061236023627316,-0.0131276590263689572207761,-0.00111790379540549857963205,-0.00531088293975867913737643,6.48467921225470167456706,-3.39389937530577201485471,2.0649210396383281818089,1133.92690956000137703086,1133.15891455317296276917,1142.94351759118353584199,1144.84966381216395348019,425.160849851646048591647,-15.3765508034588052055369,277.943183506926004611159,160.852693568912883392841,153.759228640637587659512
49.1525000000000034106051,0.795793708642038466472002,-0.855196308547418126977391,0.199204290013389767599605,-0.0132692581240258736935411,-0.0139000774319736272732762,-0.0279145057360458033468564,0.00698920594456098592112125,-0.00497458038231540257412266,-0.30448973365015341574491,0.952476831910079257959012,0.00292180137200389201251882,0.00526200859026278167096535,9.87003445619538410937821,-0.0132692128671835531117384,-0.00125388949588492036764376,-0.00513605761000077067762737,6.48464867223508001359278,-3.3938820817315993316754,2.06490816774712904191347,1135.21082428851264012337,1133.10086717695298830222,1143.77749584773118840531,1145.07695652406027875259,586.598676470539430738427,-33.001041534299872637348,416.899726933038891729666,33.6391513551289591532623,153.758828010179172451899
49.1550000000000011368684,0.613257554512950719960429,-0.746541420334688288207303,0.260136060211449748891255,-0.0115508134508301718579304,-0.0160546692220407544171579,-0.0270147231427490114308299,0.00696101745280925353343005,-0.00499494945812946952029554,-0.30452115570326310223237,0.952466885906513960335928,0.0034422008057274607398246,0.00491201797675450135827191,9.86955778712704656641108,-0.0134091896250410329977099,-0.0013904974030660378816332,-0.00496169547375899591679094,6.48461777414429274557506,-3.3938646701984800380103,2.06489433794628984841779,1136.85990294235557485081,1132.9939093455013789935,1145.02801622584979668318,1145.01785956893968432269,741.321780632316745140997,-50.7657042686794426344932,638.51404736395897998591,-80.5551975908934423387109,153.758472691605732052267
49.1574999999999988631316,0.434166567035214057135306,-0.59346577211708240184862,0.280138332303537629375256,-0.0118567529444701912078042,-0.0181655023555782127453462,-0.0259021841174120262540903,0.00693442997798795861263965,-0.00501754766289806610618518,-0.304554820456261421401933,0.952456196751988115600795,0.00426107230100577789172478,0.00470817933502239160947767,9.86882607088117147497996,-0.0135459774953030336747117,-0.00152811681189544664241642,-0.00478802288396911260304201,6.48458676208564988030503,-3.39384673557816585187652,2.06488021277228872563114,1138.9174331916708524659,1132.84703865560982194438,1146.9700660845480797434,1144.67418053610617789673,718.410756223189196134626,-50.2226949874709589494159,766.782075361396550761128,-153.874144571330759845296,153.758097135549519407505
49.1600000000000036948222,0.375098574112929794566185,-0.456622167832848979696081,0.252875801222971874349099,-0.0131405236116769168902563,-0.0193605976111378454140866,-0.0249631672087744366228534,0.00691342772370947752924586,-0.00504079489352152621678416,-0.304591543158273025948546,0.952444483418162013421693,0.00531719967561438983799649,0.00472491096874887162027079,9.86783902539326795988472,-0.0136782929722387199683586,-0.00166717525639311779823981,-0.00461542772385818526881263,6.48455574814999291533013,-3.3938281880628253794896,2.06486661277195970853882,1140.45195672347335857921,1132.74279587056389573263,1148.86192660265874110337,1144.24848884608263688278,531.027850342253486815025,-34.1285909894675612008541,774.693436997644539587782,-174.380550132038393940093,153.757825844992169095349
49.1625000000000014210855,0.445832608431900812018256,-0.322357546314843923518367,0.185188829604552768204329,-0.0144541196087891125193758,-0.0199974872033635946155794,-0.0238980630342786534714428,0.00690154578824143764836929,-0.00506524311918033452728505,-0.304629625426683647848591,0.952432259564587213596099,0.00658730852350618029805718,0.00503999791149274678492276,9.86659967784231106691095,-0.0138051987248741826752596,-0.00180795426481436863862251,-0.00444448041829073083042179,6.48452491992734447734392,-3.39380947486411388425154,2.0648538125866777726003,1141.57257244338347845769,1132.6763957006623968482,1150.84353326953828400292,1143.8022777854455398483,361.801021279927056184533,-22.0186959066923186867371,769.254752069690994176199,-166.012261700157978339121,153.757597327063706416084
49.1649999999999991473487,0.622905366927892667483491,-0.19733223596067514526986,0.0929673961526526898557776,-0.0153503562666030320821298,-0.0202740046771508371226123,-0.0229719035468656969378731,0.00689891070668110541197482,-0.00509029432601203896124886,-0.304666715309738211914237,0.952420279674322078911075,0.00804262267458657684193746,0.00565882921761792778703182,9.86511538844955637728162,-0.0139260444800483763200249,-0.00195050275246954631612473,-0.00427597710575441502384164,6.48449426640357184936647,-3.39379124347862815014309,2.0648421783825088304809,1142.26096182987134852738,1132.63270239103053427243,1152.70820036300369793025,1143.41842753758260187169,171.889770722330752050766,-18.4294995118212980855787,668.585451308648657686717,-128.261020622974541538497,153.757404065780008295405
49.1675000000000039790393,0.893099598853790199726177,-0.0872669126481356027813518,-0.00958202014737476528982718,-0.0148701459636041283252084,-0.0202472092764458336255906,-0.0226870677424647129716284,0.00690398777509171682198463,-0.0051168538055796812871745,-0.304701646599600250997497,0.952408924409652857256958,0.00968872666037610616451836,0.00656276014657870832014197,9.86339742047994860740801,-0.0140403973950129299513856,-0.00209466508743562374039726,-0.00411079852363359452699365,6.48446341474820986405803,-3.39377364139333925763253,2.06483138786375386430905,1142.43202129699557190179,1132.58424820310324321326,1154.18646052608323770983,1143.16097268233033901197,-19.5516296125233601799209,-33.4095760422144039125669,507.328750110959504127095,-85.3614824382038790417937,153.757253224976636829524
49.1700000000000017053026,1.24694275155177125569139,0.029486662778238435789202,-0.112709810971533999635064,-0.0117640552950910928786676,-0.0199980422621699460705713,-0.0233452721148553477004128,0.00691233650895721474238798,-0.00514337064604253151045565,-0.304735003159587403143149,0.95239804859596077779571,0.0114991892255929227528721,0.00766150851916018449383472,9.86146169869364719318128,-0.014147920106537564821636,-0.00224008803505564360603053,-0.00394992880459252033303885,6.48443217891818957099304,-3.39375634525945280017822,2.06482141564694376967282,1142.16320368180868172203,1132.4656545108193768101,1155.24484411355979318614,1142.9916201253913641267,-149.191867854323561459751,-61.6676758868031029692247,243.93832106088115097009,-49.0193442241880035226131,153.757121344370744964181
49.1724999999999994315658,1.50047836531299050299992,0.119868017217668307305978,-0.160252522465956059871672,-0.00698506357229453436752387,-0.0196830398055804767221133,-0.0245978389054921191270164,0.00692144659555140283335728,-0.00516836362683242411114604,-0.304766987297069746887246,0.952387613258464771348599,0.013434670635800373406088,0.0088988251520182720666341,9.85932771878038671786726,-0.0142483365069370586375452,-0.00238622499858370763423099,-0.00379434250869967919575498,6.48440063414213430093014,-3.39373897729187934402262,2.06481203252761558175621,1141.68606195772463252069,1132.27590982366950811411,1155.40615213138653416536,1142.91587596120962189161,-208.544767647010928612872,-101.87096956237174083526,-92.306100484163906116919,-34.6848188786502689140434,153.757052597508049984754
49.1750000000000042632564,1.6457534631241101941157,0.213557873709208423385064,-0.153098914588589263274798,-0.000869612710869637102473195,-0.0193440050878608653384116,-0.0260132697434354680232627,0.00692838149846482839050443,-0.00519210340992026526257819,-0.304795412733010029349145,0.952378337129740071276274,0.0154893650342891146809432,0.0102178918272861629645831,9.85701884090671853755339,-0.0143414442715868277467006,-0.00253225121743113007824477,-0.00364490098628250181259092,6.48436885898136505801403,-3.39372181335147971026345,2.06480288906396136638932,1141.12047984357309360348,1131.95629966300725754991,1154.78331361113873754221,1142.81819603099802407087,-240.806508634127141021963,-171.529412480007067642873,-434.546499113371794464911,-67.9407619421106403478916,153.757027000632660929114
49.1775000000000019895197,1.65977585886743073118055,0.342700566551467966647238,-0.0846278671394990883447562,0.00616863168393801987454683,-0.0190501977437083462596501,-0.0270717448259308671176804,0.00692973687101172946406491,-0.00521398815288635561482344,-0.3048185915045064087181,0.952370788460369932515448,0.0176423000186838839498105,0.0115443046400789256500374,9.85456251486225021096743,-0.0144270684113897013078898,-0.00267713014216951292884028,-0.00350241881015121887810171,6.48433655953953902439935,-3.39370534779978871853245,2.06479392448452214736676,1140.48202941455338077503,1131.4182627612690339447,1153.23341963581856361998,1142.57617215149889489112,-219.786520523048039876812,-216.688954746329443423747,-669.957544892731675645337,-118.905705703554218644058,153.757046899437227693852
49.1799999999999997157829,1.54212139492250455141686,0.470266435982999775333724,0.00847770543836159039263745,0.0111993442488570408427373,-0.0188714399431115648075874,-0.0271100195814040940966994,0.00692818108356816481085971,-0.00523384982098314827103636,-0.304837281911763180453079,0.952364706782633629877921,0.0198429399727633806738147,0.0129163614603564347316222,9.85198869556203860042842,-0.0145050232689868698054969,-0.00281975334508760902552105,-0.00336767708279028538803646,6.48430336874474733122042,-3.39368943595197247731221,2.06478448512421008942397,1140.02154724095885285351,1130.87285488927659571345,1151.43352588667812597123,1142.22366750248079370067,-175.587971465394019787709,-223.435449161865392397885,-772.354395490506703936262,-174.764619603912876755203,153.75710634310439672845
49.1825000000000045474735,1.32117955444597789949057,0.615796998133217976523213,0.118181466309271746006893,0.0153271605233387779587684,-0.0182895064096221526828145,-0.0263158665906912184184741,0.00692626918314771886781012,-0.00524917808815251237669619,-0.304852945469645808529435,0.952359620037649734491936,0.0219968793654644161061906,0.0143520122976198566400186,9.84933122368668279023041,-0.0145751202681607874150904,-0.00295891607311621470874363,-0.00324154729382883713406649,6.48426913292549844669566,-3.39367387289978905684507,2.0647750593406479779901,1139.60408955722596147098,1130.30108551545913542213,1149.37164765836405422306,1141.70234905347888343385,-191.930018665418202772344,-238.410809940674795370796,-896.792005050243005825905,-261.069424774771619013336,153.757211267242212215933
49.1850000000000022737368,0.993004863330413711786093,0.792408521810115784589357,0.2522223450694826563101,0.0188677913367797656096769,-0.016537759838953711155618,-0.0249318036684727899199299,0.00692688830467506899690733,-0.00525903277055694146069342,-0.304866510362575060533175,0.952355214951238537857137,0.0240372019122855780370873,0.0158806585974670261274255,9.84662700922990907770327,-0.0146372483979768652773146,-0.0030933775233467487690564,-0.00312494808600168993278912,6.48423383044527135155022,-3.39365845965018175789396,2.06476625358952459166062,1139.06189714763127085462,1129.68080083957261194882,1146.94956586142461674171,1140.91832037860626769543,-217.722360646682972173949,-207.737326642570906187757,-829.989329565414664102718,-304.180998749783782386658,153.757391130298088910422
49.1875,0.714543917372955195155271,0.920896738306738904533688,0.363245337448675875702264,0.0202812824673187785951001,-0.0139852869196914111199481,-0.0239027532754638588619045,0.00693380619476961605751608,-0.00526424088216336828749409,-0.304877155068657090808415,0.952351722207874784587034,0.02592545667828765817986,0.0175546667175533327442949,9.84391547743386219337935,-0.0146914582103027449577759,-0.00322189910243186926688819,-0.00301883871006851855697817,6.48419771596958494086493,-3.39364334038462800435809,2.06475833539573550012847,1138.51547775399353668035,1129.26239888224722562882,1145.22170101054075530556,1140.18144405973134780652,-241.393140406663775365814,-148.609962572162316973845,-586.782921592099910412799,-298.533411777587900814979,153.757587128285081234935
49.1899999999999977262632,0.483545069122313653231515,1.00839141246763142056864,0.479034302846312376455984,0.019971711458971100339177,-0.0105123023553352935854921,-0.023150894604085155148443,0.00694663696459469140465082,-0.00526566807559589265125277,-0.304884623849556724017873,0.95234922254814802222711,0.0276497632794786042664814,0.0193448374624830138346354,9.84123932422800784536321,-0.0147380102969011279878675,-0.00334334333917685145795562,-0.00292418467742490981522985,6.48416130405902357836112,-3.39362886242460914942853,2.06475157106799445116962,1137.85493144559904976632,1128.93775102671247623221,1144.01565125346678541973,1139.42565331971968589642,-273.360333265551389558823,-124.920114941714686551677,-381.105854919392754709406,-295.285958815596927706792,153.757832536438542092583
49.1925000000000025579538,0.317125385134021053890052,1.05588785919772387700277,0.603611436058856809516726,0.0188963307889949520823603,-0.00692944017072490234948612,-0.0223959741111538039592954,0.00696470355042484116220303,-0.00526592449164751171680754,-0.304890623357695345063689,0.952347162461216312223655,0.0292339290356093579881236,0.0212235879333880078645436,9.83864285186878007039013,-0.0147773707025444442364481,-0.00345679917474450617426163,-0.00284180915380556576785298,6.48412509807288195418096,-3.3936149327926878882522,2.06474550399433365299728,1137.14867608766508055851,1128.63779830753833266499,1143.31617173594281666738,1138.70501426565260771895,-268.234743361653386273247,-133.404329437075801934043,-165.907467240464654878451,-268.484341417660289152991,153.75812020396350021656
49.1950000000000002842171,0.230890002741724997825656,1.06496209051583967664101,0.738799930056217801777052,0.0180098015921545048789731,-0.00403159604378325320261922,-0.021402200066653460225341,0.00698397487703171504502819,-0.00526538438943858957269617,-0.304897109714821368253723,0.952344945192576175507781,0.0306817819587554239946225,0.0230842521983399134866133,9.83617239997245818017291,-0.0148101479254509078159474,-0.00356153511260821941178389,-0.00277240126684667785930682,6.48408900972810720020334,-3.39360133290702137287553,2.0647401532901632492667,1136.51375772879009673488,1128.27072937952675601991,1143.18611391726403780922,1138.08323161263069778215,-223.324980243681523006671,-200.523858467932342364293,33.9010984198775062736786,-238.94644903183592532514,153.758460542384568725538
49.1974999999999980104803,0.189111540123146959491152,1.05769306842054255923813,0.902072843036179627951299,0.0180504718690420798421492,-0.00157909247000823831433292,-0.0197637312696734325501158,0.00700188164588070368482553,-0.00526583817259452472564485,-0.304905366174760661390764,0.952342168276784639679988,0.0320172277366450180879909,0.0248539655047008561927768,9.83387388013402130582108,-0.0148370448561728034142515,-0.00365700601184048949832128,-0.00271633846738199378340051,6.48405265697445098993512,-3.39358798135044992250187,2.0647352313846081273141,1136.03205118644768845115,1127.63517901519958286372,1143.4856772280420500465,1137.51028202049451465427,-105.565429795288423520105,-275.294535594498597674828,142.295229019891820598787,-176.174522129577695750413,153.758932249251586199534
49.2000000000000028421709,0.169189404122426972909565,1.05480234660191651840933,1.02226567856843009174383,0.0189646543942291155582236,-0.000109336102452339971910326,-0.0178123230053452395738045,0.00701898581490051961390142,-0.00526820226491135547991496,-0.304915312512061442706823,0.95233884631473098014709,0.033231772356771140108922,0.0265119378977955316711856,9.83179163284370893904907,-0.0148588171518388642566855,-0.00374284028254019077858183,-0.00267369764193241613026153,6.48401596407332370120002,-3.39357506443723400124668,2.06473053022721586557964,1135.98593057981338461104,1126.89425670155355874158,1143.8975900623638608522,1137.2023590019823586772,69.2516870477548280859992,-337.518791399325095881068,143.871811107118503514357,-87.9101428282415753301393,153.759379986705226883714
49.2025000000000005684342,0.121572114746554590936078,1.06410502512303750677347,1.09837820718581369305866,0.0202176391301513193321515,0.00133627103425805211084354,-0.015027600318479265861793,0.00703532392742087231418679,-0.0052701857088729760908441,-0.304925415949315214980686,0.952335482031937630154061,0.0342631280322016618100633,0.0280078348052524711553346,9.829968397543760616486,-0.0148762610997519219985241,-0.0038188451884467776789589,-0.00264428040831325011916775,6.48397894803076635383832,-3.39356275632364390304474,2.06472635999151332697465,1136.37830962168663972989,1125.94758505820209393278,1144.20503628357801062521,1137.07073130635308189085,266.975371539517254859675,-440.14266695238814008917,61.5328038541170201369823,-24.0195088973669221843465,153.759886877317313746971
49.2049999999999982946974,-0.00301050231897380393686348,1.0774617779161199671023,1.10599822490228594240591,0.0215826016733978581774167,0.00372346630338769987375591,-0.0108642360849494148955507,0.00705301230217551117229746,-0.00527023465622578242417706,-0.30493475910345674284585,0.952332363791265512631412,0.0350535356221540611576515,0.0293352685778959926254927,9.82844287393860049917294,-0.0148901999986063918179902,-0.00388514800747453850973678,-0.00262745081342171359073401,6.48394175533871930383611,-3.3935509241558650117554,2.06472273969843467256169,1137.32080743750975670991,1124.69354336679361949791,1144.20525408163416614116,1137.08226145749563329446,405.986889475727025455853,-449.936945938040423698112,-80.5066848447083600603946,25.5484766308069346507637,153.760566557486725969284
49.207500000000003126388,-0.175529984062565702629399,1.07017334991992174586528,1.02630750836974549144998,0.0224171162093508569146394,0.00657910149479270806721631,-0.00730214107067302803377729,0.00706959659868736794985367,-0.00526633052532709741710981,-0.30494473595982846125807,0.952329075357049470440529,0.0355671093786980169193512,0.0304011940126815288776285,9.82725009884260103376619,-0.0149014533820939626407309,-0.00394226553800461169962954,-0.00262209121622253293892868,6.48390448337793312560962,-3.39353906572236851957314,2.06471955021241893035722,1138.40824406906631338643,1123.69790032851074101927,1143.80250285935426290962,1137.19847368950718191627,466.898006529106510242855,-345.439270776710770860518,-243.731991563447905946305,62.075655449975862154588,153.761194808256533406166
49.2100000000000008526513,-0.41745661782277188045498,1.01746619308561636607635,0.853317186301453034502629,0.0226760037206289281896954,0.0102214013386340771272209,-0.00438463484702807451687256,0.00708179766588112099418018,-0.0052594870864614944039328,-0.304956071888393187574451,0.952325400960666090810491,0.0358332555344567163513325,0.0311180290659994612800787,9.8264187881464195584158,-0.0149108672691500819540433,-0.00399104585795689685567833,-0.00262644627038430278354042,6.4838670671307108150927,-3.393526584947179625118,2.06471574562682747000508,1139.65529747015648354136,1122.96634701290918201266,1142.98659412381630318123,1137.392639734745671376,546.924588992212079574529,-215.257351208051886715111,-425.635845237707712840347,100.614218750206973140848,153.76189020837887255766
49.2124999999999985789145,-0.764626807562221344483078,0.886467942379132400887443,0.551032787565778559013552,0.021868978670453828594411,0.0144995517373198799099265,-0.00178288984844866349802062,0.00708819367967754125625657,-0.00525163893500273180198201,-0.304966569456953717764947,0.952322041452450140930353,0.0358913870100567716781015,0.0314421605460863812231409,9.82596987731256632514487,-0.0149193516535266867267806,-0.0040325608209411823584789,-0.00263821701066978622773895,6.48382975202514977297596,-3.39351361940853468723844,2.06471055513158541216967,1141.14286701402488688473,1122.62161357247146042937,1141.67432363316765986383,1137.70154478325775926351,517.992202947342434526945,-15.3993280480711636215574,-502.912589640997907736164,126.161558712491597589178,153.762805936289538522033
49.2150000000000034106051,-1.07223004303732749598055,0.727024377221916151547987,0.238033933959391291734775,0.0201027898178938874140798,0.0172120363199184008007325,-0.000450283810741421966408055,0.00708760518865621854528447,-0.0052422485128333241172216,-0.304973823528206511301875,0.952319777593226279854832,0.0357368502579087574111405,0.0313244451211035918047898,9.82591643593073094109513,-0.0149278800196630395680231,-0.00406810329753359324611584,-0.00265480118429932843843178,6.4837928881168478412178,-3.39350089424490430900505,2.06470418510241282561424,1142.24525848489452073409,1122.88935037266878680384,1140.47203117561002727598,1138.02344752830845209246,387.530681651816848898306,228.844619542697984115875,-458.533655718012653323967,141.540342140315601682232,153.763639513836096739396
49.2175000000000011368684,-1.35486679207271576430571,0.540044270811675719556888,-0.110229201083821656825812,0.01726701930007241633791,0.0187156978741717383574183,-0.000116413067034308644206141,0.00708251244111918198953504,-0.00522992676349981998329408,-0.304977678974496402286576,0.952318648526592204106578,0.0353304754126889802856581,0.0307848782952804128631996,9.82626184615970643676519,-0.0149374430463626740178684,-0.004099236687244018663423,-0.00267343095711845184572764,6.48375653601103962841989,-3.39348893043248533984979,2.06469688058711442479876,1143.08052042228496247844,1123.76583667018553569505,1139.38165535457642363326,1138.4092464939596993645,277.674471908155908295157,440.229012922864285428659,-387.965202434532272945944,160.931824396776335106551,153.764549682268466312962
49.2199999999999988631316,-1.58077384980019242100013,0.354139057832521808588666,-0.463092064372494227608712,0.0134166643538247611772141,0.0192945705957759706949961,-0.000654382091880507227830976,0.00707544021560295530864915,-0.00521189792302019071906782,-0.304980143907829459593017,0.952318009021113409673376,0.0346101370281666348427407,0.029842530912794970610058,9.82700021110470522955893,-0.0149489544297170661585339,-0.00412777514967326789735447,-0.00269133820054319331319115,6.48372059108229059631867,-3.3934774917781007630424,2.06468926705486666151046,1143.63363084443403749901,1125.09049543728110620577,1138.53220516343913004675,1138.82810665029160190898,148.346258981352150385646,607.491743710041419035406,-257.642954643465657227352,164.609111074566868637703,153.765526009285139252825
49.2225000000000036948222,-1.69716995713746987561876,0.194744995822466848700572,-0.789311130100685431898455,0.00814361756861826067976917,0.0190282016848084822857601,-0.00226430752717098667664564,0.00706995224038116116399566,-0.00518849475937546798093303,-0.304983856094524385937916,0.952316987026322614440232,0.0335689520176872188694794,0.0285617392016968979495672,9.82811519339235495351659,-0.0149631770120550976199691,-0.00415576807763850131910432,-0.00270570933980090761600268,6.48368479169093792080503,-3.3934659842939640661541,2.06468144816904786154055,1143.82225171719210266019,1126.8032953887372968893,1138.09344058135843624768,1139.23229204933295477531,5.063239153239148748753,791.56911108616873207211,-85.3039661444672816514867,155.286867897450662212577,153.766585081983919280901
49.2250000000000014210855,-1.67517959387219828037985,0.0524247114317669543614997,-1.10844927939988924237014,0.000900470090565965212113519,0.0182127942697203268340722,-0.0053836918778417848507889,0.00706731772586801677837887,-0.00516227337148038572384179,-0.304992099429061136461883,0.952314506953473527417486,0.0322585366272726686842631,0.0269849218464730394861917,9.82958102517385334806477,-0.0149806663218318460162326,-0.00418547272900948123114384,-0.0027137552760760704113896,6.48364901579894592487108,-3.39345391484467606701969,2.06467304620504910062095,1143.6589470402002461924,1129.04834099271397462871,1138.10568533271657543082,1139.60454098977925241343,-112.76484663818588671802,815.55632542755620306707,91.2975757018023585942501,104.589509855990939968251,153.767954717469933711982
49.2274999999999991473487,-1.52020693833939102290742,-0.0252007067545640291161835,-1.28669610053507477154255,-0.00473730921865502321854713,0.017589785449792335464414,-0.00900464822101312671598361,0.00706553872019507513135839,-0.00513491122078042934451236,-0.305009501912388791833308,0.952309092417347402559358,0.0307365395478511153892764,0.0250960819272057350515226,9.83136357933014259913307,-0.0150017649806128781225789,-0.0042193066555712014156776,-0.00271286607481088706123051,6.48361292532223210116626,-3.39344046598874760078957,2.06466398854936139528604,1143.25842748400168602529,1130.88107701587136943999,1138.54992845986703287053,1139.75523959861243383784,-195.726420759810849858695,685.878114150104238433414,252.324681639409448052902,18.9403438135644570650129,153.769180027930389087487
49.2300000000000039790393,-1.25294195319839762881031,-0.0736315065502181065326681,-1.35047825645636465630162,-0.00888707888517306643372251,0.0175544021667366594019466,-0.0134941751211799260828927,0.00706413766727619768515112,-0.00510902673386288107282294,-0.305037394077513068779695,0.952300307455451466864815,0.0290722813258263122759839,0.0229213274107473025109627,9.83341964799060086477311,-0.0150267429074925473048152,-0.00425961391784227590834311,-0.00270065463047840497584628,6.48357629902969279100944,-3.39342544771256049429553,2.06465404074337310902365,1142.68031493640069129469,1132.47773156346625000879,1139.36730874091426812811,1139.69924270884712314,-272.867263162467224901775,619.538560465345199190779,416.520729806384849780443,-67.8418721003361895327544,153.770493740459443188229
49.2325000000000017053026,-0.864629253310499334972405,-0.119405394007137510836714,-1.28974887187190057069586,-0.0118127215947123453271272,0.0179053172504118618402202,-0.0188640434994452980965729,0.00706133239485532901436038,-0.00508432168682834261658199,-0.305073534817724367762537,0.952288884842939054031774,0.0272912240765152795674009,0.0204527523607029165786386,9.83569902050078681554623,-0.0150559467274358430716186,-0.00430848707497188433690471,-0.00267518907534914371706969,6.48353938827471854011719,-3.39340962253573596996148,2.06464371199295904091287,1141.8940911681886518636,1133.97876981819968023046,1140.63253210890002264932,1139.41603023811057937564,-291.175651254562751546473,473.513985542807404272025,484.983518641306545760017,-126.929085748158215096737,153.772172961852533035199
49.2349999999999994315658,-0.535419750755422918508941,-0.158468255578388533821865,-1.13971064846004299653259,-0.0129536049494765048706313,0.0180336208623511524973271,-0.0226249071281940349054107,0.00705717624805306861096588,-0.00506100561220104022686073,-0.305115269575461200979305,0.952275672432889130902822,0.0254197050525831295952894,0.0177275417903333815106137,9.83814437435212596483325,-0.0150899239506816218447938,-0.00436776692093768931224318,-0.00263498777563039160432012,6.48350239303079511898886,-3.39339371627074148918268,2.06463328311334448628145,1141.2244366801292017044,1134.84530149117813380144,1141.79222633411859533226,1139.06459728010690923838,-263.143984036561960238032,271.510807075671664279071,452.868092588410263488186,-140.862665393315865003387,153.773657760592755039397
49.2375000000000042632564,-0.255023614706013090902559,-0.203580538799843890895858,-0.922193294205170821520312,-0.0129235196909914182294976,0.0176483658383243223466419,-0.0251122970711365328666531,0.0070513075630938854693186,-0.00504081148754705402059706,-0.30515901581621562854707,0.952261809549224014226354,0.0235172920549725425476417,0.0147913896757229795797528,9.8406929338615007907265,-0.0151294900621781226723872,-0.00443895793214777335117249,-0.0025790391877707975927525,6.4834654921156023021922,-3.3933784849063046706874,2.06462278570340052041843,1140.57837124800516903633,1135.33632385357873317844,1142.89687257184323243564,1138.71171691114363966335,-277.583346651721399211965,148.115730109263211033976,439.31958509110961585975,-125.109875109710287688358,153.77523030247442648033
49.2400000000000019895197,-0.0223478713280354374104419,-0.265365406274905568650979,-0.633838499938315202975048,-0.0116554112427686810959937,0.0165493678977360787751838,-0.0265879281116467545975635,0.00704221108310150358672308,-0.00502384058655439957180588,-0.305201316507540787448249,0.952248413537430726805155,0.0216217331323461658953988,0.0116649963959668950819193,9.84327845187220340505974,-0.0151756635559319123102151,-0.00452326572479357612299733,-0.0025069252698895466008322,6.48342897972988740917799,-3.39336452618059736252576,2.06461278695228189761224,1139.83651994686988473404,1135.585880141724828718,1143.98882425957526720595,1138.43904790455803777149,-267.141468316110263003793,54.4411852474735837859043,342.832311679779024871095,-57.1032152975541080763833,153.777216771623670865665
49.2424999999999997157829,0.0668475603213880553710169,-0.32590522940020938413852,-0.403559168221119313191281,-0.0102661922935986579114021,0.0153518393457901681370403,-0.0269857385628396277688079,0.00703021087569913154247114,-0.00501083863188201555916024,-0.305240640876075108867127,0.952235969146010385877332,0.0197731468802999944822663,0.00841294420303505263714072,9.84583175708368329992481,-0.0152295265821718681792385,-0.00462173640902167892630104,-0.00241873992031089134202571,6.48339314551027356969826,-3.39335167799269221688974,2.06460329256886288007422,1139.24266390642583246517,1135.60852977981585354428,1144.61103413024056862923,1138.42620083465612879081,-230.221659564695528388256,-3.92872578354198598304947,177.28438510334879651964,47.4475484227908168577414,153.778952923309816469555
49.2450000000000045474735,0.0483521953713179283851353,-0.406173233719451409751144,-0.210133884055045988548116,-0.0093155909805181045385547,0.0145290930442231371738648,-0.0269645370291033137366554,0.00701421208903871187118062,-0.00499942663706187673255954,-0.30527847136449726139773,0.952224022550698157019156,0.0179624231638191092508272,0.00505890667419765793777486,9.84828334663323268216573,-0.0152920181474295417689557,-0.00473532829198756825828109,-0.00231515434412068099243043,6.48335804580515695505483,-3.39333926621962111980224,2.06459497747630171815558,1138.68541164904581819428,1135.56623651280710873834,1144.87524618509246465692,1138.67628564667211321648,-211.292860884014913835927,-11.2415812468895417453041,46.3654201758562720669943,136.946291526394787751997,153.780769675697285947535
49.2475000000000022737368,-0.0450008415458787794372064,-0.513735753034581965614791,-0.056964590369063282382367,-0.00879210171940868374929057,0.0143203901234167929601426,-0.0266839453138651046260055,0.00699408516805811140970572,-0.0049891984243242808172436,-0.305316588553604939537678,0.952212005516517301373369,0.0162120813140877138847085,0.00165979412862374275938748,9.8505637179203411335493,-0.015363804738226427906711,-0.00486483901947164665974244,-0.00219715935092573309492248,6.48332350659008227466984,-3.39332679171057405298484,2.06458800506795681073413,1138.18619960200521745719,1135.55232187358137707633,1144.84286123111996857915,1139.11093229228845302714,-175.956403054420633225163,12.2538492146870829913041,-73.8416856188667622973298,196.581252363827474027858,153.782650302729848590388
49.25,-0.201168956753678934701313,-0.660361291387346338588316,0.0461249054426058485711692,-0.00881582917535028882938253,0.0142405355500981999766763,-0.0263515440128561512223015,0.00696915906283892497979915,-0.00498236297198886585874122,-0.3053547005904279632027,0.952200003968673880372364,0.0145967999667842990296762,-0.00171985204633103017091145,9.85260501682599532102813,-0.0154451812316070326985828,-0.00501075040853267341528499,-0.00206590193580824359187442,6.48328919790896396335711,-3.39331429798230255201474,2.06458190757025050743323,1137.80562963377451524138,1135.62750575888048842899,1144.50603775699846664793,1139.65919190849035658175,-128.075377592656934666593,52.0822944844913635620287,-194.898749246653920863537,231.207688952719053077089,153.784603687615543776701
49.2524999999999977262632,-0.418534967362665766277274,-0.86748255301312782172829,0.118697015783450321446679,-0.00953930892137597533086968,0.0131116784004886785530708,-0.026129556346868889477042,0.00693822361448267945632784,-0.0049793656164169274036535,-0.305391685335170803838878,0.95218838454209853150445,0.0131603391588990918659174,-0.00503549397737744486303058,9.85434278249786466119531,-0.0155359602000515791692115,-0.00517317727168343632210279,-0.00192270242919563767204638,6.48325483515731360029122,-3.39330206689755309312773,2.06457660789323815819785,1137.54582271404251514468,1135.81273334600359703472,1143.86836748488758530584,1140.26697073705099683139,-57.0084932501849195318755,72.0019105605474578624126,-252.233017048418446393043,190.699929362920300945916,153.787025475283257947012
49.2550000000000025579538,-0.590659295160868680341082,-1.04037939601184836746484,0.143563165504323270171838,-0.0109787136935383389246823,0.0108743285323438538397811,-0.0258591820896967895804242,0.00690479574616916814966405,-0.00498025328847591115116744,-0.305427314025700002986241,0.952177195945987486780382,0.0119085121934371929164342,-0.00815700902893883028621502,9.85571603711831834004897,-0.0156354009999640497508011,-0.00535189170613577756829837,-0.00176892715326350214929962,6.48322009500569773621237,-3.39328999975700140723234,2.06457178813418362750554,1137.52058716752344480483,1135.98751531168340989097,1143.24487267175572924316,1140.61269155530544594512,30.1454735679572358719724,53.5417761769348388156686,-245.168820586843224873519,90.1630426222702965333156,153.789103103965231866823
49.2575000000000002842171,-0.714081674551938383466165,-1.17561560205783632859777,0.139190231139909359470153,-0.0134784667457792575046005,0.00733188024238460613057899,-0.0252743339900588365187772,0.00687249132687493737708939,-0.00498271293252227926579012,-0.305463019163707494296744,0.952165965599030772459344,0.0107994155737571977116129,-0.0109688624224678066276795,9.85666939797008545554036,-0.015742182297964608245211,-0.00554630044402628936267563,-0.00160600183802651029496555,6.48318442615779222393257,-3.393277543262770201693,2.06456777133299240745146,1137.69655008188237843569,1136.08044222688840818591,1142.64252338195274205646,1140.71778595016257895622,117.205788518792545005454,0.111109874660643176413899,-237.788775372326000479006,-1.38273975358186618223044,153.791235377129794414941
49.2599999999999980104803,-0.772886490156052596844916,-1.25948261889849510986039,0.111206841957749894000962,-0.0170544173149665412303477,0.00230246619546543634590718,-0.0245591202963470200959506,0.00684525325636231585235691,-0.00498636371316950929161171,-0.305499847791316059275601,0.952154331127201714046748,0.00982204477698825351161815,-0.0133415068499294214854345,9.85715361574019865997798,-0.0158544978462109853456496,-0.00575535472129963272119868,-0.00143522758348747564091652,6.4831472928987290416103,-3.39326426220388244203718,2.06456432346582730019691,1138.10661611011687455175,1135.98807086105671260157,1142.0559287948951805447,1140.60577785653754290252,174.854392876933758316227,-77.3704746033731538545908,-179.804385783380780594598,-57.9303810169834960674962,153.793848109933435353014
49.2625000000000028421709,-0.738448475892772848716561,-1.25391924660143860847938,0.0808285568448644381467361,-0.0197207905504989677858418,-0.00176633635039742426138532,-0.0244015097592677025761798,0.00682579564212373868237194,-0.0049919006423823986465238,-0.305536477143436735470772,0.952142692524788780694678,0.00898915809442464575074183,-0.0151672050092345883642864,9.85712686314631802986241,-0.0159702341002663505964421,-0.00597743952439654981090289,-0.00125777566221009127166164,6.48310837562037090009426,-3.3932505430927064615787,2.06456081452107653717576,1138.57082204626749444287,1135.69358985387134453049,1141.74350145303537829022,1140.4281340450775132922,197.595117131676346389213,-165.472470474293828601731,-77.7126696744801677141368,-47.4496588632276257158082,153.796063262823508921429
49.2650000000000005684342,-0.623798732402895739213022,-1.17772200352736766681971,0.0591172430273185084415033,-0.021499850580532726962435,-0.00515641076459419020472374,-0.0248463153659953181473519,0.00681069386059336093902639,-0.0049993707309497707053092,-0.305571137933853931301087,0.952131640510949006639407,0.00833421321775229886896774,-0.016464040038618676931037,9.85655653994379932214542,-0.0160871557703971615471694,-0.00621041929038610406033083,-0.00107478213385522121565974,6.48306752531194785404978,-3.39323706726317331217047,2.06455685630071261726926,1139.0945916957757617638,1135.1607085086848201172,1141.66736544652258089627,1140.36852956222128341324,225.581347432421893017818,-284.286586528864347656054,28.6942577270371614872602,51.5137261374561745697065,153.798309128875985152263
49.2674999999999982946974,-0.411564357573535710699275,-1.02999988842980716441389,0.0543831294324106651050243,-0.022682699299243894164313,-0.00823706044399936943012364,-0.025597116677171925791523,0.00679568382229780391240448,-0.00500981261307086554734891,-0.305603157679063319740465,0.952121415642188995143158,0.00791026662792901694154502,-0.0172678597448702036976087,9.85541921207981275188104,-0.01620308359515669482942,-0.00645178158190388637005519,-0.000887397318129461197891428,6.48302449183740669980125,-3.3932241522724915228082,2.06455169890583123404326,1139.69872878342857802636,1134.27215692122831569577,1141.88697274167043360649,1140.68570267576455989911,202.6380596612271176582,-360.285687880011494144128,135.611398345575906887461,208.424822089712279193918,153.801029744441336788441
49.270000000000003126388,-0.18490512778045029018692,-0.881543587394224892328509,0.0667792523597508930199851,-0.0230810487486001504608968,-0.00976930484748946524609092,-0.0258947638997069178035115,0.00677808756935916953412224,-0.00502152104733451405682576,-0.30563365490567068194494,0.952111687586589927612124,0.00770557486285837912182162,-0.0176103413815311138357345,9.8537015523476121359181,-0.0163160564344807697267914,-0.00669880545084689926066401,-0.000697096320506461995802905,6.48297940000035577412518,-3.39321166248385130970178,2.06454570177926832741377,1140.10778199408241562196,1133.35928006928384093044,1142.34542243825080731767,1141.41065367267037800048,126.343055183841840971581,-389.937430896025659876614,242.38793980099549685292,396.126612785044187603489,153.803311020480379056607
49.2725000000000008526513,0.0838015575744837371008344,-0.725495929502657177501135,0.0843932252475106670086547,-0.0230564911837359588775431,-0.0105881503931684831792959,-0.0255284793097117594651291,0.0067581545937036883661686,-0.00503464593328413045209002,-0.305664040981186435619321,0.952102000731324227267294,0.00772243939194184898094919,-0.0174669546735342351428955,9.85140078877375202637268,-0.0164245345891787623837654,-0.00694866577480011959888628,-0.000505726345313863077761407,6.48293276411740659881389,-3.39319937096118184882698,2.06453925527087367441936,1140.33044405934811038605,1132.3224697667471900786,1143.09891244067603111034,1142.66633573969079407107,46.2702857703755157103842,-424.774605590004966870765,349.268665430371811453369,577.933112808821420003369,153.805598340800770529313
49.2749999999999985789145,0.383326687232926677229017,-0.565762195672056100725911,0.0955079486021308543541863,-0.0226717888507163567446412,-0.0115960118726174954417729,-0.0247542354952421002345364,0.00673710451420468994787605,-0.00504990819896104347480614,-0.30569354322099739906804,0.952092590168272079331757,0.00796568391151425761464999,-0.0168020288557919339478275,9.84852608280707642052221,-0.0165275854697654878133761,-0.00719844675765661089900105,-0.000315721891196110704663064,6.48288516322553221016278,-3.39318728821004667040029,2.06453269485232882018977,1140.33913342293408277328,1131.23540704133574763546,1144.09176576540107816982,1144.30031923671185722924,-58.9088327077359892314234,-430.822745248504077153484,447.666588296577344863181,706.88389231450162242254,153.807884270608923316104
49.2775000000000034106051,0.715096331070482205127803,-0.392802033805816186440296,0.0912357355199022723724056,-0.0216718226767203155092023,-0.0133503136603467763288133,-0.023923011604537618851607,0.00671619826351947408343834,-0.00506587121578130992333167,-0.305721279433794457247586,0.952083738292256009927428,0.00839795166736013662389659,-0.0156030735910335643934488,9.84509973249690872876272,-0.0166249468552291529421794,-0.00744525783127373500663859,-0.00013030829815384055154863,6.48283738022320665805864,-3.39317581825204150902664,2.06452723811983718249508,1140.03589989580927976931,1130.16835604050356778316,1145.33724538216006294533,1146.20075520126511037233,-211.704828940292742345264,-441.084058502112270616635,585.014625221602614146832,829.712322398912192511489,153.81016078112406830769
49.2800000000000011368684,1.13936381378817475074072,-0.160813307573198061017905,0.0700339243054075993866192,-0.0194633292692125633993605,-0.0156030714644829308912488,-0.0232844756438486052974035,0.00669907848276391892222703,-0.0050813465226814437392111,-0.305746919511252546186597,0.952075533778301119625098,0.00897170128479936671017647,-0.013822603556574997174522,9.84115723490985949695187,-0.0167170094230407566271435,-0.00768626809276656830505203,4.6606875038488087040732e-05,6.48279014612881532286792,-3.39316546341023927979563,2.06452385284437278656355,1139.28060927823207748588,1129.02998674882405794051,1147.01683889151058792777,1148.44888084870854072506,-338.558127708655376864044,-377.439491105794729719491,620.157734763070152439468,765.812016983196144792601,153.812871722420482001326
49.2824999999999988631316,1.5016619306748524298456,0.04646308857315661206,0.0468922931937150525016911,-0.0166227977058808311372484,-0.0167179306364080189351018,-0.0231036177444354055843245,0.00668705858969037992417528,-0.00509279291142098518990755,-0.305771658761825604333495,0.952067604411670376229893,0.00960967514919627147085279,-0.0114820707377549513505954,9.83674852473625982440808,-0.0168046705664655869616464,-0.00791873470473576646089242,0.00021049207534828517744685,6.48274342221578780964819,-3.39315624142904326276948,2.06452331088154616978159,1138.34310925726754248899,1128.2811585849763105216,1148.43803405597259370552,1150.02981528617760886846,-422.611398485753170461976,-246.059886529120916520696,528.786208038447966828244,518.248828569274792243959,153.815106368775673217897
49.2850000000000036948222,1.8522307874875609812193,0.242331191608233409429118,0.0307071230155938346140232,-0.0128401225640942459604865,-0.016432642244921299296001,-0.0230532197364471669320807,0.00668281495463938536583104,-0.00509777840717481108695486,-0.305796682505621197911694,0.952059563863475566414252,0.0102482994586941475456676,-0.00858143296743035799423183,9.83193696166265596048106,-0.0168891686736799377654972,-0.00813995061478064128868137,0.000356633501552354578636311,6.48269657098639218162361,-3.39314797624013309018665,2.0645255582997990018157,1137.16755228580223047175,1127.79968731617782395915,1149.66076993170418063528,1151.0401249915562402748,-538.775448242174206825439,-152.36921961710712025706,432.652420341907259171421,276.108868922933368139638,153.817307834355915474589
49.2875000000000014210855,2.22975033817221435228362,0.423400790147100858362705,0.0340652756774820486551647,-0.00738057096336858058094332,-0.0143751057915198505315901,-0.0230865443675023485070597,0.00668711031022844494542401,-0.00509665987318509445397341,-0.305820565463077675971704,0.952051860775210423426529,0.0108893368720000272009685,-0.00514982263086054270484482,9.82679902436852081848428,-0.0169719691247081222451598,-0.00834717410751995014805971,0.000480541663820357642898651,6.48264930870734090717633,-3.39314090691582848080543,2.06452990179389850311509,1135.64923201605529357039,1127.51931248689038511657,1150.60129615768323674274,1151.41035963079298198863,-543.778644332581961862161,-67.203509781545292867122,217.364414505634499619191,-10.9312758219047569951954,153.819903212493585442644
49.2899999999999991473487,2.48270505684354203523867,0.505412558332947292605297,0.0656714485252211377375176,-0.00200240281568741899931307,-0.0115968403355542534066691,-0.0233074571993103878131404,0.00669587221258418144320679,-0.00509090156049570898011414,-0.305840847028513551641993,0.952045304962278904348238,0.0115860201491988674959988,-0.00130946042098097070738305,9.82142379631735273903814,-0.0170546242469437718536351,-0.00853776076692656406275095,0.000578192408048028468059432,6.4826017462060301355109,-3.39313566661279608638324,2.06453583471945378846613,1134.44865906414179335115,1127.46366976727040309925,1150.74759200423136462632,1150.98546861244676620117,-428.189113937159277156752,-13.2135823090198449847321,-104.530332380401162595263,-307.867963496370805387414,153.822022188248411111999
49.2925000000000039790393,2.63662019765902311263517,0.509075560997695131248975,0.135292635024645890862161,0.00425929042658564072088012,-0.00881397608529416870526418,-0.0236162868126544162050706,0.00670710183638296292274461,-0.00508314417233075941521259,-0.30585625925103976374686,0.952040304350334154470659,0.0124025163352783421299996,0.00285515947631199973333338,9.81591006953913591814853,-0.017138599937362022224141,-0.00870937340016112067353493,0.000646311116077570189594748,6.48255427349426405214672,-3.39313243938839503854865,2.06454283839908292463861,1133.50828644636840181192,1127.45324457534525208757,1150.07864449578096355253,1149.87101981331034039613,-314.704054927436118305195,-31.4221280192962915123189,-487.052202696919323443581,-613.571361168492217075254,153.824090244778318492536
49.2950000000000017053026,2.66556076382294282467456,0.448720402431841969281834,0.262962764860809772304862,0.0128212954312539439277741,-0.00688269746389014776960513,-0.0235506861117815852191271,0.00672031428093463733403068,-0.00507379296049658562450801,-0.305869167616927783992509,0.952036102193988265085522,0.0133528781439373571415796,0.00726749691642634976229687,9.81036450338871723886314,-0.0172250483852133609574686,-0.00886023266906794774999678,0.000682420779818992137913392,6.48250694245257008674344,-3.39313042898747374565005,2.06455068817760523103289,1132.87513878950380785682,1127.30655912717384126154,1148.31233099074552228558,1147.917611806602735669,-130.78924340778101509386,-98.8840648478334429682945,-789.226734810871903391671,-785.729675115986310629523,153.826507730739280077614
49.2974999999999994315658,2.53634746229555529950517,0.37749032157501077877626,0.399482440651418968524666,0.0205426774462145848854089,-0.00676998281248910021429266,-0.0229062969757765459710708,0.00673946624741888090232012,-0.00506433905185855234160064,-0.30588306831059536294859,0.952031540992863134498236,0.0144449607386056728952628,0.0119350942369796514386238,9.80489802158436063450608,-0.0173146706804877363594652,-0.00898913719274236321099547,0.000685111784150551749589253,6.4824595638209263626095,-3.39312828647805808657267,2.06455878874103015974129,1132.85434022933009146072,1126.95882425110653457523,1146.13251082173019312904,1145.94237143773398202029,101.481551737645460775639,-199.592668539151162576673,-975.279851098458834712801,-820.4393699320812629594,153.828465572861063037635
49.3000000000000042632564,2.23913232834267317272747,0.320262032688626130383369,0.554837472027176925593039,0.0280948809441990930702016,-0.00763795892530072864645696,-0.0218337097458549470041511,0.0067687463388769525049482,-0.00505914397099842781668766,-0.305897068923502657433744,0.952026855532925431191416,0.0157384799348490971027115,0.0168832300133704149569525,9.79962336138170009292025,-0.0174077239457290262880651,-0.00909527745218124267223558,0.000654150704332554129571964,6.48241228302872141142643,-3.39312581139335156521497,2.06456630144841390972488,1133.38254654819229472196,1126.30859578447757485264,1143.43593173525073325436,1143.81541495694023069518,337.386328306784207597957,-349.640125818544504454621,-1241.04478082945388450753,-923.798259717687301417754,153.830361400892286383169
49.3025000000000019895197,1.71343276368288766065007,0.282389242641221116514316,0.746360441485774295244937,0.0355884046273308995989026,-0.00825849933601880206723855,-0.0201777639819830101330922,0.00680555687937513687640889,-0.00505718234921455518648958,-0.305908811435748217988362,0.952022826355016449362267,0.0172318161222554076805746,0.0219762216982331559655961,9.79465443315489991960021,-0.0175039461995877207445282,-0.00917829182068808334393761,0.000590100336429698422296974,6.48236498799825522354467,-3.39312365311329600103818,2.06457373833832535936494,1134.54127187086487538181,1125.21062362201291762176,1139.92728691757974957,1141.32338013914318253228,480.034404863708971333836,-436.449373376296023252507,-1283.83258071038085290638,-871.308233594273815469933,153.832561993782690024091
49.3049999999999997157829,1.17677337261392067624399,0.266503704116269224400071,0.896288779388428658023713,0.0394814138846706144669874,-0.00759610792375219751049187,-0.0184003576265011938029037,0.00684468505568661383237083,-0.00505696757587714880444185,-0.305917841945372581680118,0.952019642077515548805877,0.0189276270565622954655804,0.0270269157884093641497358,9.79010201450880757079176,-0.0176024475114260094132934,-0.00923834239952329300260558,0.000494506635197616969609746,6.48231736962323878969983,-3.39312206782603098531581,2.06458137428511978583856,1135.78271857250865650713,1124.12634891759807942435,1137.01676883170466680895,1139.45887378897282360413,505.385089483175534041948,-433.633709269002849850949,-1111.36129845328900955792,-667.253369130844134815561,153.834332450546213522102
49.3075000000000045474735,0.604041846802164772434196,0.244614564610390189391964,1.01683479176471980309771,0.0406907728324322690016679,-0.00605771596600565998685939,-0.0160741487349851247534716,0.00688159479534063232147867,-0.00505893712114300307669534,-0.305926198996544884689541,0.952016676959009156000491,0.0208563176261389073007368,0.0318742990833796174809933,9.78606966580558612633922,-0.017701652960939177200439,-0.00927616041957198336764812,0.000370037018711287437472413,6.48226890304405323206538,-3.39312047793809945517296,2.06458858853214621831285,1137.06819731828204567137,1123.04245507566679407319,1134.37048042531046121439,1137.98711329348725485033,486.925907653472791025706,-403.11841182167268016201,-985.836021436075952806277,-503.712162207572589522897,153.836036203222420226666
49.3100000000000022737368,0.0487673204237225946244827,0.206268408519714757654029,1.0976217534441110590393,0.0402395235186277788752562,-0.00462288300610594771883344,-0.0133239467095533237889216,0.00691531098710529597284324,-0.00506408341699453486139948,-0.305937182925413941880777,0.952012872887726402382214,0.0230322806808877095230415,0.0364308092090886020963936,9.78265017106304313188048,-0.0177993543147265294301906,-0.0092930539959299816171745,0.000220453120888573523162429,6.48221895304545903115923,-3.39311762247922610313822,2.06459424964668825097647,1138.21734811077726590156,1122.11075685848868488392,1132.08758872452176547085,1136.94031297793367230042,397.134580931285313454282,-302.16797698385761350437,-801.574154080209723360895,-305.020536854685815342236,153.83768447187361516626
49.3125,-0.444258695132283720763411,0.147654835556701169441141,1.11392929074136404210549,0.0383909017320690978958275,-0.00391489956044679433821987,-0.0101967417672371180731306,0.0069468055014875349992276,-0.00507598464598940646297365,-0.305949996256811740380499,0.952008461907519420996948,0.0255013334378242466360387,0.0406660003783840956481654,9.77992282834913240208152,-0.0178929745599234572839276,-0.00929072146989609951028832,5.05672714452275071051954e-05,6.48216768167205703576883,-3.39311315668378910004321,2.06459705615629784958287,1139.05387022293666632322,1121.53161519074888019531,1130.36260965491305796604,1136.46201060921521275304,279.313357448590352305473,-142.156477091332050122219,-611.520360028690902254311,-87.0191085761116625008071,153.839266257844059282434
49.3149999999999977262632,-0.936222570740994686211423,0.0641418874497011459734352,1.04496772339600285661732,0.0352153021325966597565582,-0.00395341924030967635517175,-0.00627758978943992063809221,0.00697279774489945394777557,-0.00509373027433716440287581,-0.305961396122395312691111,0.952004516062820549393564,0.02824557362441197302938,0.0444502711735847849672254,9.77795376905591773208926,-0.0179797891024210260146887,-0.00927126660411911086845382,-0.000134348982555967369403177,6.48211533539361539624224,-3.39310749348540685588205,2.06459708484560744423675,1139.61391489801894749689,1121.39997447303267108509,1129.02998692438109173963,1136.50521743505350968917,135.209140909113500583771,55.4719383225517930213755,-360.372575082826472225861,95.720493131280960596996,153.84108887995981262975
49.3175000000000025579538,-1.25921797656526179842729,-0.0089307286770481941751143,0.911749495002127097187383,0.0322172976453814555175548,-0.00430931194166509889259542,-0.00333287757811232465340878,0.00699217777161243673328395,-0.00511400579808505510032157,-0.30597117902484816109876,0.952001125283642557484143,0.0311830195943620484821945,0.0476884944034053209760415,9.77679247242756765956528,-0.0180570522896814598945436,-0.00923734517746572190988186,-0.000328784275001902694113287,6.48206210900612855851932,-3.39310091941873315235512,2.06459524120382642564664,1139.72991592748257971834,1121.80897488236178105581,1128.56074677949800388888,1136.94061307487186240905,-6.17132507122417184319829,265.940944447902836600406,-57.4067001704113053506262,213.529479928347313943959,153.842546338457026422475
49.3200000000000002842171,-1.49895067123353853411061,-0.0826147729765582539140922,0.708202222454514584981666,0.0289912033547775199737728,-0.00426633605106687980451641,-0.00118135332713615519122097,0.00700837929135609584430089,-0.00513293270752195832790088,-0.305982924578601933607302,0.951997133241850646001581,0.0341877275663843571695821,0.0503764452013421432097218,9.77646966558486063547662,-0.0181221714058988278561735,-0.00919216371576891087824546,-0.000527177595427401812430701,6.48200820360438978440243,-3.39309320897811428352497,2.06459261517947689767993,1139.58305827266281085031,1122.7296791952728653996,1128.74295342352888837922,1137.57286483469579252414,-89.0164876864573813008974,497.167509484731624525011,216.103199699469854522249,264.515524514139997336315,153.843942566118130343966
49.3224999999999980104803,-1.70190997972271151894574,-0.170925787293967873514688,0.400919870575671077883584,0.0246675958161443574512273,-0.00388428423123725070215118,0.000435582326169275078908694,0.00702431156130679194143918,-0.00514937256179683056078744,-0.306001068952578836324108,0.951991098055569029412482,0.0371825945964170401225601,0.0525271372696492627740739,9.77699743596147463620127,-0.0181729390433386268910443,-0.00913931771257300157307313,-0.000723964898902414426967722,6.48195384997575274610426,-3.3930836202065610684997,2.06458912249973325359065,1139.28483348905069760804,1124.29481242978317823145,1129.64126277799437048088,1138.26319069744135958899,-100.824553469777384862027,621.135480851854140382784,425.268159391508390854142,202.929583510773085208712,153.845550751972069747353
49.3250000000000028421709,-1.80659058687487039662756,-0.238203178575466800737104,0.107399521275911735695985,0.0206357826539396403686677,-0.0039006406973625244206938,0.0010788676632530291681078,0.00704078834873637059155183,-0.005167176226984095468997,-0.306025600186214330467038,0.951982996230211764299156,0.0401924432879559173636963,0.0541554830238851897528107,9.77836911687725773845159,-0.0182078193427022243244817,-0.00908246754825166834057537,-0.000913578499946163637493446,6.48189988271561912114294,-3.39307246133045881109069,2.06458370604375840429157,1139.07893550531366599898,1125.83535659953372487507,1130.86929422048751803231,1138.58751275225017707271,-44.7943813345089481003924,623.512938242037535019335,564.733024821982667162956,48.9595266294349684699228,153.846837422494473912593
49.3275000000000005684342,-1.84858920556473105278883,-0.282352722752449381005135,-0.206955354720061518447594,0.0161852193097605824567697,-0.00462995151722294003004965,0.00107456086835430730808127,0.00705440858178781656645517,-0.00518524041240111133871382,-0.306053685482575055232246,0.951973768221413441104062,0.0431726821234370977675709,0.0551795363628061891203558,9.78056211237960226867472,-0.0182260298117296708209079,-0.00902521029864479518156628,-0.00109099438005924608864616,6.48184693447718451864148,-3.39306064906908444456235,2.06457681860157959974345,1139.06086158237803829252,1127.41237712099496093288,1132.46492790210572820797,1138.5079883305886596645,52.7757885472081156308377,654.431726137140117316449,754.573772162579757605272,-128.498531218545849696966,153.848071478289455171762
49.3299999999999982946974,-1.83082754933372915395751,-0.285608424183013687169819,-0.585796889822915223255961,0.0104689646391997077945479,-0.00613966855823053388185873,0.00025699769648137237802038,0.0070631113303761313554352,-0.00519965878242250201940466,-0.30608388797561808525316,0.951963910934241486216933,0.0460168240627472219239635,0.0555367600584948245545647,9.78353708990292858516113,-0.0182274606805591203595451,-0.00897107469647970452719665,-0.00125177949226128832835303,6.48179512889812770026765,-3.39304851676422636330699,2.06456928902031844330622,1139.34281444804946659133,1129.10751523021644970868,1134.64216308129698518314,1137.94502009615803217457,153.119319395922389048792,560.133402944288604885514,818.862485894750875559112,-261.371642480483387771528,153.84949462202732206606
49.332500000000003126388,-1.76559758371784103481161,-0.234861442344769466572529,-0.883578112335581700165221,0.00582243570670453597371008,-0.00761887235750100411807439,-0.00125505045241098168312677,0.00706754774429286646703074,-0.00520735960903508012659335,-0.306117280112122358559645,0.951953091911253324042264,0.0486172542689649878067115,0.0552309989129825124054562,9.78723831130886345874842,-0.018212575511524557031473,-0.00892343266459191993000832,-0.00139203366624095540259043,6.48174436344839044465971,-3.39303592948781806981629,2.06456178296362713453505,1139.82645817935804188892,1130.21304413571783697989,1136.55924033158157726575,1137.20113011818557424704,228.956887664772892776455,358.096022882817635490937,761.61415851031199508725,-307.584141148051458003465,153.850634560440397535785
49.3350000000000008526513,-1.66167059810064188241086,-0.126168551780945381590726,-1.13589654171624498957271,0.00183339018799734279965841,-0.00882842724970589118327347,-0.00383872412044734129255019,0.00707061795406619276321836,-0.00520866037601574495552459,-0.306155339594993469720663,0.951940814552771574774681,0.0509174570980351418048038,0.05433840200525956454225,9.79159496284203179072847,-0.0181823676235623558905541,-0.00888529626931869841166556,-0.0015082959019418887888081,6.48169421255477651300225,-3.39302263684767968499045,2.064553902433364118707,1140.48759888637391668453,1130.89799534463145391783,1138.45023387385049318254,1136.40709939041698817164,273.396190374499724384805,201.952688622124640005495,733.248592684079312675749,-285.953373213611428127479,153.851729012701440524324
49.3374999999999985789145,-1.53778114946776334193146,0.0221243017956035820104077,-1.32982219523186251386448,-0.00162343321156716989712987,-0.00949297405898810731095239,-0.00733518037038125968879454,0.00707471784235535854079568,-0.00520750685157990011314721,-0.306194708708042662159698,0.951928121417070172149977,0.0529353794813805234031889,0.052956263644563475456728,9.79652385530618374787082,-0.0181384142106823277595939,-0.00885899218571062178895215,-0.00159755043181325127009396,6.48164445550856882505286,-3.39300928073843222065875,2.06454466506178668794291,1141.19343913122929734527,1131.22280757882754187449,1140.22548329499863939418,1135.77136325211881739961,263.207108956568788471486,56.0422334762447249545403,662.256756957528978091432,-176.384698587435906347309,153.852787279917436080723
49.3400000000000034106051,-1.40113109581466654951498,0.198046662087417779662957,-1.43381495203482156597374,-0.00468907229387012080418229,-0.00950364978297876285273649,-0.0115508839202448764654774,0.0070740995497242621301015,-0.0052055567320204790271454,-0.306232586000794171354755,0.951915947225655756369633,0.0546995288931085565931056,0.0510240423455456809653796,9.80193489414284613303607,-0.0180827401343431233560199,-0.00884626919330932896812225,-0.00165758838298008513191528,6.48159491230858009203075,-3.39299665852997689441395,2.06453443626319010917314,1141.80363443115743393719,1131.1782065120128208946,1141.76151765863983200688,1135.52517589747935744526,208.723599566594742782399,-74.4878046931790720464051,602.030704769469025450235,7.10713779125944888903632,153.853803565605971925834
49.3425000000000011368684,-1.22925477192539767123947,0.407660930688152345346964,-1.4441859027138153059866,-0.00816322220380650762083796,-0.00860043503663971559136669,-0.0166313192415168398241576,0.0070634735127586140146505,-0.00520279523434689483013527,-0.306269751648087451556535,0.951904078833411437798873,0.056209569304232279152167,0.0484860869538375899301386,9.80773111392029939281656,-0.0180177032449489182841518,-0.0088484614198652052768912,-0.00168706042340044360360041,6.48154555912951124696519,-3.39298496332616439374874,2.06452386710636659472584,1142.23705712906280496099,1130.8503685553614559467,1143.23563681884752440965,1135.80689894107513282506,88.0670398283546660422871,-140.404216275137883940261,472.454637137091083332052,194.207525757832826229787,153.854976444760779941134
49.3449999999999988631316,-1.0797963406016151122202,0.554800489160273468947082,-1.36173144775076004897585,-0.0110120236385639058696029,-0.00683163216166549503577388,-0.0204763462938640401767021,0.00704385291406954636844739,-0.00519800055176938662071517,-0.306309433024467947515035,0.951891476846858819449437,0.0574109697587289330433791,0.0454020954355453670858722,9.81380970443553835025341,-0.0179459307128299674904959,-0.00886654622659546580443202,-0.00168549895504599553039404,6.48149680288565122054933,-3.39297398134881955655828,2.06451380521731753248105,1142.24396963029880680551,1130.4761854306377699686,1144.12379084432313902653,1136.49621352626763837179,-80.9721595061132148885008,-144.453857898514570479165,285.429102768184236538218,337.158920896363611063862,153.855916128404516030059
49.3475000000000036948222,-0.923022976117424343023288,0.6475040513889364079958,-1.2004348303821978927175,-0.013765747751164070233898,-0.004497417495689832143968,-0.0237985054321341038541249,0.00702125037108951213088437,-0.00519196789758447074802916,-0.306355120907350453318685,0.95187697063508436290391,0.0582639636122117277050592,0.0419408313709938446178782,9.82006437559492439959286,-0.0178702741778173530839968,-0.00890111930886219523961778,-0.00165318113991503538168226,6.48144879106085358699829,-3.39296325509115392904391,2.0645042041034056268245,1141.83219633153203176335,1130.12809926586851361208,1144.66278233268917574605,1137.49269354555781319505,-265.441196800930526933371,-128.295484936941505793584,166.838795926884046139094,450.080254536030054168805,153.856817826172346030944
49.3500000000000014210855,-0.730395076248353758430198,0.681747407067707644756638,-0.942043816426830660226699,-0.0166815866055670981860093,-0.00183465275449291431025811,-0.0270265380240448070681136,0.00700282398150465449498947,-0.00518743308625044599602383,-0.30640440237357668973317,0.951861270464548048231279,0.0587664792891811477160147,0.0383059557024833657878915,9.82638891673352787847762,-0.0177938222261410615432364,-0.00895214643785683175658541,-0.00159109807657331820719693,6.48140195488403136891975,-3.39295317942050456139214,2.06449453377826186439847,1140.91676364629347517621,1129.83470800595273431099,1144.95798482395798600919,1138.74661479894894000608,-381.483810004539463989204,-81.7821232863769012055855,61.7510513664108202647185,424.564069456505023936188,153.857856994282201412716
49.3524999999999991473487,-0.575079961208337486766595,0.646411896257482521122029,-0.694766046306828588541293,-0.0184601425281175519910182,9.11450930434688126949294e-05,-0.0288900731321133190376838,0.00698843497192373850485092,-0.00518169004942682469294635,-0.306452581020710213000058,0.951845902934151832930354,0.0588662846707304759918955,0.0345325174515109939443747,9.8326829663232135914086,-0.0177196768334298357383538,-0.00901903441497911399771237,-0.00150126438496166149036415,6.48135655147521827501578,-3.3929444947873133031635,2.06448581505729578111641,1139.92477728151106930454,1129.71918864943700100412,1144.97153758952094904089,1139.61551389283840762801,-403.803032324979426448408,-21.841539526747251187544,-26.1779592883024392335756,271.026654351405852594326,153.858687803355422829554
49.3550000000000039790393,-0.441534870075186880455931,0.553135280528517014886347,-0.44069220695366140283511,-0.0194885539642818093886145,0.00177234697875256635470065,-0.029875831678256272588845,0.00697514074953560665737218,-0.00517043884879299451423629,-0.306496111234490220542881,0.951832053199219707551038,0.0585050321794556293930611,0.0305928368780883502831003,9.83885194416373032311185,-0.0176506831583351300740681,-0.00910077802526994619758405,-0.00138647416670650337235104,6.48131191882563939543616,-3.39293743876365549994034,2.06447920971432274939161,1138.89774848466754519904,1129.72550030831894218863,1144.82709502751640684437,1140.10174807070666247455,-409.681684225251558473246,21.2838531369816585936405,-81.1137404743061551926075,109.705227256007034952745,153.859482536268444619054
49.3575000000000017053026,-0.325934534594034652776884,0.390273155007027860996516,-0.153671975433494867324669,-0.0200565431329274498906123,0.0035693421248404752846306,-0.0302293580173201258121107,0.00695754414408412784343039,-0.00515312287375905685865574,-0.306533304365667391699901,0.95182030735370004581597,0.0577155139814170409229277,0.0264341057957667019406856,9.84480740823416233808985,-0.0175892015397167388035538,-0.00919605566033638958944874,-0.00124989532579270379471226,6.48126702847239322125006,-3.39293184384743273795948,2.06447521360058017236838,1137.87636886038376360375,1129.82560791512196374242,1144.56596888714921078645,1140.1640400291187233961,-307.465378620288390720816,42.9458772310617362677476,-96.9171265760423210622321,-52.3419562946422445293138,153.860394686177130552096
49.3599999999999994315658,-0.276866411394389999589549,0.228210449795153813568049,0.0571496690979541588362167,-0.0201834013000359302481002,0.00471944123209222955034337,-0.0299893201010993336319554,0.00693259451030970273721632,-0.00513227414270715429078784,-0.306563583947637774418382,0.951810859473070092207081,0.0565799161583179360812679,0.0220635615154053388309308,9.85046747276369316637101,-0.0175369666012195127291484,-0.00930334487249948223486218,-0.00109476191563695609762497,6.48122110966344067151113,-3.39292738015429673481549,2.06447340657648004125235,1137.36042159156750130933,1129.9402296944740555773,1144.34250939463663598872,1139.84003828923368928372,-110.725804966148388075453,41.128359044548112422035,-74.0121512503341136834933,-170.68768226936663268134,153.861120126842223498898
49.3625000000000042632564,-0.280277109953061487335191,0.0641964840670913028386479,0.229057284598224386584775,-0.0202003920897891701968785,0.0049525117163196985883844,-0.0293605485806956341410245,0.00690267032285559693077781,-0.0051139139099635588098236,-0.306586894082954697360321,0.951803678229519167786066,0.0552178524068622431086872,0.0176083324563536813833764,9.85575718553043600422825,-0.017495071491436312710599,-0.00942107369075732663243894,-0.000924036828371741251683669,6.48117387979520742646855,-3.39292357080288242698884,2.06447221859615392958176,1137.32273983555273844104,1130.03124971034480950038,1144.19590813089735092944,1139.31060161777145367523,72.2156008485484335324145,25.0742843850602135091776,-33.5288198923364149095505,-208.17493608477244038113,153.861809330092057734873
49.3650000000000019895197,-0.322097584390952540456254,-0.0802851745438850072922321,0.365712619848383713172524,-0.0202964694685178401178938,0.00423265408954994360596347,-0.0285371767033489459608475,0.00686882686031033747736663,-0.00509906658516383597817834,-0.306605225840708983664484,0.951798108445502166752306,0.0536667073875602002042129,0.0131374729934947281906332,9.86061215606865282268245,-0.017463995578605596981081,-0.00954781796366338184056666,-0.000740620051651042594562102,6.48112579232520236161008,-3.39292019833292179953332,2.06447149090996617815108,1137.7214995958104282181,1130.06560111639942078909,1144.17486529517486815166,1138.79916360880929460109,259.010201543068433238659,-6.97681670486142735398971,34.7486360790614980942337,-154.699056682652269500977,153.862468352979050223439
49.3674999999999997157829,-0.394567259153359883860901,-0.181803544207003120458666,0.459162442059509734448852,-0.0206669877732764441236046,0.00297415796230451022486019,-0.0276026012332291383055694,0.00683270452278357618564053,-0.00508530946076352855650393,-0.306620749326610764207146,0.951793450198061163902707,0.0518980306007687172686893,0.00870676493388509997739533,9.86497791363416354215587,-0.0174437381571273426861257,-0.00968235793656299637000018,-0.000547224254645928167954672,6.48107743835385541331107,-3.39291723716959392476156,2.06447194234707342985757,1138.61779084326690281159,1129.99636562682053408935,1144.36965131129250039521,1138.53710633435889576504,483.235790822689693868597,-60.8328687320552319306444,147.325349853751617956732,-14.6745100811510802429893,153.863090967661236163622
49.3700000000000045474735,-0.486226487113443739396246,-0.24522135856625498773198,0.520830614290844540192893,-0.0216019453417948814610838,0.0015658788261442412731439,-0.0262165863831204451472878,0.00679654272089469727036182,-0.00507111321641509453506114,-0.30663498265083638516515,0.951789205428550388887743,0.0498978250276192955570131,0.00438526545081152629990129,9.86880894410615105982743,-0.0174338936120914979321928,-0.00982370652461788881892879,-0.000346141757090880281596407,6.48102881562858623709644,-3.39291450551202977692355,2.06447377520141683859833,1140.13767854992511274759,1129.76143677273898902058,1144.91149204444400311331,1138.72579105840350166545,601.42385560831075963506,-113.979909750410925539654,253.889944823601751977549,165.061695194760574167958,153.863796178656514257455
49.3725000000000022737368,-0.538767942585270831479249,-0.254155304612331489622079,0.529122570619217635901066,-0.0228303126946549916898022,0.000697121125322225018705602,-0.0247042562425127294745142,0.00676208415141656485336519,-0.00505512375483991617530766,-0.306648740235302974532772,0.951785107457888579496341,0.0476587388275925977199066,0.000230661096864606673939591,9.87206871860900925241822,-0.0174336733044487858512728,-0.00997112136196579360025716,-0.000139168359663734755036005,6.48097964720057451160073,-3.3929119289914213553061,2.06447672892139078015816,1141.62491012130999479268,1129.42646607806818792596,1145.63910103541115859116,1139.36241481033312084037,597.600148938543156873493,-162.705847889140130746455,345.575665397059822225856,341.89996844396944197797,153.864349165619501036417
49.375,-0.53134230212884481225899,-0.230896599154170628631633,0.493331512204033761914701,-0.0244711827404471907176919,0.000180071618887426025592408,-0.0230475545963228084511698,0.0067318902096556226463675,-0.00504080332528880365600132,-0.306663403153388469668528,0.951780677009748998784744,0.0452585004573658675197656,-0.00365747473941231693306264,9.87472831359137614981591,-0.0174419180938382399614905,-0.0101241565073921166439952,7.26865982480310310939048e-05,6.48092972684443235920071,-3.39290929028462961980495,2.06447934885055994769232,1143.1256792946151108481,1128.94790753329402832605,1146.63937037142773078813,1140.43529090062179420784,611.904537110614796802111,-238.805169436763037538185,488.331173002723801346292,530.760282744477763117175,153.864866595869898446836
49.3774999999999977262632,-0.41631261956271664592677,-0.183517198334512188218071,0.407372948957070657449719,-0.0269109632705697293664215,-0.000124596312369555607332816,-0.0213964372389462004209193,0.00670522315263148531438997,-0.00502823749250025549273335,-0.306680992285335962677095,0.951775268498435855768491,0.0427303694588025001488418,-0.00726430612709637324453382,9.87676805509870803234662,-0.0174571697371490655581461,-0.010282667494444017522448,0.000288819897160319722685673,6.48087883873380032895284,-3.39290617414432338350139,2.06448093754882089356784,1144.68443280686028629134,1128.23244023088545873179,1148.08075690042255700973,1142.01621622405309608439,498.054165894445645790256,-278.72631453091634057273,549.793754103066703464719,588.305565880699873559934,153.865447114312956955473
49.3800000000000025579538,-0.213928116213352170760231,-0.138585159343142888532796,0.310815050200855036433012,-0.0291398531073962657744758,-0.000203653092837778436222443,-0.020469629418728225306312,0.00668088784960409100971424,-0.00501692415691808429184517,-0.30670198788768521236392,0.951768737274567899753208,0.0400980758186317842728386,-0.0105892153228480806470557,9.87817616513068585959445,-0.0174778516382855519939454,-0.0104467217312872867607254,0.000508990474712511667756965,6.48082681478564381905016,-3.39290224007623519852928,2.06448117195433455961506,1145.61595012408861293807,1127.5542759606387335225,1149.38833914194447061163,1143.37681873002679822093,268.645131302036020315427,-275.21270349865989146565,515.170231132297203657799,507.47080731181500823368,153.865897845524813192242
49.3825000000000002842171,0.101116741257560385780501,-0.0961450526568656815840086,0.204332939562399229505019,-0.03083858605376236378115,-0.000194384575092606566712114,-0.020003909952861814031122,0.00665759542471114698636292,-0.00500764784769463719427129,-0.306725446233523824091094,0.951761391466152129048339,0.037408772560531350359625,-0.0136272238881305490787454,9.87894827308092260409467,-0.0175024539055684373589639,-0.0106165589986805860428509,0.000733132310289295830926792,6.48077342674361744911948,-3.39289721461526116996765,2.06447979682387927624632,1146.02765846337115362985,1126.85637671339145526872,1150.65660805608536065847,1144.55357026061346914503,49.6744256405233244322517,-291.90092039752187247359,510.553756764930369627109,439.704201505118987824972,153.866314965538720116456
49.3849999999999980104803,0.580068473775517401413993,-0.0512321839945555773665475,0.0827444270362531208995449,-0.0312238711407403050912546,-0.000157388261797121258543652,-0.0198753126577862690438359,0.00663503322360229491616579,-0.00500062581795490766062295,-0.306750265748275352528651,0.951753587444924886717956,0.0346918777386195503753541,-0.0163597854661754749105995,9.87908762823262165397864,-0.0175297384479315317140635,-0.0107925717602109644266406,0.000960987000772091652829598,6.48071891218241180609994,-3.392891274788909505844,2.06447739674093755368744,1145.86432225229100367869,1126.09477135865245145396,1151.94110792576680069033,1145.5753397375503936928,-162.619103482446490716029,-251.429001148752433891786,405.347503266077183070593,300.404052153254269796889,153.866776789845715711635
49.3875000000000028421709,1.02284914730594778120576,-0.0176314492007960850472603,-0.00315542745918522471101908,-0.029573074343858325035983,-0.000139092271666809791591871,-0.0200471944717724968876293,0.00661834580455456129854941,-0.00499879370544613604171458,-0.306775881538572436912915,0.951745457452491061545174,0.031994181281854994214342,-0.0186505051580577868586275,9.87860435921220059185544,-0.0175589449368654046401694,-0.010975240059904540351754,0.00119199611434411953045376,6.48066409106837681974866,-3.39288486330014338321348,2.06447420677987469872505,1145.21456294595850522455,1125.59923170764704991598,1152.68334557241678339778,1146.05559052138050901704,-343.096402037424013542477,-153.947631032145551444046,204.81614582402906421521,123.351665144746775126805,153.867128896969433071718
49.3900000000000005684342,1.45171972590741060749053,0.0160009566205313001618915,-0.0650894054765702306797337,-0.0259771031571437924223567,-0.000152656247430551996087378,-0.0204256307508003734363378,0.00661021658951898866823926,-0.00500122816489080405932821,-0.306802105268006441995965,0.951737048479352587548874,0.0293048368841517213601033,-0.0204340856464643727541386,9.87751789961152759644847,-0.0175899411849573007737835,-0.0111650471313767558206864,0.00142474265267161000897422,6.4806096549694984787493,-3.39287827773192462998963,2.06447146116687552108715,1144.14884024210300594859,1125.32503320349132991396,1152.96518865488746996562,1146.19209806327444312046,-470.596665357398364903929,-65.9415498063171412468364,27.0014113177940089371987,14.4669068966454386071518,153.867445743466078056372
49.3924999999999982946974,1.82675617576020621335431,0.0533040909848061239539874,-0.104731852862617894062147,-0.0212634674442709198372015,-0.000192012591046629042465521,-0.0209068124839390245828241,0.00661156892079849990706553,-0.00500618187642979522999909,-0.306828300113207885768674,0.951728567323094964969243,0.0266089948716903661185551,-0.0216850973597849661089754,9.87585687879621509921435,-0.017623256453512429337005,-0.0113623378855272367388141,0.00165697184124617485564968,6.48055615443391186403232,-3.3928719229601762563675,2.06447055647983779280707,1142.86157961917365355475,1125.26952395861576405878,1152.81835262900563066069,1146.1279250558636704227,-536.729980552261736193032,30.8629030338421586066033,-159.887167186761928405758,-47.7317811400763716278561,153.867731877728147082962
49.395000000000003126388,2.09665339902597125387729,0.0984174343079385893773292,-0.118875693293936435246394,-0.0155377332418078061698763,-0.000242480275442183163675525,-0.0213749849376954868807044,0.00662275220581229513705512,-0.00501191748881450044317276,-0.306853960531620562068866,0.95172018301354810443371,0.0238970581393443542994603,-0.0223910884611609461991577,9.87365928885774835066513,-0.0176599739132488019188738,-0.0115672106816323491673693,0.00188571599970989997943627,6.48050372653435502456887,-3.39286604594735896611724,2.06447232066246533221943,1141.46519033934032449906,1125.47934771866061964829,1152.16575281895325133519,1145.95343915757393915555,-604.220758245774163697206,141.451287315312981718307,-383.647908840734260138561,-70.076284351908341818671,153.867978561061988784786
49.3975000000000008526513,2.26551205768294705578114,0.162338025382385009454111,-0.112619037205214878039072,-0.00776844416689149129540137,-0.000259215833885786950396835,-0.0216480525298726050875686,0.00664134512631328437215483,-0.00501757360603171873036921,-0.306879356287383442403183,0.95171183052618502085096,0.021194907984672346074051,-0.0225892631699834839364982,9.87097298044712267994782,-0.017701542126967183959918,-0.0117794236380148516912802,0.00210754886334161293040546,6.48045227995982919821927,-3.39286078717812777938434,2.06447699564575914976672,1139.84047582794323716371,1125.97678039519269077573,1150.90011308480097795837,1145.77754363410394944367,-568.793787283919982655789,205.727990995415638053601,-519.853354327251395261555,-42.0543209464468006331117,153.868225041374046213605
49.3999999999999985789145,2.26865199072493117782301,0.220363641482905853186125,-0.0936158651772457939266303,-0.000902181593164111199877053,-0.000168285301020336077642073,-0.021582926246939904829647,0.00666519681850046095267226,-0.00502733613174685418228949,-0.306904864850978065238252,0.951703383149159365395064,0.0186242330766187152990554,-0.0222848087573199599153995,9.8678549073669614699611,-0.0177495801142536907546443,-0.0119982476304857418186733,0.00231910958964186677058739,6.48040157224740376307182,-3.39285626437965825985543,2.06448351738587954073978,1138.62122140292331096134,1126.50798767363676233799,1149.56648604731935847667,1145.74316755284189639497,-448.759069647346734655002,209.191462194878425862044,-556.412640271752934495453,17.3358283836389546195278,153.868385720916961645344
49.4025000000000034106051,2.1415739468828531855138,0.273560443658109442299775,-0.0638344496132077776628932,0.0055131127064604948384563,0.000145603318707903121777963,-0.0214423060067139223394683,0.00668812195631469756651466,-0.00504217536927175496996867,-0.306930030486334382011648,0.951695026525578691156682,0.016273439173667671175938,-0.0215826353538004084287039,9.8643723085503154379694,-0.0178057438462207520690761,-0.0122223871035401152052025,0.00251698838314890144599034,6.48035067629516792209188,-3.39285263798503899934644,2.06449137504210078475353,1137.59668047970535553759,1127.02273770616761794372,1148.11804988344078992668,1145.86422277602218855463,-405.782743867004455751157,190.417287537132210673008,-624.897603962470839178422,80.6908273275936238633221,153.868495516962525471172
49.4050000000000011368684,1.88042076463179985701402,0.313774015550823348608134,-0.0130101306144951266163812,0.0115180679490092269939838,0.000932426166430493281490899,-0.0213360025458813711007888,0.00670462614654576856410007,-0.00506059468706102164731186,-0.306953065992699669628507,0.951687381946003219113095,0.0141830267524877332019351,-0.0205947719038868104490803,9.86060127791569662747406,-0.0178716252771615909111791,-0.0124499404912529927635934,0.00269797811867180433592628,6.48029872244361015987124,-3.39285013271031088422092,2.06449988232662295928321,1136.59230768358725072176,1127.46007411132291053946,1146.44199802750540584384,1146.14662168948007092695,-335.46740545692540536038,112.137617487962543805224,-582.605032322801548616553,109.589995311088927110177,153.868563632399400376016
49.4074999999999988631316,1.61233072778828123716721,0.312096707880444357297023,0.0474442262451806318068748,0.01479700297397616194639,0.00201497793472892169561184,-0.0212596248229536717577748,0.0067139894791053734979247,-0.00507872398502814438592257,-0.306972599985227578844871,0.951680916105211438527078,0.0123223042198454466045199,-0.0193639039846119770382771,9.85662508535359904726647,-0.0179486713854901981657353,-0.0126785324105199645461362,0.0028592134716507945808861,6.48024578087432345796515,-3.39284919422871755756432,2.0645087005866908924645,1135.91934345242225390393,1127.58342579360692070622,1145.20502472182943165535,1146.41217275257713481551,-239.509947693354916964381,-11.0557775992618019245128,-449.38383928870030104008,84.0842350338359239003694,153.868564315981359413854
49.4100000000000036948222,1.33357976248335452496008,0.257839632172150556854717,0.135182664303640481806568,0.0169415156359073726388687,0.00351508749592985367954379,-0.0211639742943493074089911,0.0067183814952513952814539,-0.00509199885485469867091313,-0.306987732038935756673226,0.951675928577892626947232,0.0106317277119428038600901,-0.0178893050756158272784901,9.85253283875742980058021,-0.0180381395265433591701409,-0.0129054794195700376496783,0.00299824501203819950706508,6.48019235975882246236779,-3.39285017515479969674175,2.06451822939936535661332,1135.39475794511986350699,1127.40479522332657325023,1144.19507883106075496471,1146.56704286464946562774,-193.055957391599264383331,-145.138966806387855967841,-397.212934749065027517645,6.95953890348945147792392,153.868503719521243056079
49.4125000000000014210855,1.0116473248620687641619,0.125589513342247799387863,0.280954623454388985326347,0.0192579377454401221014813,0.00540997270386575027784071,-0.021084350277875196777444,0.00672313958842097377649472,-0.00510099913952355519392023,-0.306998245819076476248455,0.951672449777300588635853,0.00912974853822523871316186,-0.0160867757446117864983393,9.84841721319189744576761,-0.0181409621694557723903252,-0.0131279713771355905499449,0.00311331959788832719759899,6.48013870285107973501226,-3.39285301375809833501762,2.06452834537239082735027,1134.95406366546376375481,1126.85773095957461009675,1143.21896004808309044165,1146.44697044709459987644,-120.695170413110361096187,-246.048398677972784298618,-333.780333488342648706748,-116.80713818069926901444,153.868357306154450725444
49.4149999999999991473487,0.756604336837454205522135,-0.0315530064434338605727781,0.438825801330665121735564,0.0211574652286945601165069,0.00640443463722343078736721,-0.0209926815264758585832805,0.00673028789438116347570995,-0.00510507364487546196063494,-0.307005645577757280140219,0.951669984162032966956701,0.00783109168370526784186403,-0.013948919899902198493713,9.84437401426813174509789,-0.0182575853014594439993612,-0.0133433365911204953463409,0.00320307971773242921437186,6.48008479627367339759303,-3.3928572363999842664839,2.06453948526202379909478,1134.79128209305486052472,1126.17455322993782829144,1142.52617716362055944046,1145.98300717374650048441,-6.5116931042178629596151,-303.700967228432261890703,-278.019615279202866986452,-275.29501252633519925439,153.868172270201910123433
49.4175000000000039790393,0.509497560011086036979577,-0.210206369294516470791478,0.627849701524608949654294,0.02296078686287998660287,0.00600824946148865220857394,-0.020664105437000292175842,0.00674106481782286819093297,-0.00510307856482074013310113,-0.307011589871890089309403,0.951667993649429333480327,0.00674386330961691555369031,-0.0114929417098822983511752,9.84049955211710347668941,-0.0183878593073250676259711,-0.0135491096825676362452873,0.00326671374764549073826947,6.4800303631370468337991,-3.39286232376001839483592,2.06455201004406552200976,1134.92150519994265778223,1125.33922612343167202198,1141.82886197168636499555,1145.0704953844622195902,112.076007737857210599941,-345.125607962569006303966,-299.318783293103138021252,-437.438820627816255637299,153.867920453585611539893
49.4200000000000017053026,0.264748249148334335867361,-0.380911216450009748601957,0.827239489703219033067683,0.0245222445030348588923541,0.00466715967092108403174722,-0.0198850259999719912451521,0.00675375032606508746146901,-0.00509661873391917350645253,-0.30701671468858710012384,0.951666276065461391731048,0.00594178743446554819690464,-0.00878115252654014522004644,9.83688836702053670535406,-0.0185309476190465664824369,-0.0137430885504941993624506,0.00330421097733546182545483,6.47997525012610964267878,-3.39286807238613929982307,2.0645657893637818780519,1135.35166213174443328171,1124.44892519012410048163,1141.0295832471542780695,1143.79581307060630024353,251.201048193162193911121,-350.917549312135577110894,-359.847423921846598204866,-577.846134537392458696559,153.86761265885380112195
49.4224999999999994315658,0.0247598374338267313010675,-0.516284314024223256467394,1.00617119048117786839214,0.0253960589733875467810531,0.0029272114436282776518683,-0.0181840993349217001917584,0.00676383548320259441605229,-0.00508863655732048284635605,-0.307020640270585842834805,0.951664970717043701142757,0.00553500048759449515128894,-0.00592546016775508110896453,9.83363087477972364069956,-0.0186852877455833746300762,-0.0139234068632962913747431,0.00331647674847601733535973,6.47991931393857889531773,-3.39287427935312635440823,2.06458038409003918900453,1136.17751044090732648328,1123.58463837687259001541,1140.02962485207876852655,1142.18126471177788516798,449.178534032487107197085,-349.966460075805230189872,-486.896603816536412523419,-745.809194148323967965553,153.867237193806488448899
49.4250000000000042632564,-0.243854647844727767669326,-0.617444393782228262423928,1.14134929439335408574152,0.0253227308219865360205958,0.000837129527613567894425706,-0.0146503983477743911223445,0.00677259396820071701145194,-0.00508289257563863689642902,-0.307023548773796339794728,0.951663991911031903470075,0.00560686954827996787004141,-0.00292910549094807515224659,9.83080935112388942798134,-0.0188485600383906312660365,-0.0140886027112717762688199,0.00330557683125889652589469,6.47986214813038152726676,-3.392880324989633766819,2.06459461084127982033465,1137.59755480190801790741,1122.69909288974417904683,1138.59510022807035056758,1140.06676709986277273856,576.591491989916562488361,-283.353611264683991066704,-548.224482277411539143941,-766.220939286603424989153,153.866709146899154347921
49.4275000000000019895197,-0.436061985874697854992377,-0.643016718850022095388397,1.14599152064744802537177,0.0242285063856010930705143,-0.000888321537310058934738821,-0.0103950103467286957686921,0.00678167335336091105929546,-0.00507914916100008894533913,-0.307026453048133363132877,0.951663004714531690630963,0.00615507931913709688959147,0.000184078968690173927491571,9.82849668203996529314281,-0.0190177611346040442708016,-0.0142377118914016938949763,0.00327447861534458295115768,6.47980343785413648305394,-3.39288557036932569843657,2.06460801352645351158799,1139.06046790085838438245,1122.16787032054844530649,1137.28850244069030850369,1138.35016001534290808195,613.7526952276527936192,-156.373247688549213307851,-506.072080386780783101131,-633.015796187403793737758,153.866205882892728595834
49.4299999999999997157829,-0.577786774440058881197047,-0.603546472858698113128639,1.00470458109359439546893,0.0221627470130830936390076,-0.00270337213302113393148529,-0.00539122055212928278505879,0.00679527389921104254394413,-0.00507840519886956429096436,-0.307029202827284353194415,0.951662022888173142476376,0.00717535104480217667682895,0.00344341976323285503536198,9.82675321423517189600716,-0.0191893809790635271050885,-0.0143701700195354910988277,0.00322723578154399375755856,6.47974334320102318685031,-3.39288999595093088146314,2.06462010064318768343128,1140.66631827804349086364,1121.91722665130214409146,1136.06473982613874795788,1136.9016881189286323206,699.320894802264433565142,-42.9296216698511230447366,-458.092979522227608413232,-538.718776016728043032344,153.865639576476155525597
49.4325000000000045474735,-0.681020290831919505869507,-0.482182272614447127168091,0.668949893921606975055738,0.019206743895276157108043,-0.00495352593603187382753639,-0.000152477710550795431641846,0.00681807159821114748543547,-0.00508481220429224389789624,-0.307029796071483618291609,0.951661637211385746937253,0.00870897803308190096571728,0.00690550032013330372659965,9.82562494508542627613679,-0.0193595866823444463789006,-0.014485771558378457771199,0.00316888279617495109002911,6.47968254947028743373494,-3.39289402637140247165348,2.06462962095694013697766,1142.55707237487149541266,1121.95322221219907987688,1134.99803754307799863454,1135.65656613525788998231,659.847299050196738789964,60.8873484162502336403122,-280.711872469548438857601,-362.66442430500865157228,153.864891355050389165626
49.4350000000000022737368,-0.71778762428552622676392,-0.326568572979397842015459,0.286207580040187647973937,0.0168955983336905035674391,-0.00654788142392460567609014,0.00237412436033319343073322,0.00684739293037465914654183,-0.00509710180616020688132428,-0.307027924787270811712858,0.951661972790946220079888,0.0107290146570224384503511,0.0104574513312697126021789,9.82514440828904511704422,-0.0195242800906063780630451,-0.0145848493215261724303966,0.0031046420713687189994745,6.47962082380147563753781,-3.39289760787449123924375,2.06463639930655951104654,1143.96555477329616223869,1122.22166339338355101063,1134.66118046379028783122,1135.08836599740266137815,505.305068990997199307458,137.117427998952848611225,14.7113957430198851739078,-134.724112974376765805573,153.864214529356445382291
49.4375,-0.724366511654026545841134,-0.132695698381815552213681,-0.130361882505337506321652,0.0153895502056204530605399,-0.00712058303192371691570095,0.00194092480671810715085746,0.00687907476149552960659195,-0.00511305391008965923194118,-0.307025641657620640412318,0.951662408463532893954095,0.0131883499970718472138476,0.0139549853800578632645468,9.82532836605340165192501,-0.0196791595402940021342086,-0.0146682408181379678874245,0.00303983966428082253222187,6.47955729689365433898729,-3.39290015931732336085247,2.06464070586076653412988,1145.08359771982418351399,1122.63880935219322054763,1135.07159452179303116282,1134.98294557038661878323,414.269402762296749642701,191.732870403431405748051,358.816419505827809643961,36.0480902593154013402454,153.863488001213227107655
49.4399999999999977262632,-0.725972335032484261674313,0.116378445634339661163281,-0.576962080634555896097027,0.0145077838045202071881601,-0.00651914116593360279394709,-0.001563850980408214991213,0.00690671980412213993433257,-0.00512966045879235336274471,-0.307024887284362280048811,0.951662379754827481015411,0.0160278188016470223009602,0.017210843964155189689258,9.82617766435969031135755,-0.0198199766488772396999529,-0.0147371869373399827507498,0.00297953106564531264299767,6.47949148665605711983062,-3.39290122673428884425562,2.06464326578332091344237,1146.03690178710576219601,1123.18032774539983620343,1136.4552625613177951891,1135.26860644869907446264,287.498217380005655741115,191.453952808380847727676,634.664835585811488272157,148.8479159262317637058,153.86256645306198720391
49.4425000000000025579538,-0.734248862951937475429531,0.320883553095930917908873,-0.856213531470357946950855,0.0138059619911100207173549,-0.00541919660795762980765033,-0.00551625522184303728606691,0.00692655356463769879965531,-0.00514359411193374745779883,-0.307027479631214295086039,0.951661342124380915663551,0.0191565925661280229974626,0.0200896477049684329951873,9.82767639487932598285624,-0.0199428388614090422448211,-0.0147932979913825198708954,0.00292830970940530883536712,6.47942389473171065361612,-3.39290077279278268207463,2.06464517564044713893168,1146.52108880672494706232,1123.59607911623561449233,1138.24491869972371205222,1135.72718515001815831056,140.15253021531967192459,154.956315674110413738163,798.807956445944569168205,199.834100225587093291324,153.861763307801282962828
49.4450000000000002842171,-0.7471061568168202438045,0.511828163879024744531421,-1.01780354913960402463147,0.0124850346943995126058891,-0.00407740092504521155908348,-0.00921770073394895250729064,0.00693884597400426170188403,-0.00515316171658604296051953,-0.307034618703191042321521,0.951658912345219487605164,0.0224816010533038547480889,0.0225473642098148879808761,9.82979199030583217222556,-0.0200445355523308499368085,-0.0148384906978101093616429,0.00289026571455543558955559,6.47935559389451931622261,-3.39289913106857099478475,2.06464742996451233736366,1146.73766443818271909549,1123.95510932377078461286,1140.44930234354956155585,1136.26777694982752109354,52.3198034646632734734339,141.633055669118789410277,903.60306399220792172855,212.370462179126093360537,153.860930924829517607577
49.4474999999999980104803,-0.752086918196760989552274,0.689818019445468610939542,-1.08983484961165655313664,0.0104143852467938561462413,-0.00268460295258719479696841,-0.0124400961626152176120463,0.00694479815583255982031075,-0.00515647624933159454824194,-0.307046131748290096474818,0.951655146750889247009297,0.0258940566247363411489513,0.0245629747033776074660594,9.83247721661303053508618,-0.0201227987006217315379963,-0.0148749034241165995623435,0.00286884026793195320501062,6.47928701839118303951182,-3.39289674343427671843187,2.06465040133616284379059,1146.78268782404802550445,1124.30424439458056440344,1142.76293401968064245011,1136.78903746091282300767,-12.8113439035521814446383,154.551260541859903696604,894.450754805163228411402,191.674917170387004716758,153.860079253340870764077
49.4500000000000028421709,-0.732289060017183079942527,0.85242937060567336438055,-1.07997202649033452459548,0.007680082153564270208701,-0.00129939278256734525203442,-0.0149656824843071509234527,0.00694817121578827912031784,-0.00515517454993140358115999,-0.307061122781542072956995,0.951650298825281737435944,0.0293313383996190411850957,0.0261921370318018847944685,9.83567079796504906141763,-0.0201763866166650915334735,-0.0149048156863773040292642,0.00286710207315774403061259,6.47921843569561506370746,-3.39289380979990706777016,2.06465319037607386576383,1146.67360771866492541449,1124.72786562648047947732,1144.92155611757766564551,1137.22615153567994639161,-75.0161607743009852811156,226.06418558318441114352,852.546737541770653479034,169.389926941089214551539,153.859209684315260346921
