t,ang acc x,ang acc y,ang acc z,ang vel x,ang vel y,ang vel z,quat x,quat y,quat z,quat w,acc x,acc y,acc z,vel x,vel y,vel z,pos x,pos y,pos z,mot 1,mot 2,mot 3,mot 4,dmot 1,dmot 2,dmot 3,dmot 4,vbat
0.545000000000000039968029,1.25362072068159902116236,0.356434737227287024019518,0.917176705456345331413104,-0.00820065687008638376231939,-0.0186758930177640114500548,-0.00956576524071640378610315,-0.0111662247788785577717885,0.00315726934971237915492082,-0.0533961914182764646463752,-0.998505788274240302371254,0.172028007234337670938729,0.107350298358578094548577,9.8033450648629738566342,0.000390407924905448783150369,0.0160850275330058356537677,-0.00697980399376996098886883,0.136913658194719817240426,-2.28327288856873389377711,1.17080999952308228984066,1130.959615543765039547,1124.9705563744635128387,1143.01339547747102187714,1137.46733212362960330211,427.789494571561192515219,-230.389995630821232452945,335.868419664256805390323,183.393085900160997425701,155.327005915529582580348
0.547499999999999986677324,1.2178338901639118585507,0.517827051608833133222731,0.885877425423284847738614,-0.00484701373238422168754358,-0.0174818309113012708422286,-0.00789981847147205352988042,-0.0111787439132957928250578,0.00315699792267586749547337,-0.053367977121541454454956,-0.99850713549420155867864,0.174577762973069733343223,0.107417441630608068159347,9.80656843127399824311397,0.000508759348064966834997158,0.0160139489042156850373555,-0.00704978134294213538285634,0.136906027708467825654282,-2.28322709703171167205937,1.17078547176464975443366,1131.95617456694299107767,1124.69606845422549668001,1143.5753644000765234523,1138.07152735127806408855,367.588357613339780982642,48.3331582749542150168054,83.0160976126989424983549,292.30976296789748403171,155.32543463939859407219
0.550000000000000044408921,1.09197315446912601721863,0.644666222093720264751937,0.813600856097662861188269,-0.00195331903989451414332956,-0.0158162718063376249444385,-0.00589963175606374699844192,-0.011194141958332216868488,0.00313957808829367496228357,-0.0533353903558655209615758,-0.998508736957426479285971,0.176425456544900549626931,0.107425823801157338532875,9.81009141788075922363532,0.000636031660831983761822395,0.0159358764084108900371817,-0.00708962332861898074376494,0.136898533533800687012061,-2.28318155695266078453187,1.17075881271757853419047,1132.79755733183174015721,1125.21222216583828412695,1143.4284759655345169449,1138.92888093846909214335,347.178231333236624323035,399.586474744091560751258,-201.749529809649004619132,395.735376650872808568238,155.323880525177855815855
0.552499999999999991118216,0.849447056684196843967527,0.751201003211965701034103,0.681098096472354419539386,0.00127509519251855791416306,-0.0130245554221889887902552,-0.00325485362455785274399256,-0.011212165307522167084775,0.00310712508662356386851533,-0.0532984077143874995785566,-0.998510589185522046129506,0.177582941745167477431977,0.107377619172694754867692,9.81382464333219495244975,0.000769927514456036367861136,0.015851109176233970504688,-0.00709653750891910909542881,0.136892456805174089762289,-2.28313662491638957874329,1.1707305990173446641478,1133.69206572360917562037,1126.69400082794595618907,1142.56661675102827757655,1140.05020423453242983669,318.455205760801334236021,660.164548427882778014464,-387.256376281765938074386,391.964584059632784374116,155.32204049667888057229
0.555000000000000048849813,0.58391337927870179402845,0.804294784870282941646735,0.536536838924702164099756,0.00372023777754797732933434,-0.0102815879530431305427518,-0.00136268880942461839689273,-0.011231505478350016849487,0.00306278437029275417760599,-0.05325963566089984141394,-0.998512558561933216694229,0.178087719649999143278762,0.107253625202966412777172,9.81767418635100952428729,0.000907673461350468253373835,0.0157607676978156370506401,-0.00706935741974097035106306,0.136889868322378926990268,-2.28309245246424374897742,1.17070150136724482337058,1134.38983336063574824948,1128.51304490797770085919,1141.49219408412568554922,1140.88870385876725777052,275.126157525164444450638,796.449819650842300688964,-435.478044877435934267851,275.383848879391507580294,155.320530834480251769492
0.557499999999999995559108,0.276700637081251699100903,0.836057602909584529626841,0.368356630764537229527633,0.00559071402535788516269255,-0.00801735004398799154523569,-0.000110798374258434307627896,-0.0112487491731013342088907,0.00301130829942646916289051,-0.0532208253605733414004497,-0.998514578485517168005003,0.178012811524194403123289,0.106991773333097756060184,9.82154562353877835789717,0.00104620716581407336223664,0.0156666827386598601912215,-0.00700868981919561175736311,0.13689128270031172829313,-2.28305028066884396764635,1.17067291302858489387972,1135.06769651123499897949,1130.67624992620017110312,1140.38922652664109591569,1141.42712347892938851146,288.850630070328122656065,952.763376190613712424238,-411.804006145939297311998,133.892758258889330136299,155.319048325349342576374
0.560000000000000053290705,-0.0956518914968175898438929,0.879947812372372295541822,0.159322811098620092939981,0.0064143964033258693904771,-0.00652467515463422877836086,0.000541288016413389756753549,-0.0112608626610712480448084,0.0029618101472915761215865,-0.0531880780080874124293722,-0.998516332569429065912914,0.177524054033136424735062,0.106531654798767971836781,9.82534631492199395097487,0.00118277778005783395544326,0.015571098091787844916456,-0.00691701111160730741644898,0.136896289841672791354199,-2.28301116399580728000274,1.170647530229851129846,1135.83408651098739028384,1133.27686178893077340035,1139.43317405339598735736,1141.55816765006170498964,261.272740681579080046504,893.742045073712802150112,-244.601902184967684661387,-45.8081893310008609887518,155.317302487283939171903
0.5625,-0.367040447427967153615214,0.939922336351989629044112,-0.00549147893417034193425108,0.00553606230775702604085531,-0.00596815875705707533233069,0.000412284554972684898471041,-0.0112676044428764582372438,0.00291678315161903898775075,-0.0531653599639994173253754,-0.998517603882101756340717,0.176665772524617237237976,0.105874273752093656097983,9.82899025346666732616541,0.00131535240277875966480314,0.0154762488441255348370351,-0.00679846126677027297324774,0.136902503904218347807742,-2.28297496841029223801911,1.17062698082238147989642,1136.37406021464289551659,1135.14496015156873909291,1139.16621701571625635552,1141.19808253227438399335,174.236591129056108684381,622.030878265922524406051,26.8484140725376825287185,-225.695788638131290326783,155.315875786274347092331
0.565000000000000057731597,-0.54695846399208425392402,1.02618717954835214634102,-0.14561611531875345848519,0.00333444988646428974038427,-0.00492574075930347909935136,2.5292821572154201728664e-05,-0.0112697790341232326194465,0.00288151463401704671304926,-0.0531500170736445287644756,-0.998518506806804428954649,0.175542299401471257880303,0.105038927851871549679075,9.83239982278310797880749,0.00144260987359145489636325,0.015383989954381437417763,-0.0066582234164245905627677,0.136907752643484426080533,-2.28294039041148533186742,1.17061126840474849508666,1136.70526946663267153781,1136.38701618026038886455,1139.56741612375867589435,1140.42968870687104754325,71.722854153222158402059,356.429322767098369695304,313.520284966352562605607,-386.698987023873655743955,155.314478021465788515343
0.567500000000000004440892,-0.612970143308820047955976,1.13214455375514910784318,-0.273213501207205444742954,-1.31324471418268291442177e-05,-0.00184693665177734669784193,-0.000472970189765129465919724,-0.0112695597877120901736392,0.00285853393173939648169712,-0.0531363283717351253532257,-0.998519313268322439292035,0.174209110996583510511115,0.104075393392829285144074,9.83550917257925583214728,0.00156408581806922932638804,0.015295492351191597446558,-0.00650183474196167846687056,0.136911068801057300703405,-2.28290667971975302918963,1.17060016255895593673131,1136.73267448540900659282,1136.92710676540423264669,1140.73381844054802058963,1139.26458759715501400933,-64.7425341770030513544043,32.3849265837452264804597,501.420117829320133751025,-426.637437871113036180759,155.312832671347734958545
0.570000000000000062172489,-0.528193188428069615447669,1.19287611118574776725154,-0.337576029179616432518429,-0.00293299450738918358536078,0.00218923249606668571601298,-0.00104331614220511820212423,-0.0112716489442689811462106,0.00284262747261836016057779,-0.0531205236596046792563186,-0.998520184961181112015538,0.172576000996647882512747,0.103092014974271423133345,9.83826638169251665999582,0.00168012389641029771629455,0.0152110919471303059763434,-0.00633454956087331488845393,0.136912511360319705255861,-2.28287272073178515441327,1.17059137372564503465355,1136.38155679574765599682,1136.54894081317911513906,1142.07451671290527883684,1138.29650151751548037282,-220.440212718994899887548,-300.134348398432564408722,542.254381849670153314946,-344.426265461697482805903,155.311486512767345402608
0.572500000000000008881784,-0.305060745012459944014438,1.20022122367008465815275,-0.346497544131569301661955,-0.00546127169068989608280429,0.00633003859806381685704224,-0.00189701883061129273483347,-0.0112789383660583612117856,0.00283048941753325086420623,-0.0531022630819095453613699,-0.998521115935910974492629,0.170591709949357683839821,0.10216112089745121860318,9.84063402731260339351138,0.00179146752018390824703897,0.0151303669250867356410595,-0.00616076664522144379354529,0.136912679373501156021575,-2.28283830857729519436816,1.17058207710265205214739,1135.63047342181403109862,1135.42643502341206840356,1143.44509034979637362994,1137.54245626984652517422,-356.374173300400457264914,-535.98260498806621399126,494.390808866728093562415,-247.904605923622284535668,155.3101642242064031052
0.575000000000000066613381,0.00843356119473752906257058,1.16076464986454896965995,-0.299614796285389173302605,-0.00703326340289539640032723,0.00955010640532983658135269,-0.0029710301576192309734592,-0.0112886934314723567929217,0.00281655164773473134023907,-0.0530799339582625068212351,-0.998522238183000787614674,0.168157117605616635014343,0.101249983116044967035307,9.84259164203509229196243,0.0018988871010885400268664,0.0150522861811081803268264,-0.00598381292743154196561717,0.136912036510492080010337,-2.28280406678286906796416,1.1705714410838261585468,1134.59968592924565200519,1133.86902778823878179537,1144.54647075723892157839,1137.05697848789736781328,-453.479842657497613345186,-671.614706207219001043995,312.528132851229827338102,-127.56012697891480911494,155.3088604544849715694
0.577500000000000013322676,0.381039565710584504643066,1.07439924410833365087115,-0.175992695974237167710896,-0.00673821676496653802768133,0.0117726889363099739005403,-0.00413578206411249239826677,-0.0112977456784354324953457,0.00279449918972721677787319,-0.0530563190530258591004475,-0.998523458587349033166447,0.165161231848535289268298,0.100321336911326303154013,9.84413330553296361813409,0.00200311512481245916975081,0.0149751752923988762367102,-0.00580628350648574372699917,0.136910745719182713742157,-2.28277073731613500129356,1.17055923370692993579212,1133.36307420852654104237,1132.06836149237597055617,1145.00773101405252418772,1136.90465563495195056021,-545.882899358059830774437,-777.516005503201313331374,0.770091952335877127922004,-8.79727918618319293386776,155.307577822915789056424
0.579999999999999960031971,0.819933612892254304327366,0.927540136390159641877062,0.064085587444356828523695,-0.00450702150022949145358186,0.0143378383706272288788952,-0.00553300597327213358744835,-0.0113071952360417754546162,0.00276070171290606573150095,-0.0530378225704920547300958,-0.998524436989629227134913,0.161553760800443868550502,0.0994232003554919308019322,9.84526483473265123791407,0.00210460092274034928083726,0.0148966376483799182312007,-0.00563047168845161316586001,0.136908275346360075452878,-2.28273748172747614759714,1.17054568904559763709017,1131.87027143245541083161,1129.98144776072285822011,1144.55032121700060088187,1137.01299209196645279007,-512.377659006096564553445,-711.808441958054800124955,-348.869312409533165464381,66.223328924024770003598,155.306062013425332679617
0.582500000000000017763568,1.12463386665433695554839,0.77236092761626584657364,0.331419254948055741483159,-0.00160196581424038400100207,0.016545359250789717919794,-0.00647701158681618285178905,-0.0113195142065863237068601,0.00272187819672347654231803,-0.0530319561006006578995908,-0.998524725755876585431281,0.157493043298957025033502,0.0986248015314049319979262,9.84600295119129498289112,0.00220317229910268119405514,0.0148136016974723446620876,-0.00545858806777209902560966,0.136904942954630071128008,-2.2827024956499490926376,1.17053140612586892288505,1130.80118591349605594587,1128.50931928258569314494,1143.26338445200485693931,1137.23577227957207469444,-352.645081353966475035122,-504.007143076205011311686,-684.234664740142193295469,90.7305729812832453262672,155.304817831155986596059
0.584999999999999964472863,1.31030634585388217061563,0.586132087151366110155948,0.637651746749319903173614,0.00222055017615359513716289,0.0183796066566921517670963,-0.00633434768959942502697391,-0.0113341093180404813012263,0.00268332151463276892197629,-0.0530433352134512328679428,-0.998524067971666706711176,0.153110021520738381894944,0.0979421278602320422024263,9.84637822708719667730293,0.00229789661639869273110359,0.0147225630323017334794011,-0.00529282815870986845380175,0.13690211443805491708936,-2.28266402322806394309396,1.17051720825847827001098,1130.10704602568557675113,1127.46141204534183088981,1141.12914789329988707323,1137.46664495687286944303,-190.603144673423059884954,-354.650694228893939907721,-1077.94213460770060919458,84.2769965152455569068479,155.303593205029443424792
0.58750000000000002220446,1.34718032266619069936553,0.334188330195413718648467,0.989017235955423235083117,0.00791198853633825679998459,0.0199121733089953033279951,-0.00398386076329414976632259,-0.0113485253168561471548426,0.00264916444138463876706302,-0.0530715889573414589808209,-0.998522497414810916716021,0.148515133721561165547342,0.0973608658423856521135775,9.84643351050000070756596,0.00238699516797790398450752,0.0146199920443516873103107,-0.00513552717780628182470126,0.136900688555787464206759,-2.28262238582574283896065,1.17050438775390763801454,1129.84817019012893979379,1126.7360658114412217401,1137.87367377896634934586,1137.65715726214830283425,4.63455582671485455392713,-185.763607496073575475748,-1252.67980202975081738259,52.1555427807470053380712,155.302146588654522929573
0.589999999999999968913755,1.20489104982725803161259,0.108768224040083794079692,1.21667041173214784954837,0.0133068762363803810150342,0.020639947808867426665147,-0.000253975264868404153328907,-0.0113603668048035417320607,0.00261919579185201792728699,-0.0531121668873619293127497,-0.998520281897034012175141,0.14373840588959230224475,0.0968761297970447965433038,9.84622236061207090074276,0.00246804429497510333796351,0.0145028175701717755574638,-0.00498916821837601040523502,0.136900756264580258925179,-2.28257853998695603436886,1.17049378625189404168339,1130.1302188048191510461,1126.53259400786146215978,1134.86574888315112730197,1137.72742267077660471841,198.236719261467271735455,-20.3373731411829616888554,-1189.78906067618368069816,17.7123799127457317581502,155.30096078705412310228
0.592500000000000026645353,0.893780031341806058264865,-0.119927403920776304291351,1.32469944465586397797097,0.0181402241633048001701045,0.0208387226479005323309668,0.0046239351534752056588351,-0.01137005720091055493981,0.00259355057424679466895889,-0.0531624257475478839696237,-0.998517556806621464637885,0.138825737263952420086355,0.0965394469036941760275994,9.84580575700885951562213,0.00253832757713619641681824,0.0143688104039508893206012,-0.00485628520070530578928159,0.136902245665517424688673,-2.28253328739074534681208,1.17048527723172335335278,1130.83935378643627700512,1126.63437894573530684283,1131.92472847558542525803,1137.74571916171203156409,365.187822521692964983231,83.4630372983155410793188,-1195.73368904466292406141,14.7082989751652224441614,155.299796767008700726365
0.594999999999999973354647,0.386627720692919341072269,-0.378939092618158168690456,1.28682098726557070378362,0.0212535090809554474966525,0.020423306486103319501435,0.0107286810354635317454886,-0.011379669675616892535186,0.00257638896778876512819179,-0.0532211989383171227285807,-0.998514351069160310814254,0.133910100655390745805207,0.0964298572888167004890647,9.84525027587970136266904,0.00259502407056888062877875,0.0142169115187572164815677,-0.00473919155539725793502281,0.136905782711196605250237,-2.28248743894677774690649,1.17047786652919860728161,1131.95615791742761757632,1126.94990919435304022045,1128.88708043792780699732,1137.80096416565243089281,411.518720169169341716042,127.777577314827681220777,-981.438420317544114368502,40.536754081904255997415,155.29842766336886938916
0.597500000000000031086245,-0.0788736386373000003535694,-0.564432089928619595831094,1.12105210316330694553244,0.0209129649378263123005173,0.0194160050604610147362283,0.0150418895260164605515163,-0.0113871032669422434652207,0.00257060776006779248548106,-0.0532856501122432324457634,-0.998510833398860708776112,0.129100842597672960110344,0.0965427056528724014672349,9.84462875286909699923399,0.00263542698425173497686624,0.0140474849492788021049217,-0.00463959618014511947919898,0.136910797856182875342768,-2.28244191129953222230142,1.17047182671456817537603,1132.89694738728212541901,1127.27326683230944581737,1127.01753637399770013872,1137.94840293212155302172,329.863165517326422104816,128.577921988971752398356,-569.559094775604080496123,92.317530052196076439941,155.297312399329285881322
0.59999999999999997779554,-0.504747388733976953822946,-0.694638598381894567523887,0.850627359013813588717312,0.0182756124321100978102894,0.0175353033414075050455683,0.0178157204445570857553882,-0.0113945493968555609104465,0.00257575915803966680461823,-0.0533503216638440205810134,-0.998507271193767920181017,0.124450973978942600051134,0.0969556719202808725555087,9.84401509242830030643745,0.00265717328222563747841534,0.0138622977252811589027326,-0.00455868438853807272231888,0.136916759838927121206709,-2.28239759341014103455336,1.17046671630339083058914,1133.60547374501425110793,1127.59279880429789955087,1126.03928496404978432111,1138.26255181591341170133,218.064552106897991734513,126.542337857608686135791,-230.599777577026344488331,155.454085136443467263234,155.296227652970628696494
0.602500000000000035527137,-0.850789769058389766520634,-0.762518877320225274552001,0.531624646013446278125514,0.0147770822609940098019132,0.0148559987002125828275956,0.019257912582195137879415,-0.0114000003098496741071877,0.00258796767654151035897847,-0.0534080029224544006183351,-0.998504082049765706585731,0.119945867828771507435093,0.097659182476002470707499,9.84348448942052733912078,0.00265844167291621547369318,0.0136645305222322949872948,-0.00449673988866238459605196,0.13692328514455445742648,-2.28235493613633533271923,1.17046213716944702554201,1133.98727014781661637244,1127.90597852159748981649,1125.86453748611256742151,1138.72567335780377106857,59.0871031370169887964039,130.674945874079526220157,116.797338560308972432722,215.273994111794110040137,155.295171748060255367818
0.604999999999999982236432,-1.07246590382211381964339,-0.745401294087126853327163,0.201768617426476226661691,0.0110667630136740777896387,0.0114438563676385867545759,0.0193239973469394032967728,-0.0114015955113176657709229,0.00260376153596253998370735,-0.0534545148838478298425336,-0.998501521136929581778929,0.115582554155329655931617,0.0986353256321460258870815,9.84310877559688890414691,0.0026381473396520313014213,0.0134585531583972187880116,-0.0044531926657073415964927,0.136930542426951518120148,-2.28231443143683021546053,1.17045813577921276049665,1133.9009092606993363006,1128.24617353366829775041,1126.62327165685132968065,1139.33892178647238324629,-142.105796576288298638246,166.157455358688679325496,513.000643247550669912016,289.638371682985678035038,155.294155667054042169184
0.607500000000000039968029,-1.19002140545506995827907,-0.639580938745579974380462,-0.155768267466304621837736,0.00676516231544892297083971,0.00755662277280472714779957,0.0182574013095905436643296,-0.0113997796997454513279191,0.00262013653303569708438725,-0.0534873502993574584385428,-0.998499729308948147377123,0.111371701017064797523126,0.0998985357572407806081571,9.84295298073069702127214,0.00259596829090179628818369,0.0132496748300623048283375,-0.00442661146598953298553214,0.136938076003174397099471,-2.2822771598640025914051,1.17045413945331722160859,1133.27674116493517431081,1128.73676579839093392366,1128.42954070235032304481,1140.17386521621870087984,-298.668491755688307875971,196.299811071867054579343,767.931945709232650187914,308.785845770807725330087,155.292989910069309189566
0.609999999999999986677324,-1.17673241594681421418045,-0.512397529107609384091404,-0.396859490085733013220448,0.00347277601212389597229446,0.00549453974731856434332578,0.0168312534362331095438847,-0.0113919371592388456171374,0.00263475138578719587229005,-0.0535006669863904091299922,-0.998499058699899411095657,0.107333655179450204730784,0.101388833035952752315012,9.84307461951474138572848,0.00253224265440028014489959,0.0130438707887604570662132,-0.00441453552414071848791766,0.136945131546148846091171,-2.2822437005479465632618,1.17044911787082495102652,1132.40756680192089334014,1129.22767258902763387596,1130.46293138539749634219,1140.88285101532642329403,-389.572862215436202859564,206.202531820599517686787,858.678254228060836794612,267.624835172909797620378,155.292069160281215545183
0.612500000000000044408921,-1.07379044303460480236367,-0.401818988588298564579304,-0.563713780725934032744817,0.000659861908545620332380843,0.00520087664795664591371738,0.0152709945580487872762721,-0.0113801553991233206364342,0.00265074498935540100660879,-0.0534962563704021107358066,-0.998499380200747355118551,0.103601169642896034917001,0.103118638115782229602857,9.84351832733704767974814,0.0024481605920661066513877,0.0128472113059470913198901,-0.00441377322147174910166312,0.136951544192182111947531,-2.28221357640135114053237,1.17044283723399367147522,1131.32887685385799159121,1129.76777845749393236474,1132.72293197349063120782,1141.51198939208325100481,-483.010188989237121859333,226.75389346941281587533,970.906742934447720472235,234.693962370965692798563,155.291208378780510201977
0.614999999999999991118216,-0.882779868206445050837772,-0.35311915547200445342213,-0.673071608085629713436049,-0.00211702849590504876137187,0.00654091583205020435376476,0.0129583743426711119062222,-0.011368180842311484748941,0.00266841254262790159371144,-0.0534797587825467032884852,-0.998500347213294392467731,0.100250668722605990046404,0.105122326767551454995697,9.84431542615853594213604,0.00234562082315236796609126,0.0126654573608656079858337,-0.00442044946573308655118906,0.136957968687581116418173,-2.28218579835568036173754,1.17043454768793830922391,1129.99251585697470545711,1130.36144205637469895009,1135.31746510006973949203,1142.05632082718125275278,-469.081431722269883266563,186.109303687226031343016,885.389318944952833589923,147.561696709135361516019,155.290252412790238167872
0.617500000000000048849813,-0.694400800387356298415398,-0.410086319431563761650494,-0.690601852657353076914148,-0.00381672282324529424032966,0.00819580289670362310827656,0.0105093475638338065131228,-0.0113555401225092552491835,0.00268661348354134110402724,-0.0534518794774923519663723,-0.998501929858424563946073,0.0973212037969643090074001,0.107340367203840297838369,9.84548422739080741905582,0.00222690628412751607037579,0.0125037874361067936207492,-0.0044300909408591729321536,0.13696263674906816731891,-2.2821604769208616581011,1.17042517839324977657611,1128.98346969524664018536,1130.69832497593006337411,1137.14987856821539935481,1142.24979787562892852293,-353.558031935198982864677,75.1272350707949243542316,629.685978007409516976622,7.51308996022998343278232,155.289524800024423711875
0.619999999999999995559108,-0.505804087724971873640811,-0.562946775181616176908506,-0.644643998686437180722919,-0.00458076273318511369148087,0.00882902705945516098895443,0.00813060087275636021730829,-0.011343814408193219483989,0.0027007507387661103780141,-0.053417071436909199788623,-0.998503883974031447579023,0.0947812717262871001766555,0.109746539373710289000385,9.84702670175438043997929,0.00209475829599010737389064,0.0123663966379568002196265,-0.0044380018606227774821682,0.136964256804247036525268,-2.28213767636589448528639,1.17041503270229307887007,1128.22472569729870883748,1130.73707823172867392714,1138.46589499010678991908,1142.09388627698240270547,-253.313092995904071358382,-71.6512829026668782717024,451.893262337898306668649,-158.08790717592259511548,155.288873839281848177052
0.622500000000000053290705,-0.304950632479540517660865,-0.805421735908813940518769,-0.54768549303024072205659,-0.00470598722385508205778848,0.00730831476249601229289166,0.00629100139525388263317396,-0.0113361479264107063713585,0.00270725420702203284709086,-0.0533808053209154087515032,-0.998505892078811130296856,0.0926151126921931910906949,0.112336095741156327676435,9.84892785553017091615402,0.00195192585213672443501809,0.012256236060234416626602,-0.00443940957216537764040698,0.136963243075491458711213,-2.28211701370266961674815,1.17040408528291917100717,1127.7169042302671186917,1130.34006856141672869853,1139.40934487990489287768,1141.45935833974931483681,-112.525360683821318730224,-220.364794461420189009004,255.624220796926010734751,-306.053739948128793457727,155.288186078989866700795
0.625,-0.166796485835398605734881,-1.00378639956466630955845,-0.461261075445503376801781,-0.00464189757055526869278239,0.00441973701253976346964292,0.00564756877429493323733434,-0.0113362013570972464809872,0.00271260514116702759757072,-0.0533459144397349233068795,-0.998507740877604521578803,0.0909978509667846990893736,0.115098617216064347257287,9.85115593914628817628909,0.00180061070086306876728011,0.0121747851823881484550904,-0.00442958399710302510449145,0.136961350321278041430872,-2.28209771679429707091913,1.17039150080502052375664,1127.66209889387960174645,1129.63525425942157198733,1139.74401609409142110962,1140.5636175772417573171,47.4202854642953326447241,-342.433234402505775051395,77.422472729540388058922,-423.426788385767906675028,155.287693576813722984298
0.627500000000000057731597,-0.0559167127037212136064781,-1.13881731155204812822035,-0.399823262551180613755264,-0.00472508742106257043774642,0.000619131914317938938409347,0.00553470228826913931280407,-0.011343017963379850229777,0.0027179847534682145815399,-0.053315623171263933077757,-0.998509260735725989732714,0.0899879902479256282843423,0.117936398391051661116435,9.85366564545060619195738,0.00164245348824867899890922,0.0121218922864886093082593,-0.00440385000461513027858462,0.136960441847743252807845,-2.28207785870315804643838,1.17037739177456967532009,1127.95400565758859556809,1128.62790238940419840219,1139.79645724355259517324,1139.34222439782047331391,157.586285867318878217702,-428.775364937200322401623,8.30005274988251784407112,-526.024552134958412352717,155.287287310327428713208
0.630000000000000004440892,0.0400690880852951833435149,-1.18894053333538951555681,-0.37312946468819929712879,-0.00513170659027152500225588,-0.00362260630409632364626327,0.00560571329821539770382754,-0.0113553537543471944060158,0.00272385515288338202199991,-0.0532926636160631767014095,-0.998510316820580667851459,0.0896213503220088941736421,0.120748068333298708143531,9.85639760189663505229873,0.00147853575617596538251119,0.0120957146632142444053759,-0.00435794913381713604205725,0.136962513993958812097418,-2.28205590900590404856985,1.17036185005969928241143,1128.45003032321619684808,1127.4913774347355683858,1139.78551635784083373437,1137.9334948165669629816,216.934930799516024535478,-447.881077186866207284766,17.4792389456342647235942,-578.273230424746884636988,155.28695385603310796796
0.632500000000000062172489,0.12572232653975395910706,-1.1181630885484106219252,-0.390884364621759627933528,-0.00578753882575998041676302,-0.00808160057476133703024956,0.00552068417043901325802491,-0.0113707623352896167873149,0.00273128618865814539948267,-0.0532804269865952001561382,-0.998510755132410166012846,0.0899358110484718142885185,0.12341236649003603509378,9.85928055325161700750414,0.00130975907485442731072178,0.0120929029638346015318451,-0.00428825705687633455115426,0.136967194580051049301872,-2.28203088473833570759552,1.17034570700724849245944,1129.03868031158617668552,1126.38849700346986537625,1139.88385343828076656791,1136.45085824569673604856,234.806838779650007609234,-426.347487311249608410435,97.591694085940531522283,-621.432311024727255244215,155.286709052505671024846
0.635000000000000008881784,0.213713380758184023910928,-0.900785648317293574649511,-0.449411358289729445658622,-0.00598018821420390894738617,-0.0127660352789054007405234,0.00468701698974739559833136,-0.0113839673433831847781939,0.00273568546060300610972549,-0.0532811777064155014937974,-0.998510531257030375940076,0.090845102443974104500235,0.125765434225722783079249,9.86223458023889065771073,0.00113734197535214328136921,0.0121089663256302663280062,-0.00419192109335970661265769,0.13697254198420183435303,-2.28200255811289087759519,1.17032921468417261401385,1129.62406451711444788089,1125.35963999817931835423,1140.27347482827053681831,1134.8263332614433238632,162.328119798075789503855,-294.765607303133663208428,190.368939387962939235877,-533.981119976896934531396,155.286517952419103494321
0.637500000000000066613381,0.262414500939015749025884,-0.637178360734716009439182,-0.510999217784826043065038,-0.00509625800882132669322733,-0.0152830404783244559047128,0.00339866637561677146714412,-0.0113905650898639219242847,0.00273400813408829343117978,-0.0532916146569619442185939,-0.998509885951065934150961,0.0922829683771018149940346,0.127668379142636428946744,9.86517229518497096307783,0.000963003666220371657910593,0.0121387009762226640019467,-0.00406708522067437613922714,0.136977113609187739484696,-2.28197114115220278662832,1.17031254143239782372632,1129.85032091057655634359,1124.91466896695419563912,1140.83569813522058211674,1133.78095264581224910216,5.6188327260315364952703,-63.345327220531487455446,255.426549713410850017681,-317.260428182316616130265,155.286443721917891025441
0.640000000000000013322676,0.268691955778764479667586,-0.339038680555870330923796,-0.562996183510079517553493,-0.00345338161673087833125617,-0.0160005230619694807647768,0.00180294363740933971315683,-0.011390371033134026601541,0.0027283255701857894032214,-0.0533066051355259098998296,-0.9985090973867444263945,0.0942768743464919567465188,0.12907134845727424865558,9.8680004321048571114261,0.00078915313840685326427643,0.0121766245525085671508325,-0.00391306014802982136263632,0.136980435116847959475805,-2.28193729346596230200817,1.17029591332458582364495,1129.65215868074460559001,1125.04291336207666063274,1141.55060757683759220527,1133.24003112053173936147,-203.565621421016459180464,203.604350292066357042131,313.325481201270406472759,-93.1798568945870897550776,155.286456318743773863389
0.642499999999999960031971,0.221422614956363839056053,-0.00291777420859283542764473,-0.592592501460897036480446,-0.00151842975820444753623506,-0.0152152195053242983435737,-0.000258069486411992374957913,-0.0113900480856621005160134,0.00273113738176335597157562,-0.0533273649691551193674499,-0.998507991394250171701685,0.0970565077284206989549631,0.130061010723118958276601,9.87062167754000796549008,0.000619035356373955287026534,0.0122173751839383705475317,-0.00373045115719689880651178,0.136982856305835482002564,-2.28190166221554990855225,1.17027930210854336223747,1128.83249280347149579029,1125.93269071841450568172,1142.40232554122690089571,1133.31505336133932360099,-395.108136437920279604441,445.155435412152257868001,286.366547501984086920856,155.073315830440918716704,155.286569178372161559309
0.645000000000000017763568,0.146420508196604876038904,0.224724730701520242215352,-0.578623231072047272682823,-0.000408637222410527655314799,-0.0138405087855443548888745,-0.00212028745935390191754144,-0.0113935727657240217641776,0.00274889283823918136734354,-0.0533526474428275832018187,-0.998506570267488124947874,0.100716954794546564855295,0.13069023965407913778769,9.87294230665836813898295,0.000456596683522797963054179,0.012256130835790730523871,-0.00352098189428039090934086,0.13698437854943212865777,-2.28186518463154630609324,1.17026261732088010525388,1127.67661799855500248668,1127.2686905391374239116,1142.98244031434751377674,1134.01539769968394466559,-536.024863354850367613835,636.231352834146832719853,188.224881598671174742776,400.56601383648705905216,155.286742102460408432307
0.647499999999999964472863,0.0605224321355172581449189,0.375468776934250403343185,-0.517819305004477148379749,-0.000156540789584423060791518,-0.0121837175528299937465881,-0.00413779683906337868160019,-0.0114045219750655447282783,0.00277600866680618963908134,-0.0533774008512676173543454,-0.998505073578195512240541,0.105102472440707764289591,0.131029249602169023392051,9.87487498643644734386271,0.000306396136623692948337816,0.0122887966327166042040941,-0.00328763310042365754573557,0.136982887329434394052541,-2.28182825069759198655106,1.17024677935125653860382,1126.15236848669724167848,1129.11384748258524268749,1143.34344994922025762207,1135.31788343052176060155,-637.020628029267186320794,795.255171323059812493739,107.88182902383586281303,595.904179339367487955315,155.286993043693371419067
0.65000000000000002220446,-0.0102096020873341797319256,0.458725452698714841748284,-0.420372077469556737483458,-0.000770347096938936589348434,-0.0104763728636842468056045,-0.00608893882801482110717073,-0.0114249550203102019640955,0.00280824469016910122781683,-0.05340272923136980820491,-0.998503425001553202022819,0.110071110066030319885044,0.131128603460886422604759,9.87634195703385842080024,0.000173498349214989158696351,0.01231214123298153204078,-0.00303461648803512919897463,0.136976912626262881111927,-2.28179105778143354044118,1.17023380449057134988777,1124.49151485840866371291,1131.24496639575272638467,1143.52184945946669358818,1136.99491859638078494754,-643.217069668843919316714,879.133713799773545360949,40.0843271021130576059477,714.221711414801802675356,155.287305229945189921636
0.652499999999999968913755,-0.0385599085067306057705849,0.468648915057814530182867,-0.292954734991360266072036,-0.00217072657771865459158667,-0.00877680962216546151077878,-0.0074515161504078320647837,-0.0114510106652874702609646,0.00284369786258534783252028,-0.0534276061463687182429005,-0.998501725644314830354631,0.115509000357059174457497,0.130929995513758362646328,9.87727946536904255481204,6.27835907893484440438214e-05,0.0123239260778141186680745,-0.00276705665289245098317772,0.136966949509568031162488,-2.28175478518145746775758,1.17022494616000605205386,1122.93628313835301923973,1133.50951605158411439334,1143.54387158473082308774,1138.88899198759577302553,-587.090459176897070392442,966.456443705918900377583,-2.69203405423467989621145,810.11651850894782000978,155.28768650757268687812
0.655000000000000026645353,-0.0129902019136343832572678,0.41866373290261027495518,-0.136365973790483624439318,-0.00381712771786427108519635,-0.00682562229684385932820812,-0.00779285319841333846968556,-0.0114756094810019287216774,0.00287960509041361749013599,-0.0534467836990803954466678,-0.998500344635161241058086,0.121271182016431930406064,0.130321576010848205751103,9.87763894287192378840246,-2.16623519898616795397242e-05,0.0123228748647753443695718,-0.0024906371043915747839903,0.136954134907760233241802,-2.28172079350085343918408,1.17021992326786383742387,1121.55606256252417551877,1136.07724861428232543403,1143.5083892891955201776,1141.0455011889255274582,-381.554651825626592653862,870.93608305776717770641,-9.09974563819559101318646,716.942782374143689594348,155.288217274637219134092
0.657499999999999973354647,0.0470608879526308379603883,0.350284741373999064517619,-0.0274604359031314256001099,-0.00458060509813262937278688,-0.00582470818556142782423946,-0.00690345106887123218658564,-0.0114926986983891008670122,0.00290947114983186984685237,-0.0534587553918539903907714,-0.998499450773075558629444,0.127132894222252712523868,0.129222986173838760848298,9.87738701762919468762902,-7.68308934115631623866516e-05,0.0123084804013544636680511,-0.00221121918113817384973774,0.136940580316240678726558,-2.2816885558053083826735,1.17021744963002261030738,1121.02850987922488457116,1137.86419646687295426091,1143.49837285653984508826,1142.47370589946649488411,-54.0614246234781106181799,591.116386481916720185836,4.45513411582396301469089,442.623677056826238640497,155.288715464751732042714
0.660000000000000031086245,0.116714799914386921364517,0.289026622871961291760812,0.0407221273401058292407129,-0.00438240689385108184161766,-0.00598290407627603566115271,-0.00554070813043132381903177,-0.0115009219659140196623248,0.00293200687749150656208341,-0.0534654646277936129727948,-0.998498957948877774448704,0.132972161972523594819506,0.127646573123806977845263,9.87650397258000189992799,-0.000101109620381563825985277,0.0122807549054342272226714,-0.00193452442518755700351374,0.136927764593843898088821,-2.28165732699092327351309,1.17021690727750615756975,1121.28575543940678471699,1139.03283054669191187713,1143.53066495977464001044,1143.25861957420966064092,288.903702822790080517734,329.01282304524073651919,10.5879052355703517918073,169.101829985674925183048,155.289265171768789741691
0.66249999999999997779554,0.167603816646084563535268,0.254989947018068818795911,0.0795435461288646894484344,-0.00290669640172008759623767,-0.00715452489939418651010428,-0.00474383681638172217953642,-0.0114974887422906006662071,0.00294830908113423830266275,-0.0534640372165360519551847,-0.99849904709819814474514,0.138708828967795461117873,0.12557832840409596797393,9.87498639845910197720968,-9.44848354273740610341156e-05,0.012240060415971540722091,-0.00166572361805953999235042,0.136915880076869861392552,-2.28162689984074207316667,1.17021806952435691862036,1122.47302839333883639483,1139.50926058209915936459,1143.55131238271769689163,1143.31921504939487022057,553.897659947869669849752,8.31903149105527717210862,-13.0501141893091574530672,-116.571686507677341637645,155.289976402822190948427
0.665000000000000035527137,0.157070803117340257459844,0.264315702920509931761472,0.0920303916841363339740312,-0.00100854461250658310363104,-0.00802680774894741488889593,-0.00500073701919991845527003,-0.0114842580086333169442359,0.0029604221431560997015997,-0.0534531423252658927092185,-0.998499760684956383371969,0.144286479065453054904111,0.123097746079494280158073,9.87284424206324651152045,-5.82586772670363342119075e-05,0.0121869521348192209192485,-0.00140940079212762922090951,0.136905617758276643147752,-2.28159666275393790968451,1.17022097130441915524557,1124.05524373914613533998,1139.07442570414718829852,1143.465414388828094161,1142.67576114167127343535,702.418344074384890518559,-334.050333765617040171492,-76.234499178281041054106,-360.669953254409506371303,155.290605964004527095312
0.667499999999999982236432,0.081186286769356463821623,0.292418503919340433405694,0.103384019489814446557396,0.000858130668153906902076433,-0.00751840295294968919553869,-0.0055081550897434434013733,-0.0114683765270374871808601,0.00297291843654698363305644,-0.0534370083307979110154307,-0.998500774954139025396671,0.149707469659753400481605,0.120386945028905151255927,9.87009934941964139909487,5.24619414472456785744235e-06,0.0121221122362843124198317,-0.00116940990305194046118553,0.136897852314796952821752,-2.28156644557168641895828,1.17022467931164531051991,1125.9851201137107636896,1137.83900891327107274265,1143.17013988682629133109,1141.51586528312282098341,856.103685302422604763706,-683.087629395458293402044,-190.205385573426440259936,-558.541001787716140825069,155.291266140148763952311
0.670000000000000039968029,-0.0648666075926436214160731,0.307233779438754628365871,0.125834178455500128590572,0.00230872166056750836860001,-0.00523111096043529875260214,-0.00576138807448981198761073,-0.0114552122365280378141206,0.00298833100297373529391498,-0.0534208978663421318877624,-0.998501738261382554284751,0.15493681170622874976317,0.117595189639672526027425,9.86678756244058874358416,9.28850717460822901741513e-05,0.0120463360593649516927517,-0.000948630924726874937349952,0.136892744044356834409726,-2.28153634195579613219707,1.17022765073402967850313,1128.33576216565825234284,1135.65898755716989398934,1142.51438746096096110705,1139.88305613273269045749,816.883301837241788234678,-868.376151819756273653184,-287.87102347177983574511,-585.855577245137624231575,155.292084452065779487384
0.672499999999999986677324,-0.197798679636228463829539,0.281628368824499097922143,0.15068920273067590298588,0.00224775786949704464365296,-0.00289962828974144526048007,-0.00559086285681374001166333,-0.0114455979526502851090219,0.00300203528562764361889426,-0.0534069316696970802782474,-0.99850254013769612626561,0.159799750469156898180501,0.114789581997972761628901,9.86295905442804432539106,0.000200956611815499431705073,0.0119604997099875647037504,-0.000748993689312330295122788,0.136890582593895276941609,-2.28150628293500679077965,1.17022923903091613517802,1130.06953662289697604137,1133.49712815417228739534,1141.7307847694673910155,1138.58658739689713002008,600.529188243035036975925,-874.808275421309303965245,-347.202355693297874950076,-458.209596096002826470794,155.292781296483326514135
0.675000000000000044408921,-0.289349684901954395943591,0.213929716726116631031474,0.17517109865219604447617,0.000382037422846907717775139,-0.00133243815834852182000692,-0.00494476981244595936715314,-0.0114344293718524302183592,0.00300490933019590148941869,-0.0533937425552898428660065,-0.998503338598996870167923,0.164034545171510837135997,0.11192432731873871998296,9.85867680233345211604501,0.000325574547133880109854587,0.011865512884665431123099,-0.000571664464303772343854726,0.136891251250530754379753,-2.2814770561253148173364,1.17022991248732233238172,1131.33840810687343036989,1131.28494618006334349047,1140.77837568249447031121,1137.59200815225267433561,412.808850799001106679498,-851.125611319093081874598,-391.838581777483000223583,-332.42472277602217900494,155.293485815880387690413
0.677499999999999991118216,-0.312362016343406156959617,0.126128857626505497258051,0.194576789938704225457755,-0.00244515836611732461855495,-0.000713138096533227905382546,-0.00399410504701718307996039,-0.0114145008435660496454167,0.00298863684852536696731629,-0.0533780287851645801611156,-0.998504417788754761176051,0.167402565561697469487257,0.108910357278074548803559,9.85401224629897498630271,0.000463079364337873810794632,0.0117622153156913232530112,-0.000417367844401555815499194,0.136893739080063636670559,-2.28144932632652164272713,1.17023072161401398005864,1132.13358087689198328007,1129.24150009757681800693,1139.77159186057997430908,1136.92446378301701770397,207.18106959225207219788,-738.669068107036991932546,-393.12486624294217563147,-193.94826009179251968817,155.29419119737698906647
0.680000000000000048849813,-0.236598957307899482316316,0.0410389186020134050236763,0.207832927897047770038341,-0.00471955185861971764083034,-0.00101736376588408691454268,-0.00314930575151836818215134,-0.0113853839188732229581458,0.00295167129962841268825402,-0.0533550462482445669865072,-0.998506039287060942477581,0.169815781654739261785636,0.105783479788638112850663,9.8490387561010859229782,0.000610331362574908771294335,0.0116512085334381683410232,-0.000286719294027837291911898,0.136896519394369226008124,-2.28142259929084856295844,1.17023250719247773332654,1132.37431345483469158353,1127.59160083952815512021,1138.81275135127975772775,1136.62226685179371088452,10.2829950972591088742547,-608.969955978363373105822,-382.314910910144703848346,-74.8488401529356650598857,155.294891384322312433142
0.682499999999999995559108,-0.046533995347467126124652,-0.0268931429155050971679941,0.224997216640229841244647,-0.00589973899037692876140548,-0.00197121523127838371713949,-0.00249491912935255640004772,-0.0113505068780912210524292,0.0028965450399868475361842,-0.0533245158950544501097468,-0.998508171021959212154684,0.171281611011703249758398,0.102648407540830766127016,9.84383127636606936050612,0.000764947258160465965760866,0.011532713989102064133796,-0.000180145510289665168601747,0.136898050348970151679495,-2.28139581149399983672765,1.17023520533608849092388,1132.18499585237827886885,1126.19665031768499829923,1137.86001730602924908453,1136.5502195822523390234,-112.236697844082200958837,-412.808929969969199191837,-297.245864540309128187801,0.21006873535043249501264,155.295718093429485406887
0.685000000000000053290705,0.167764929655528000074227,-0.0415585848011453054540176,0.249219286469744144563165,-0.00586814127222943376915865,-0.00278098150150200623328955,-0.00208704910608003375502295,-0.0113170600058942836391163,0.00283025525705285453323401,-0.0532912456861964270449228,-0.998510455346255043629355,0.171910227947691673922037,0.0996758868379426510308861,9.83846453680375887529408,0.000925190256386647803116263,0.0114065533989412496579385,-9.78088014069551978492759e-05,0.136897942098481828487877,-2.28136803397384335667653,1.17023796255772527530326,1131.81312996561428008135,1125.52755618967830741894,1137.32652202857821066573,1136.62331719547046304797,-146.134874003428052446907,-180.929898568729015551071,-140.779831200643343436241,37.6914288729494373342277,155.296390665390703134108
0.6875,0.402536352013687648287998,-0.00947015962143664402628218,0.293234781056447957325872,-0.00492883069535636660074562,-0.00303582383329131615112839,-0.0016495234596624126950648,-0.0112921014207237688925511,0.00276647282901973075655566,-0.0532624751566649970446754,-0.998512389278043754892167,0.171953137507077469248173,0.0970238430634066673086124,9.83301240837609391576279,0.00108965209836977563150062,0.0112722912646983659118449,-3.94951288734262268573585e-05,0.136896451403635016630389,-2.28133869401364108853159,1.17024035116271285517087,1131.45432148236113789608,1125.29200082484135236882,1137.15611815002603179892,1136.73867672661708638771,-111.763556595860691800226,-33.4933159020692698959465,19.4438005576557593201414,49.5444520367982050856881,155.29704065033175197641
0.690000000000000057731597,0.665834139133106295282971,0.0771325876645251595764563,0.376074747261682051924225,-0.00320422662922847413524696,-0.00286929156187073347572536,-0.00117706691226662622275223,-0.0112801046583436426207214,0.002714550772476808249839,-0.0532457363271243849789371,-0.998513498469362548171091,0.171584168483120663717401,0.0948008718834876251690957,9.82754931730385372645742,0.00125693407728534210440752,0.0111294903869751764247109,-4.59634336237135354003014e-06,0.13689433058130731635238,-2.28130786787416006689,1.17024298729775733107772,1131.25431218263497612497,1125.36008961016796092736,1137.42374103136648955115,1136.87103945565445428656,-18.6118387174246713300363,60.4778946064924980419164,172.810705329402338747968,44.6748516564639004400306,155.29778858231514959698
0.692500000000000004440892,0.842141414434690815937756,0.184229085791366958835269,0.471005306497981557356525,-0.00150159676622252792436985,-0.00268778010592061371644701,-0.000789957650551096159964592,-0.0112807910141245436308477,0.00267264913398602282912364,-0.0532462751793015623413829,-0.998513511694512301275495,0.170762322933092847154768,0.093031071505393525544747,9.82215078652511230927757,0.00142539618179558249221051,0.0109779988928278768312019,7.92780316415540235557013e-06,0.136892925795170677938373,-2.28127661526818270587569,1.17024624683378375422649,1131.36126228877401445061,1125.59439029787381514325,1138.0201716766730442032,1136.96205098489940610307,97.5809652424685793903336,108.228326293465116236803,295.08868480716017757004,31.6414459387487738695199,155.298381197436498268871
0.695000000000000062172489,0.94154746428939339875086,0.321107414696451320956783,0.585391713976523009321795,0.00121789277359608165765548,-0.00253937449604824073620679,-0.000203057944349119008208698,-0.0112931145726531140943694,0.00264598124407524042805973,-0.0532696380873334610073222,-0.998512129018774730049302,0.169594743548241333463977,0.0917124574318904095537874,9.81688710009268028500173,0.00159317606560143874491753,0.0108181321254274109139315,-5.23867772932363638324627e-07,0.136893266073305513996772,-2.28124630527500649179728,1.1702496452207291621761,1131.74221700884731944825,1125.90123124163528700592,1138.89918445540229186008,1137.02924668534819829802,204.709635195786006534036,136.105638168373729968152,410.578421502122751007846,24.7064124078860700706173,155.298937715808619941527
0.697500000000000008881784,0.94024425697954150393798,0.506193196512298104750016,0.722919568235588894111743,0.00542465278776653979375677,-0.0020440079204019092305733,0.00109880231964884760714751,-0.0113180614960185898371092,0.00263630151407719592535073,-0.0533155534183263127290253,-0.99850934993648732262983,0.168132599575876423569909,0.0908832032308171666734609,9.81182314646577147243534,0.00175815343651364568849926,0.0106507082947577980808207,-2.8206225186952859468846e-05,0.136894899046531764996715,-2.28121714984955392679922,1.17025212763977171093188,1132.38481046475294533593,1126.27491848871568436152,1140.07306378418365966354,1137.08558304693883656,237.034001608344425449104,133.786984897596880728088,414.70593925496325482527,18.015776708489266155766,155.299559410679762549989
0.700000000000000066613381,0.828569637881292897496621,0.660540572267794945382491,0.813331818548048368633374,0.00866626446816005403805949,-0.00103446905609617077759221,0.00295706256510255447930713,-0.0113543289087101716833272,0.00263888991841805444632518,-0.0533811144375282362051216,-0.998505364853414456582925,0.166308048006061581780557,0.0905389632580179126719599,9.80701938809849593781109,0.00191815739983785442726583,0.0104769392302055952548301,-7.29781427083034720491861e-05,0.136897010116656642209065,-2.28118925875796429991738,1.17025289062397863659726,1132.92738701688904257026,1126.57016616612327197799,1140.97271415167710983951,1137.11932556889064471761,179.707612647734833899449,116.77093230027811898708,304.719919851913516595232,13.1195532055244132862981,155.300036211176575307036
0.702500000000000013322676,0.610001585328525885998374,0.786562055089700118415408,0.845904762167019486085451,0.0111446165691179346207695,0.000694010054390339133773002,0.0057934704628348418498085,-0.0113965248408555274578502,0.00264827751988005490046962,-0.0534580657694606886654043,-0.998500706001135052147788,0.164044312051787433137662,0.0905915003691516729222855,9.80253048969479756635792,0.00207096926315667373072471,0.0102983139631063480567974,-0.000132448804892599120977201,0.136898860744017414337037,-2.28116232576179100988156,1.17025227510818474740972,1133.28334852799162035808,1126.85877315021707545384,1141.5966633834432286676,1137.15118081296645868861,86.0602937310905105050551,118.302982066282098116972,183.38114992130095970424,14.2704337622493167003768,155.300467211913939991064
0.704999999999999960031971,0.320711372281974937958893,0.865203936606603440928609,0.811030671073866948894704,0.0130839443056913456303603,0.00303559467699136137364135,0.0092709840793392932906114,-0.0114300023384570278994765,0.00265440644749011115180459,-0.0535338947740188683677154,-0.998496253200921612958041,0.161174942476323856954679,0.0907710300292317306958267,9.79840710504097245348021,0.0022143175523504018964438,0.0101164912171804143026232,-0.000204064393189451378368693,0.136901464083108159730529,-2.28113665132794318779474,1.17025121951190214097949,1133.35768848554448595678,1127.16168107645466989197,1141.88961990128359502705,1137.19067773770188978233,-57.0029079948198571514695,127.558517177885619275912,26.5595796770412313492216,20.0998455257376740235031,155.300858349332401076026
0.707500000000000017763568,-0.020206768609570373296247,0.860686413446014597639078,0.689020516637155244765722,0.0139468782550479959703171,0.00603518094839770435217075,0.0126773806811161359603402,-0.0114471525022084939099409,0.00265036513434664493249482,-0.0535964237089789838353049,-0.998492785564510598739218,0.157612444752827596250455,0.0909360494278554365443767,9.79468854667495136823163,0.0023459375512992256505862,0.00993317055775106913517725,-0.000285577662407423583934563,0.136903890924335303047599,-2.28111208580254309907787,1.17025102231198796509659,1132.99833398801752082363,1127.49656573610650411865,1141.72946128182843494869,1137.25168004059514714754,-261.194393701498256632476,151.645170152096255833385,-171.517136663760396686484,35.1165580993437913548405,155.301199528126403492934
0.709999999999999964472863,-0.433134526494106331107048,0.739017840742132281484089,0.464870029617785562869869,0.01299593104764815154617,0.00984711982034697404231327,0.0153506252883335650438745,-0.0114478608192289908751516,0.00263470425376081214194346,-0.0536399332707768392025649,-0.998490643927182008887655,0.153394077682480534097209,0.0910784543441723049017611,9.79140213311248608363258,0.00246363354915888352683617,0.00974994802932582782517557,-0.00037500565428944069310338,0.136905191083277505414983,-2.28108831728327476895402,1.17025188579323136117694,1132.05171651703699353675,1127.91990692721515188168,1141.03203421796479233308,1137.36626052819860888121,-418.521496393031668503681,150.780582531979092664187,-326.017135159781616948749,49.4093889016766780741818,155.301549240583938171767
0.71250000000000002220446,-0.737762957225863047483472,0.541551262725301740807993,0.247413559311827041531373,0.0104958917050840590950989,0.012663465413252710314862,0.0159505402231719661809706,-0.0114385053353758554123276,0.00261455936364810145530746,-0.0536684523703588878262849,-0.998489552420685044786808,0.14874142242218080234295,0.0913001461229158983723408,9.78856325852122033381875,0.0025651836349171964687943,0.00956822521862134810211042,-0.000470468101271481254667395,0.136906544609295355297007,-2.28106457597186329522287,1.17025239345687603886859,1130.90572650605236049159,1128.25046864876640029252,1140.09937560602952544286,1137.49872698510353075108,-499.233157353728074667742,113.040865356060649560277,-419.49095402615017746939,54.8258173570047304679065,155.301789850830772365953
0.714999999999999968913755,-0.962209725105663049582461,0.266326377633304967051942,0.0434159949717815712988411,0.00703370959866742549715379,0.0144906727743608181036006,0.0149956546180795291522969,-0.0114239790745423609036324,0.00260024033440395176824955,-0.0536880287131461172989155,-0.99848913852383780476174,0.143944421155430490877336,0.0916638549902964172577668,9.78617941145184566664739,0.00264807567873170338762501,0.00938925693830399733796899,-0.000569936270624227182997334,0.136909970099372529928061,-2.28104039025493987580262,1.17025134003462105702909,1129.55555073026835088967,1128.48511125399545562686,1138.93457944783403945621,1137.64038961498363278224,-592.286405674757929773477,63.7967698750798604123702,-528.508821952618291106774,47.8026046318063464468651,155.301976862430734627196
0.717500000000000026645353,-1.11993343375788856342012,-0.105814699072578760619123,-0.149718986516625324201257,0.00309402589893691040007218,0.0149892773347205365136459,0.0129404386961919186382897,-0.0114018475327521719153712,0.0025895677795139105357991,-0.0537030801330406204474599,-0.998489227287379987885174,0.139047710218161590933761,0.0920961619216660587472489,9.78425464589651916469393,0.00270957314879863081155675,0.00921425044276395072140318,-0.000671149917189704076601886,0.136916293714799686132011,-2.2810158854154933827374,1.1702488865093354508673,1127.94429447767856800056,1128.56945249814179987879,1137.45683149626643171359,1137.73774000826256269647,-554.647672129930924711516,-9.30272109881115305540789,-527.15958713993086348637,8.04136520619066885728898,155.30213885007231056079
0.719999999999999973354647,-1.15993085579896315628901,-0.408080839267675798964774,-0.261562702352484799384058,0.000396736842532702856795046,0.0139187980593544844559739,0.0114049281755003867333542,-0.0113701358388773651059145,0.00257790343135854511588678,-0.0537168323451330947948534,-0.998489702029753178891269,0.134053775634711602737781,0.0925294482220913871994838,9.78278562594389988760213,0.00274706070107293143234273,0.00904443443692071538664301,-0.000771986777989358595800096,0.136925837744784867355818,-2.28099143491800937511016,1.17024503396010204347988,1126.78231236961869399238,1128.43859764850139981718,1136.29878151213438286504,1137.68059644101458616205,-395.906098634213435616402,-91.3420027880419240773335,-418.739902382730690533208,-66.9219530700046902893519,155.302221829749328207981
0.722500000000000031086245,-1.11331795841829217508234,-0.653718672484026930291634,-0.337388433293879241858804,-0.00218371474932110409133967,0.0113581947849517375659367,0.0107254807334920647388099,-0.0113340367133114225395296,0.00256807737523689948513916,-0.0537326228172448211450885,-0.998490318079546357310505,0.12912240837012251004623,0.0930227330112433636877256,9.78175876415613743120048,0.00275848266392593769943953,0.00888107597156188519060827,-0.000870808601317649578349434,0.136937439722414261433769,-2.28096724866309585877389,1.1702399946874437741684,1125.96476398450749911717,1128.11274248420158983208,1135.36313198435277627141,1137.40313024291253896081,-258.371231285582098280429,-151.295759710592250257832,-321.82408069224919699991,-152.160343807099565083263,155.302251250686822459102
0.72499999999999997779554,-1.00017253281953699683982,-0.826672805440591074166434,-0.401666539971199831882132,-0.00526918652204139571076924,0.00805254791797556553067938,0.0106460136723157804822248,-0.011296272105850159797602,0.00255907916351432156848444,-0.0537497012303581322978374,-0.998491059696705041126563,0.124337019729759745700903,0.0935859602526198375294086,9.78115569179650101716561,0.0027426507457293039515811,0.00872550640368345217789958,-0.000966382764743371064364297,0.136949627326604012056421,-2.28094411684496689574075,1.17023451385990684414651,1125.49045621319078236411,1127.68211884994843785535,1134.68966110867313545896,1136.9197947219790876261,-110.237598295316175267544,-175.421220934276647085426,-198.131587753095857351582,-237.898538274793992286504,155.302236883259297428594
0.727500000000000035527137,-0.816534828458920669547183,-0.902084911853656024049997,-0.467977574213363611832506,-0.00857433540632831885097698,0.00485876960913328437285941,0.0105190299518911969944845,-0.0112604225216552823046756,0.00254710104388742100689491,-0.0537662699467134630459952,-0.998491921467705489945388,0.119726570193305570377618,0.0942443147325355001786562,9.78095264302430500436003,0.0026994930036401908711452,0.008579037725567182151587,-0.0010580271644865786671158,0.136961181666061276862578,-2.28092218598068230406284,1.1702294571440614578961,1125.41357599303091774345,1127.23563637953020588611,1134.372474045587296132,1136.21363755153856800462,33.4841996271279356278683,-167.79296888130360798641,-61.1253538223990631195193,-343.960202737843872000667,155.302170842804173389595
0.729999999999999982236432,-0.544303049059142507459796,-0.89253766222111119432725,-0.553686641203656737530991,-0.0111709748465078795992556,0.0018418981482412428649087,0.0092985112774437491539592,-0.0112312701363482259075965,0.00253152980152188252990775,-0.0537827637469427202732142,-0.998492693144239273905782,0.1153809113025232313543,0.0950393020139157496117832,9.78112052349304050835599,0.0026300905346943168928997,0.00844284535713588080163561,-0.00114559897687106912109178,0.136970972815841918190927,-2.28090094646739727224372,1.17022592662500368732026,1125.65787721132642218436,1126.84315400554191910487,1134.38403433956113985914,1135.19999370828986684501,117.610874140518617991802,-99.0163990009931751501426,59.1658771624224257834612,-380.735974274693603547348,155.302033776538536358203
0.732500000000000039968029,-0.307626545768119763479831,-0.820830588084398571346867,-0.625159600877914112260214,-0.0117370552860875335815516,-1.16140790662263640318141e-05,0.00744525912751489021834672,-0.0112075963000711400358034,0.00251480953117993316636714,-0.0537932555635360007406653,-0.998493484919809826116932,0.1114370099368170302645,0.0958895510985127430547692,9.78162825284712056372882,0.0025363541423811582914416,0.00831796032997924629504016,-0.00122918676715913629746146,0.136978490928132468074097,-2.28088071882332066309118,1.17022413108506739831682,1126.00163036373351133079,1126.74055438452523958404,1134.66830343139940850961,1134.30995768016509828158,130.376331096840544887527,21.2265837781614941093267,155.391532097701059456085,-342.139436267052303719538,155.301873008508749762768
0.734999999999999986677324,-0.101079580168277324836446,-0.707539747770465909937343,-0.69274395269289745780128,-0.0112401617599997907803733,-0.00148372781371966804171703,0.0055645474786782615078673,-0.0111889214671695661623696,0.00249835276416645072836142,-0.0537964350521746501043729,-0.998494047028219422479367,0.108005120280862842996328,0.0967274826208766036472753,9.78244144016490757564952,0.00242094562554586107197552,0.00820513966652665696632774,-0.00130894606622011387860038,0.136984731021584565935356,-2.28086202342644517315762,1.17022300532231948722028,1126.30975886681062547723,1126.94928692443272666424,1135.16099200004964586697,1133.48929652695460390532,94.6855985923320133679226,164.766028704934655024772,249.897160135514923240407,-324.036220667357781621831,155.301665937315249266248
0.737500000000000044408921,0.0802637720901824419650339,-0.546394513103207968285346,-0.772440232053309028259491,-0.00990732777286728975851826,-0.00317315686495577833556303,0.00377531899051974668274356,-0.0111727768611452546454466,0.00248039229026649279963301,-0.0537957461573358580730897,-0.998493928712557710092312,0.105121839713519182879509,0.0974497325495701227637824,9.78352383811438208738309,0.00228704748504012563697918,0.00810476958513180884002836,-0.00138483063338124988070343,0.136991117295074821269552,-2.28084432283495530668915,1.17022193427633069973126,1126.47505835669517182396,1127.5643845280499135697,1135.91778923207698426268,1132.68977657682830795238,15.3104942366553444799138,274.29121942113829391019,297.416567018535431543569,-254.211340696337856570608,155.301366239701565064024
0.739999999999999991118216,0.167484664419485257402798,-0.404716836241498567616759,-0.84020490821121207591915,-0.00852419913340395248024794,-0.00460370831926219803431621,0.00245757779417864414064909,-0.011157341952499398238241,0.00245939866716736151366907,-0.0537955593991442521106805,-0.998493176675610660808502,0.102817246388519578648157,0.0979665666845605798140895,9.78483647228927821970501,0.00213821231377476399584947,0.00801675233383007494747385,-0.00145655593782666680467697,0.13699757336268938989754,-2.28082743071722893191122,1.17022018552865381124661,1126.38631133799390227068,1128.32074302153841927066,1136.64807483514232444577,1132.2182398234729134856,-78.0930014904696889743718,325.550495906554431257973,306.10792937504783139957,-146.811402949651750304838,155.301075495444138141465
0.742500000000000048849813,0.196765015394630093936712,-0.273119980045850363481463,-0.905170940203732676820891,-0.00776965517071082252542613,-0.00574657497854460207198368,0.000916706144639292067749503,-0.0111458303397033598597377,0.00243528592043148247453521,-0.053801203690906282406381,-0.998491802135417105823478,0.101141492136220076392128,0.0982879380178955652791473,9.78633629370928304069821,0.00197838740736025996136416,0.00794039067199815880304659,-0.00152367897318846892869282,0.137003600162252492378201,-2.28081107178755448927632,1.17021784468895351238871,1126.08459334924282302381,1129.19213700758268714708,1137.44832887895222484076,1131.95571956208004849032,-157.716024378896548796547,367.924645591028479429951,359.382838870669388597889,-71.6359314518740006860753,155.300744191100221769375
0.744999999999999995559108,0.189148096497528089843243,-0.153764171678933692088975,-0.963049912477973224511629,-0.00795358568559106741957532,-0.00594564697456938587305508,-0.00143817513991593634581356,-0.0111406534873374797600665,0.00240917771057378316684749,-0.0538159241039938424089328,-0.998489830062992633763486,0.100152413657360633836291,0.0984112850605092237543658,9.7879784398572926562565,0.00181188360564603768813885,0.00787435992245924705479343,-0.00158554845252159527443925,0.137008840680402116385395,-2.28079417464000844262273,1.1702156162099168756896,1125.59773121609941881616,1130.16036624949356337311,1138.44498902949567309406,1131.86006016621354319796,-175.435934147026131313396,311.268587537005885224062,361.785575824569264113961,-2.77681393044985913576284,155.300302032857132417121
0.747500000000000053290705,0.162524936217356086309849,-0.106178250100497029162483,-0.976460234986466280027173,-0.0084309082764576874502449,-0.00502893591780974834326567,-0.00400955882128498346944623,-0.0111380970895047521490584,0.00237878227701332142784985,-0.0538359601216127359180064,-0.998487651608829351879137,0.0998179145902439446391696,0.0982237763225698723434931,9.78971853775344946768655,0.00164327135317311225082282,0.00781678535074930083692557,-0.00164121928302196217093478,0.137011891820390752094738,-2.28077601272597219050908,1.17021357205586684635534,1125.2074136785076916567,1130.74847994526771799428,1139.25725675807507286663,1131.94183549242779918131,-127.493339428747162855871,160.890146181873063824241,305.082706107486671953666,61.8562033105717432590609,155.299898075815576703462
0.75,0.120343585872454431062728,-0.12293051576447391881608,-0.932133399647591565084781,-0.00815346154169740294781477,-0.0039252355711726256981553,-0.00724870892720959510147072,-0.0111381284032939040923305,0.00234494440262511235142928,-0.0538559622960566794502846,-0.998485631033402487588546,0.100154562813663250420149,0.097688415998872818457599,9.79150923949041462890364,0.0014772869602176659769438,0.00776537361019914457865854,-0.00168959103394379531008773,0.137011677344706400694108,-2.28075578746483076386653,1.17021188100599804471358,1124.96026451895568243344,1130.96481698040292940277,1139.97040256003310787492,1132.16934118276640219847,-64.2472532897044743549486,13.0378637288686025641482,255.042810179338403031579,112.591115062787039846626,155.299459262829913086534
0.752500000000000057731597,0.0627339217365263657200103,-0.184717127430502808804746,-0.830958521105113478988358,-0.00709617323725927808680813,-0.00335349738510818057637963,-0.0106953409771978480424792,-0.011144171125674824304741,0.00231416353690707191081977,-0.0538736205142088322994631,-0.998483869890923303458408,0.101277233214491418911152,0.0968382540693205062787285,9.79330056662558412483577,0.00131859499115887760130328,0.00771770649525111134686695,-0.00172934723314136450621203,0.137009279161426217319431,-2.28073390746998194700268,1.17021016502168828665731,1124.88617741205916900071,1130.81366926391206106928,1140.53247080897176601866,1132.50479106774173487793,12.1556236980722935925314,-149.773929309640010387739,174.273868753516438800943,157.328614781726940918816,155.298993021925667790129
0.755000000000000004440892,-0.0107748760630699894069728,-0.273470367558389493289894,-0.667665832899720479431949,-0.0058870389470759105707276,-0.00378402843944882806559438,-0.0135517504729194201984477,-0.0111601447932180679323277,0.00229182548251101068578772,-0.0538858399923650421836641,-0.998482478314114962891779,0.103263585757195880399095,0.0957267351695866297589532,9.79504178039842976488671,0.00117145617659712448360709,0.00767158392190836653512509,-0.00175887046467136458870184,0.137006537091629881919275,-2.28071193626384660646522,1.17020695213489855923683,1125.0210426374460439547,1130.21594733385472864029,1140.84177190380069077946,1132.9559842566750376136,93.6949425093643242234975,-351.805095825284013244527,70.7558140870332294980471,221.236855151982837242031,155.298495489373863165383
0.757500000000000062172489,-0.0941745216453640648923695,-0.366681672508615275063448,-0.431355845367917378752054,-0.00544573167460260000594108,-0.0053686673808620646863865,-0.0153908715839614577275407,-0.0111857878469688205858024,0.00228301330399230395507004,-0.0538886258382907934461059,-0.998481643384361849946629,0.106165787319488919004939,0.0943362103853047362367334,9.79668367789456340233301,0.0010396057285630036330637,0.00762520424851646089203783,-0.00177629280433727978517899,0.137004637942855084231653,-2.28069102712736837546004,1.17020089997890308630701,1125.35465212460599104816,1129.05464378478563958197,1140.88624987940693245037,1133.6109753435016500589,135.700571105144149441912,-480.963171088114449958084,-31.1979991724910803441162,255.762892819575199609972,155.297864575670075737435
0.760000000000000008881784,-0.131129683580909789375468,-0.403941011965533613992108,-0.232874519777594629621476,-0.0063188910382598016679534,-0.00718090096880718165711643,-0.0154653357742069175184696,-0.0112154382180204396923795,0.00228354992219140587317305,-0.0538804975886193193712614,-0.998481484427896637257049,0.109835503573644896468942,0.0925641126896396271295231,9.79818059304095356765174,0.000926406098572584183956091,0.00757710485556260630868319,-0.00177978417541061351841991,0.137003943124681504261986,-2.28067205094911074070296,1.17019165626029941762454,1125.69954549297176527034,1127.81113147841415411676,1140.68578190793823523563,1134.23479872077291474852,135.444323494993909662298,-525.672094698119963140925,-107.87389494557818636622,260.863916062907946979976,155.297312264702640050018
0.762500000000000066613381,-0.101248229919084664629736,-0.376663374106883996894624,-0.0665566660079527222526607,-0.00820225769437051693833141,-0.00922571904755573393708268,-0.014519736988997737972551,-0.0112415745486567943134393,0.00228910789601909298376925,-0.053859130067487458182196,-0.998482185942338618112046,0.114106881858671516116743,0.0902832270654395363518319,9.79949015359284025805664,0.000834915574824074174960231,0.00752593392246252157473663,-0.0017680513834561050606764,0.137003089786658899251748,-2.28065531991767667108206,1.17018064599385285262656,1126.0318737420809611649,1126.42628331129503749253,1140.34688040467904102115,1134.91529492381619093067,133.79906404775272221741,-603.289321898500361385231,-148.463972382341893307967,304.25943486252407410575,155.296734402132472041558
0.765000000000000013322676,0.0269846717024892629455124,-0.264426599578224841291529,0.0778247390079843948118565,-0.0104196562543799192690486,-0.0115463070421692928085866,-0.0133021781152659109709324,-0.0112599648716255468228198,0.00229754202793188951406411,-0.0538246762867034683752721,-0.998483759596023201510206,0.118849817618870826074762,0.0874404142984010201988809,9.80057304387636207820833,0.000768000544481255999727798,0.00747012262570544670337025,-0.00174076882057203345850749,0.137001026399654335374834,-2.28064041527720329227691,1.17016964803529099903301,1126.36854081321052944986,1124.79468486892164946767,1139.94346204602652505855,1135.75609589508553654014,114.018333093190349813995,-563.416722695364569517551,-127.271550520890627922199,303.557008688994471867773,155.296013760583718976704
0.767500000000000071054274,0.198156796641099530731367,-0.117236067713116801081163,0.155070442461853530424776,-0.0112204397371805236760522,-0.0128033640614261274431884,-0.0126871489887871377599815,-0.0112731360553105230959403,0.00230931038350191877167594,-0.0537836570287047247007628,-0.998485793633129836699425,0.123984232775640274004658,0.0841242623473896777852588,9.80139366642339204815926,0.000728297308913423307487334,0.00740759796537786806280845,-0.00169876514259891583241702,0.136997266486364593918168,-2.28062630092144402738086,1.1701597601597968356657,1126.60196540754691341135,1123.6091996978182123712,1139.71052265207458731311,1136.43307996726116471109,92.2135414067269323368237,-403.776565041880189710355,-61.141247828754728743661,252.760530876775874276063,155.295392262842000263845
0.770000000000000017763568,0.397523051933266313717752,0.05436352722734953679673,0.202387670621276549720591,-0.0104122225984833553791287,-0.0129957991612002429770989,-0.0122685470118995883920254,-0.011285006242149672045505,0.00232621555313306405815554,-0.0537409324419934608663141,-0.998487952866088601666661,0.129451074886085648607548,0.080461930737642711752855,9.80192394555844082049134,0.000717888894141546795614472,0.00733566613426407752168723,-0.00164388277609263736001033,0.13699183391989297464697,-2.28061195396284155378908,1.17015067517394166785039,1126.82960852024416453787,1122.77580204371224681381,1139.63775580688275113062,1137.01989854946941704839,113.872773574123741013864,-253.008261183873344180029,-3.63492668029728971390568,222.446137624779311181555,155.294751055066996059395
0.772499999999999964472863,0.614549152605518900216452,0.242711397371993153893044,0.245333840711414841173621,-0.00783020799155309012162807,-0.0117895481810206155526277,-0.0117424345225699364864136,-0.0112972728998701320984877,0.00234863781152038885585709,-0.0537007144884357884295767,-0.998489972815654214244319,0.135156931999975082892007,0.0765514224672524945525254,9.80214657603364791782496,0.000738084681413648559245022,0.00725102234211555569942664,-0.00157879933693099924751913,0.136984694068269019506801,-2.28059709190641424214618,1.17014258548252847447202,1127.17132927541751996614,1122.34415839189887265093,1139.6923480186731012509,1137.54531065538503753487,148.15095004350936847004,-49.4054724974375432111628,26.6238351794527012827984,155.088239958331399748204,155.293961212642102509562
0.77500000000000002220446,0.744088653223109464107665,0.355256925428170611258594,0.284017154176339270410523,-0.00468743191039536905018181,-0.00972462268973255279658208,-0.0114894048991790523328582,-0.011311228619699527364606,0.00237349192836647801888028,-0.0536669326930340612191728,-0.998491623383601201169313,0.140938621682290099457191,0.0724990087954929529612258,9.80205634634582523290192,0.000789186639533320170684927,0.00714985587236633898799987,-0.00150693077096888212659809,0.136976549010805304096294,-2.28058083816229917317742,1.17013550508716046572033,1127.57036327046171209076,1122.52877468122505888459,1139.77087498278001476137,1137.79533974926107475767,195.054632450819383393537,187.728201361141884717654,14.9613824882635402246933,57.5635891816090818906559,155.293287775943809947421
0.777499999999999968913755,0.802065080007562158925793,0.403090071957746987063587,0.33884398485825234503821,-0.00146460157135426907205888,-0.00740508142929089882566807,-0.0116261355651681407008535,-0.0113248259671743234378027,0.00239857654133568539908672,-0.0536402362298071880286621,-0.998492891954625871875351,0.146647789202116213269633,0.0683568085636184485931466,9.80166179404283965936884,0.000870248256256843551181834,0.00702806433458437462835633,-0.00143226718127341758925175,0.136968818446361301210956,-2.28056311679711187778707,1.1701292530159301819026,1128.14660243767161773576,1123.28279939870458292717,1139.76715493111441901419,1137.83312860129308319301,266.185306771376190226874,382.909287191841599451436,-26.819928494251119133196,-18.1225902470032274038658,155.292600644032347645407
0.780000000000000026645353,0.805402943553332195669725,0.400705377066847390210569,0.409278601943718900457725,0.00116791122099385124948057,-0.00548673719198484750175782,-0.0116221466323938680403893,-0.0113349669834862509104623,0.00242556538714543785603683,-0.0536199801623554114793357,-0.998493842295024691679828,0.152214798237377990641761,0.0641632163961473600544139,9.80098467211907475871158,0.000979060864357994163273413,0.00688150130951915243310291,-0.00135929457780886286250022,0.136962703780387218266412,-2.28054385465035025504221,1.17012427380128203324716,1128.90128980431859417877,1124.44332111718426858715,1139.63677534030875904136,1137.70472679802605853183,348.612914878412709640543,530.405503521523769450141,-82.9782722790695714820686,-84.3282337523759650821376,155.291903752915231962106
0.782499999999999973354647,0.764230126429124467790643,0.359691860279924113807937,0.488112479694257639373234,0.00285019301117377978072032,-0.004497356423578444985234,-0.010698354580480032294254,-0.0113416267677093080684658,0.00245225776121330528434239,-0.0536059195539966490406947,-0.998494493596518761791003,0.15750393590473571459043,0.0600298361948863601345039,9.80006006175987387507575,0.00111234677673117130294878,0.0067062426254226072119824,-0.00129290599268065643442926,0.136959228951795075612807,-2.28052203913794082623667,1.17012121414438929889457,1129.88966701206368270505,1125.93482691631220404815,1139.35226356971907080151,1137.41148743253120301233,486.595843289705499046249,677.588699211354992257839,-143.405717894438453186012,-152.96411946233078538171,155.291197048533462066189
0.785000000000000031086245,0.694826397863433919965814,0.303096847334476171553774,0.569754203702261152741926,0.00395366459385495822714818,-0.0044448248042101247065605,-0.0085989815951160834817113,-0.011341058752406346643582,0.00246917638480460095370961,-0.0535962403386753202805259,-0.998495010026988705220674,0.162241720909025305408235,0.0560098354667765974124194,9.79893874101055217806788,0.00126604803455446549530217,0.00649895569467163949223254,-0.0012380863455377724442058,0.136958452015062154272229,-2.28049771532696032849685,1.17012029543482110049979,1131.33426902076712394773,1127.83126461324104639061,1138.919746750836566207,1136.93990620071440389438,563.739870552989941643318,669.744556387012721643259,-152.90570085917337905812,-179.732682964640673617396,155.290340216064407741214
0.78749999999999997779554,0.636141207465416802513403,0.272230627268104263816184,0.612879923674195747906879,0.00460053651014540130465003,-0.00488802721331864364895381,-0.00652207672048208970255745,-0.0113305192864480569481245,0.002467397133271215323852,-0.053589699526082952563133,-0.998495513349802021885182,0.166176958209020730894423,0.0521789014691218244745841,9.79768358435817354745723,0.00143573270834053781132289,0.00625728789035832986403785,-0.00119971519949966728968427,0.136960773581789901909289,-2.28047157166616676349236,1.17012119764447852787725,1132.708366364828634687,1129.28354969824727049854,1138.58773506542320319568,1136.51282401770799879159,563.452360788050555129303,509.458583166041989898076,-101.293962069439572815099,-161.213574937300876399604,155.289620757949677454235
0.790000000000000035527137,0.580605651877829309626122,0.269225421726467850636055,0.623138240416128308396537,0.00595762188390290114287096,-0.00497770816330780820763158,-0.00452342028151508923627944,-0.0113140396843851541441861,0.0024488314157411379679008,-0.0535844185625223984326126,-0.998496051495536218745031,0.169289045797589743358458,0.0487338939855743169538016,9.79636423038794035278443,0.00161697340443573388257814,0.00598021653120370689366014,-0.00118238515857317844949537,0.13696522725355439464856,-2.28044520407397843797526,1.17012394130174190998162,1134.15153082470737899712,1130.37855752907125861384,1138.4132769404893679166,1136.13383832602789880184,613.658931963072404869308,367.042823866040293978585,-20.5366694393432958065659,-138.629585085936810173735,155.288897949341048843053
0.792499999999999982236432,0.511631131154333895771913,0.291016016216266937277624,0.601889866392968597708091,0.00843648944686254710634277,-0.00425609436718156920048672,-0.00244325170818707453762597,-0.0112961753466120275873896,0.0024193232725425932276575,-0.0535777521809780651884658,-0.998496698480649924611896,0.171646802862535807765454,0.0458737426558907118723241,9.79505735696378643240223,0.00180570556293713842428705,0.00566827970704540749086187,-0.00119003579778338610534183,0.136970494199968068071982,-2.2804196954362785376702,1.17012896924848575075373,1135.77666102464399955352,1131.11876381757747367374,1138.48505171822648662783,1135.81967609227831417229,546.121462297605376079446,169.432917146013863884946,76.3986398730593663231048,-82.5609982021887134351346,155.288029289795417753339
0.795000000000000039968029,0.452770372602956883145708,0.319790148314939404183832,0.565083636359039132024407,0.0103266605714147918781975,-0.0030315036493898314673423,-0.00110684776131898593085068,-0.0112800794591153656643012,0.0023824199271135506304764,-0.0535700264961819563880319,-0.998497392044625065032903,0.173284712483285252559995,0.0437634858607358623316941,9.79384527454953257574743,0.00199844664734570272648928,0.00532362212110315102114866,-0.00122560782653860825784642,0.136976033825756071671265,-2.28039541118982658218783,1.17013577122776313288455,1136.88213813619540815125,1131.22572211480132864381,1138.79527013985466510348,1135.72103333501695487939,352.857809691021998332872,-51.0103378734583685627513,165.342910971548775478368,0.357429589939783576291177,155.287305992141767774228
0.797499999999999986677324,0.405793032134261710819345,0.350738271091105835441937,0.520769168950081184910061,0.0110857067185339934478616,-0.0015530513496792397280799,-0.000110582591513342016510679,-0.0112667190006144092573326,0.00234083749527286104352708,-0.0535638301716251444273276,-0.998497976811198117985668,0.174230459208124438541532,0.0425131996176983245616654,9.79281225282826106592893,0.00219228787071460177668381,0.0049499628838931726548811,-0.0012907193725836933490686,0.136981801588898444155262,-2.28037238083475424232915,1.17014451037031985691783,1137.54095007309911125049,1130.86371212821018161776,1139.31176627308423121576,1135.82146324022801309184,166.608263279476744855856,-202.807575834594729258242,223.515839750370815863789,73.0656164474111591289329,155.286584911042325529706
0.800000000000000044408921,0.38230215636545200608154,0.384170928027703473262022,0.47738109762463237784047,0.0109997233433272098568345,-0.000287855037049501759696679,0.000783375040569448516901419,-0.0112520499927515876120721,0.00229509675615919509633622,-0.0535623682485003166364734,-0.99849832604298793814479,0.174474751340907591190543,0.0421203979532611266778375,9.79204149714074034704936,0.00238481640285088600239582,0.00455254438177061029890957,-0.00138532712705795400115472,0.136987253751402499046819,-2.2803514836245803998338,1.17015494297209721175079,1137.71517945259279258607,1130.21168423562835414486,1139.91284933860652017756,1136.08636141725401103031,-61.8163080796420558726822,-301.784382144523704027961,232.939513709561452969865,139.838173056978007480211,155.285866590093462491495
0.802499999999999991118216,0.394101180143841767211654,0.429371231669820885290534,0.439344812492738545639526,0.0108006426808444529197306,0.000404413616329698708505569,0.00178644366433986694422953,-0.0112364665650548749276094,0.0022455060339414108575018,-0.0535688751078905595059965,-0.998498262004408831948865,0.174019368989889178234165,0.0426492163062465040601623,9.79160830404427962037062,0.00257399260739547830478813,0.00413799848424520506917634,-0.00150754020648377379427985,0.136992484939497449758505,-2.28033289884848056061628,1.17016541217173108968552,1137.2318685327009006869,1129.35479021748756167653,1140.47646384163203947537,1136.52065410551290369767,-361.018527059513530730328,-390.562996470316306840687,201.002027330059547693963,217.152738122422107380771,155.285152376777517702067
0.805000000000000048849813,0.436961861134313012122732,0.508851165817453821027527,0.401914361053833157910731,0.0112995188812615027229569,0.000823179613051376211571575,0.00327766188562425651170651,-0.0112225592915273526123388,0.00219548581591225795348055,-0.0535835018084283784545185,-0.998497741356680013069536,0.172939014421919806663297,0.0441804840258790132434541,9.791575845489758123108,0.00275798645250551269225703,0.0037141849008279002701538,-0.001653453964593889395987,0.136998849558900265277472,-2.2803172075148059327887,1.17017324155383595218893,1135.91008681729522322712,1128.25886925327677090536,1140.91785947525681876868,1137.17212510786612256197,-588.179255368231110878696,-395.427284761626310682914,97.2728344431288007854164,248.038784335221635046764,155.284300652233838491156
0.807499999999999995559108,0.475862932645632952244341,0.597186654148817774867553,0.380190050364578091546264,0.0126635331799632381427623,0.00130059361816788347961105,0.00466197427819078219490834,-0.0112118182543438759529719,0.00215372796095114789338698,-0.0536027935427359561448846,-0.998496914683456360251057,0.17141919205110778268164,0.04674272902870073298498,9.79199178846400464237831,0.0029351274546723427928685,0.00328994981861489236424356,-0.00181727781156214860183717,0.137006546225776321135115,-2.28030488710794765339074,1.17017715203708161375573,1134.29097225585974229034,1127.37765379367942841782,1140.96282801384768390562,1137.76084802718901300977,-713.087227607683644237113,-334.679833767313255066256,-71.5246577707602568807488,227.014044836323392928534,155.283595446979802545684
0.810000000000000053290705,0.49085389971121706764734,0.696335372501085902996465,0.377197796099476234665815,0.0147013660130005715392931,0.00239337322368528152352618,0.00566695476755921852957121,-0.0112089657930193164342425,0.00212806792374093788761114,-0.0536234447994452315122693,-0.998495890905783944901941,0.169640074750105701584246,0.0504013162258376418156658,9.79288531142436724508116,0.00310399251720923580535882,0.00287474248467834304215929,-0.00199175283769800932909266,0.137014862936770370760442,-2.28029651270168853827158,1.17017689494586440979162,1132.34465067925680159533,1126.58547008444020320894,1140.56023618640301720006,1138.30719533204774052138,-868.16655426309728227352,-324.435773927370689762029,-291.566237033975710346567,206.060980884922003042448,155.282894774212877564423
0.8125,0.461716105484050787222117,0.800292619783549818990309,0.411116851870803712287739,0.0168581438987798933049067,0.0047281849620528114061524,0.00579175215373636548960024,-0.011218970987068805147957,0.00212074744796425041296062,-0.053642251691597593599159,-0.998494782981487305484336,0.167679817353299009941026,0.055204685255801133614284,9.79426632253112039450116,0.00326343523247920805352429,0.0024781899409306250813001,-0.00216863357012534981385632,0.137023265284240636230351,-2.28029250015709195054114,1.17017219741419697953688,1129.95013948454425189993,1125.75547492404257354792,1139.50499682867780393281,1138.79115293161362387764,-837.933210583923141712148,-283.989102984287228537141,-477.859517839396687577391,129.139897995219030235603,155.282058639937673660825
0.815000000000000057731597,0.394744935222252735229631,0.852222375960001166106395,0.477006833351541870147372,0.0180798925548189444445502,0.00745921409479906576817099,0.00543334188408382823265441,-0.0112395720713073157120965,0.00212687012702414022721764,-0.0536550580985953318169379,-0.998493848456854737882793,0.165475468865431241116681,0.0610405942031608805820042,9.79612630070879930599403,0.00341252345056468472592193,0.00210964150379872907026257,-0.00233921512816715393076605,0.137031474761055094280238,-2.28029279514449978449875,1.17016353814263540655816,1128.15498462633718190773,1125.16552456951876592939,1138.17093859720603177266,1138.95289482202383624099,-622.415628444150001996604,-213.221904488272940625393,-607.788265141061287977209,-8.13883797213747328669342,155.28136531088688343516
0.817500000000000004440892,0.286543474362030536894963,0.849485249195772840202778,0.570751617523141963062017,0.0189462443636539065727753,0.0105139695542759113722209,0.00573793887577142992101331,-0.0112689724676989285606643,0.00214046508784913446649112,-0.0536580829951145421574665,-0.998493322133232275028547,0.162948720606206243211034,0.0677818433449843271709767,9.79843495154007548819663,0.00355038929130098738704002,0.00177761366235914750055791,-0.0024949839078814593437694,0.137039437057931395846921,-2.28029699698472976265862,1.17015142618461132073548,1126.83806134232349904778,1124.68936540160120785004,1136.46605550297249465075,1138.75045874175293647568,-425.052111461263450564729,-176.634991480068322289299,-797.09512413946799824771,-191.056658023717147898424,155.280675103317747698384
0.820000000000000062172489,0.115430698250369348500932,0.780109503787072666725066,0.677929647231138021723496,0.0196833355427124198633315,0.0137302844942186683119267,0.00755416865211632100607364,-0.0113066950821441285918167,0.00215418587678598482879067,-0.053651827465735685285253,-0.998493197255770903453254,0.160000351030595566736991,0.075305651936888345909793,9.80114087922792265317185,0.00367608976391302182118448,0.00148926719609942105441991,-0.00262811363419367723798237,0.137047858160476265787509,-2.28030375660035700136063,1.17013643331966532556976,1126.02972406903086266539,1124.28234961211842346529,1134.18546297650868837081,1137.99761153190524964884,-154.90464891768155553109,-113.704753424235505576689,-841.112298620145452332508,-362.708841945231711179076,155.279850031708946289655
0.822500000000000008881784,-0.0555166878580110947916104,0.677500486702739657118855,0.728929624500030848288645,0.0199145273855954353658948,0.0156304860746332117960034,0.0101258866971052890332272,-0.0113516759369087852360458,0.00216671050278132923394558,-0.0536393844604473937764944,-0.998493321136369793578069,0.156652451978930462583861,0.0834526963166038193708829,9.80417284018663970357466,0.00378846205609902238198305,0.0012500478939944748100338,-0.00273193838427686092745761,0.137057261881270986414449,-2.28031193945571031278519,1.17011873696897494845359,1126.06353809773509055958,1124.12084163448002982477,1132.26049400987176341005,1136.93691453202677621448,149.370549123795939294723,-15.6972185614904304884476,-733.680921085032650807989,-498.792042595641305524623,155.279164874880819979808
0.825000000000000066613381,-0.246513264328991232865462,0.547981358882913105468049,0.707562381864067946324326,0.019616008746669716389377,0.0167515912986262865969067,0.0131038448811129758925231,-0.0114004848739782393973741,0.00217778874529801682452534,-0.0536261028540798573294168,-0.998493445939828250246251,0.152949170572781123489392,0.0920021357728952327015293,9.80744435207188303138537,0.00388616222834249321407829,0.00106346790048176880957853,-0.00280130016962756335507923,0.137068285853696320009121,-2.2803209634882652956378,1.17009870379242464366598,1126.7765768146498430724,1124.20386351931097124179,1130.51705837108352170617,1135.50365131892704084748,371.077150905420808157942,82.4841603298408898581329,-640.733026549605142463406,-610.619949789769975723175,155.278482005374485197535
0.827500000000000013322676,-0.445758870524892714115595,0.410015906276508912409184,0.61508761903991293618077,0.0187985383655937254854251,0.0172844538470478190084201,0.0159130737909715345990147,-0.0114487147009126599694895,0.00218454067333704758310797,-0.0536177860799089620047475,-0.998493318308654287385195,0.14888489342464372722219,0.100708015139544249105796,9.81085775980270824447871,0.00396781599467395558467064,0.000930996691027053953175485,-0.0028328633930795907129585,0.137081316670210312524958,-2.28032976376895035741654,1.1700775078523566463673,1127.91892385226219630567,1124.53326243612923462933,1129.05682887712373485556,1133.88381478307792349369,511.365070846113212610362,197.795215392534203147079,-494.203292147994488914264,-651.808813811157392592577,155.277800944375144354126
0.830000000000000071054274,-0.644406583000629362700806,0.27137556783282534844659,0.442193435230486153741936,0.0173170693317770026109503,0.0173808687188089366904009,0.0180099718176716314110841,-0.0114924119613146729496078,0.00218383346424783466102615,-0.0536160587706850100264688,-0.998492904942528625156228,0.144450788260089835191025,0.109330608636180992565556,9.81430766318819003402041,0.00403222455136895488458926,0.000852083397365083336158498,-0.00282535832199997880009867,0.137095886142495765325222,-2.28033745281750377387198,1.17005704523618025980625,1129.33340216888041140919,1125.19283959627364311018,1128.04604191034354698786,1132.24460724987125104235,612.569646575593083070999,364.393766336570138264506,-329.748840858428309275041,-668.496044237007822630403,155.277122040822973758623
0.832500000000000017763568,-0.870402289216503088908894,0.103512202287296906089153,0.168291950956020203156172,0.0149426293768663009942088,0.0176661888218108409365215,0.0193334870284806240037234,-0.0115326724695073278698088,0.00217987550264885174972074,-0.0536211880649936356579843,-0.998492168980857797144779,0.139787712745452680218605,0.117723454956840001273122,9.81768270565913425684812,0.00407856378583404659970979,0.000824232089217968562702699,-0.00277966419454387736812095,0.137110773879846964407037,-2.28034336061285847208069,1.17003906324244244530064,1130.9817720851401645632,1126.35523126781208702596,1127.4080846728315918881,1130.54133456189288153837,545.722508089886787274736,475.45767761608760793024,-142.348193666615173924583,-544.834971121020089412923,155.276309982648513141612
0.834999999999999964472863,-1.04228723564341874130434,-0.0446178461452710131696087,-0.087421802502584758376436,0.0127801521813491626017312,0.0182050769650471122584889,0.0193889577311961401606677,-0.011568951056245552547197,0.00217685358656803835952775,-0.0536336630337967065762506,-0.998491081227049104285243,0.135034137216429678263196,0.125714966014447954156807,9.82087372783491474592665,0.00410657808809751067452565,0.000843266159968944408603653,-0.00269851572173078610092367,0.137125550656707034802295,-2.28034686354824467358071,1.17002368285918345591767,1132.06201470932978736528,1127.57012798435403055919,1127.33430094201048632385,1129.52043239426620857557,324.775322134246096084098,508.166969623607201356208,47.7565251695522903219171,-300.746302646620904397423,155.275635826099914993392
0.83750000000000002220446,-1.19049804749608045817411,-0.207645730616841522886418,-0.336043849900401925268056,0.0104316106095847915130603,0.0185600788754285359050122,0.0184104811634236038841994,-0.0115977210349571049907702,0.00217610591076680031166757,-0.053648399433315632767183,-0.998489952809403003008981,0.130267114087025293045485,0.133090144568493135013298,9.82377914061560808534068,0.0041166377052516403209359,0.000903713027001307005192654,-0.00258613345999925787685458,0.137140256426632634045859,-2.2803479773400892050006,1.17001037337717650466118,1132.60564869581139646471,1128.89606611593012530648,1127.64686729867935355287,1129.0376030486597755953,88.5106743245159179878101,563.267546694987231603591,195.650224088421794021997,-88.4629208061595875278726,155.274965263210162902396
0.839999999999999968913755,-1.32889682913097351146803,-0.416186711014432941801999,-0.590470859041642537334837,0.00691729474139601407250977,0.018226919412599441872036,0.0162452344895043475359042,-0.0116119340805883770884055,0.00217394879633350237777001,-0.0536614080892174258319294,-0.998489088605952757049522,0.125458935294064488630283,0.139585559947924847667977,9.8263093216811565611124,0.0041097727868020465097354,0.00099910897062823280680155,-0.00244786773523898541771171,0.137154562259963641590588,-2.28034704563352663697628,1.16999978493867962114905,1132.50456808095236738154,1130.38646571782896899094,1128.31255206245259614661,1129.07811779023541021161,-161.106877200654565740479,494.617452505689925601473,267.666921782847339272848,99.5887059950745481273771,155.274166489819890557555
0.842500000000000026645353,-1.39965048917976186970691,-0.589563941077787645461683,-0.747917485673296078552141,0.00334851703640856460456043,0.0170911101610603938238953,0.0139656422630888843450236,-0.0116065687528152470392451,0.0021645381510793496905587,-0.0536728707023457068947536,-0.998488550400693952724396,0.120538973424798245837053,0.144998391100574858247896,9.82838705853131955336721,0.00408764874987695928792997,0.00112227529375592046528842,-0.00228988984123602726597491,0.137168079445332935506485,-2.2803441083635469510682,1.16999282603611387543197,1131.80011430980812292546,1131.36915337845857720822,1128.9852019075935913861,1129.53554657863514876226,-385.14167458088161311025,304.123565362988017568568,267.444859038459753719508,234.623521208049879760438,155.27350747752521442635
0.844999999999999973354647,-1.41212581377065893306622,-0.744970952620759629958513,-0.838911160684020273947681,-0.000428500131488436248727164,0.0150477558879413900183586,0.0117883601223809468538928,-0.0115829234966293298514373,0.00215012130409083027093864,-0.0536825000069569985283735,-0.99848832935308695635257,0.115598118095552135353721,0.149262860183628720545101,9.82994702912429829666507,0.00405244598510512508277026,0.00126564500422228498610622,-0.00211886155391926124871849,0.137179669722249125696223,-2.28033929311127669947723,1.16998961758216601936056,1130.57885970804795761069,1131.90708354464391049987,1129.64977635764489605208,1130.25123539627566060517,-603.828706855574068868009,110.830304133787549858425,270.864109199055519638932,328.732654725535837769712,155.272857917410703976202
0.847500000000000031086245,-1.35349346619734722807493,-0.894416880292971061550134,-0.870034281958291466629873,-0.00483820580172214867453739,0.0120322050531316664112591,0.00936383812752026971348851,-0.0115402460663703004123404,0.00213163071896493860890587,-0.053689786509997013130846,-0.998488454741696229710612,0.110695071060387548178561,0.152297488163150168682947,9.83094206111691804039765,0.004006740888468682260104,0.00142159012043230380609171,-0.0019413591730840415970627,0.137188593124142360624163,-2.2803328978673569338298,1.16998902627441347945592,1128.78097077553024973895,1131.92330489912751545489,1130.33952245358887012117,1131.17920985226282937219,-666.810320925650898971071,-99.8983288237467661474511,229.981603704254467857027,325.320867939171591842751,155.272093016746879357015
0.84999999999999997779554,-1.24420853074403026106154,-0.983259275265338072991028,-0.831584486572869430176524,-0.00852758656417803434512948,0.00960329337237149534278746,0.00713634597320120505486996,-0.0114793004154755077378391,0.00210646688975468093785182,-0.0536935494504472490828739,-0.99848898437928435001254,0.105816410156746851245479,0.154078183263764295629628,9.83134250674974197181655,0.00395321379164803934913586,0.00158267789382457967073403,-0.00176346705625833252706336,0.137194867405860454478983,-2.28032459763681449871342,1.16998935346402443968827,1127.24480810341970027366,1131.40759190052517624281,1130.79968437616616938612,1131.87783973597151998547,-565.038935888650939887157,-297.106028990901620545628,165.261766588673566502621,247.699083035240391836851,155.271470841622971192919
0.852500000000000035527137,-1.08111237213972488646618,-1.03577244537262891377338,-0.728281033501908536820224,-0.0120389191976915978232743,0.00723366525293764068421654,0.00469467587700300031938738,-0.0114030350806379899425425,0.00207319845260776252152124,-0.0536913587072915809983442,-0.998490018692473113581798,0.1009697802545376499328,0.154646271021547071500279,9.83113568203085819163789,0.00389427094402939504361183,0.00174194043478063075036655,-0.00159061413954233185977238,0.137198475232613220642364,-2.28031453249617976908326,1.16998996894713624961071,1125.95577609608699276578,1130.43777475417300593108,1131.16583128653223866422,1132.41770526743903246825,-440.031154640382339948701,-435.7082885666837341887,140.805103405136719629809,189.07414972209136294623,155.270868604020165548718
0.854999999999999982236432,-0.888298239591039373586057,-1.05981373745270213149183,-0.577243638301874084639564,-0.0148234235071408784051306,0.00468522253311982276452463,0.00248603647834066791844077,-0.011316711397802934821466,0.00203355964221670158093014,-0.0536838578656044299042271,-0.998491462395045936695226,0.0962249536326598708946278,0.154107899645860829673794,9.83032533493459581563911,0.00383169481907506869269864,0.00189310271333782849899341,-0.00142754722184316898241085,0.137199418002958595241836,-2.28030335084415947122238,1.16999118501529819624807,1125.0446523302177865844,1129.22905045769175558235,1131.50370989319185355271,1132.82321048458197765285,-250.818191612506552701234,-497.896015521336721576517,144.454700064625143340891,138.410351446054733060009,155.270285998570557239873
0.857500000000000039968029,-0.686257511337980519172675,-1.05160578646503077848706,-0.385031022843267733968275,-0.0163561740502663442720088,0.00217223897740850954360403,0.000942266144316254890267448,-0.011229350224225879972817,0.00199467460222207786102455,-0.0536773898940270111079798,-0.998492859376788777225897,0.0917605081788385873453606,0.152658603444097651369304,9.82893013818227601063882,0.00376631097559409827243981,0.00203076771310023744196438,-0.00127835120164819949356572,0.137199057453261774597308,-2.28029146183418207627369,1.16999279356288310438572,1124.7016851380244588654,1127.94829467656632004946,1131.88810478685536509147,1133.10975702466930670198,-20.0470724536898892154113,-523.998617464666949672392,201.638665779273480893607,113.301111782175112807636,155.269730561022441861496
0.859999999999999986677324,-0.467473173528619168060061,-1.00752115368485961610645,-0.137823602622449803423166,-0.0171410431041842011012921,-0.000670013967887434381404121,7.31691650181264321983754e-07,-0.0111470669729302317846331,0.00196295570194070104555473,-0.0536775646549918494798703,-0.998493827448090454090845,0.0877362646940389734329102,0.150456857289060441651429,9.82698572965228223097256,0.00369775617572767455881744,0.00215059744954507669686961,-0.00114637676329627249093013,0.137200157180178194948894,-2.28027973373546499757936,1.16999398418440359037618,1124.9444169679493370495,1126.60905737036841856025,1132.51190322208822180983,1133.38971604349285371427,179.052129655292276311229,-425.509920522426511979575,269.189681774832706651068,100.786132652319707858624,155.269099599552362178656
0.862500000000000044408921,-0.322506589826464129533434,-0.943727765781086636032171,0.0552826511353754768141044,-0.0175025196196355176114778,-0.00301267301958006239806509,-3.2780341666625677351718e-05,-0.0110807857063756221710493,0.00194649747896969457609806,-0.0536860578830415172135737,-0.998494137702968354020072,0.0843484338332395611192993,0.1477702644860606484567,9.82453938737090837207688,0.00362449062870689791768242,0.0022493054438947161777218,-0.0010343486189082992145194,0.13720382068811262654684,-2.28026828911485912598778,1.16999464292026411627035,1125.59694578630092109961,1125.82074507395418550004,1133.23405319572952976159,1133.6136876879309056676,318.830349750259927077423,-226.020788819232421928973,338.877155566478620585258,91.8641164526433442460984,155.268606209506060622516
0.864999999999999991118216,-0.226181652999155935468423,-0.852887731415699623660487,0.202600379973114363973963,-0.017683202529541273972935,-0.00539999965786317620564105,0.000684476523506286115353103,-0.0110388128799398695101264,0.00194885306850396005685921,-0.0537053667890754551916821,-0.998493556209112398391881,0.0817013314450294736435154,0.144833407503925842840786,9.82165142458957873827785,0.00354413142033356163770885,0.00232454137674723915543695,-0.00094439095021098186811398,0.137210395281714941928541,-2.28025657566682227184174,1.16999535066390003557046,1126.53856871670063810598,1125.47895342627225545584,1134.20628899992061633384,1133.84903662575607086183,435.857632933538809538732,-46.8347229319533226998828,479.50886541957476083553,101.667999048549887675108,155.268149470512582865922
0.867500000000000048849813,-0.167068989655609650979429,-0.716549654142544789614533,0.293987996079914937208599,-0.0176759403170578775765787,-0.00799935895737875247990534,0.0023577208753040581820648,-0.0110231841027095111423817,0.00197254058293518715755388,-0.0537382789800895446785667,-0.998491907173162274169442,0.0798724877408673594736399,0.14176959056797619473933,9.81839424498428847698506,0.00345387646054028671707692,0.00237482116902721588497238,-0.000878100714655986012979749,0.137219871649862851237245,-2.2802439318747613761218,1.16999667564415843479253,1127.77623395096861713682,1125.58657145929441867338,1135.63159752282740555529,1134.1220276831736555323,441.98794371541185910246,112.642578329905418854651,550.274115093497584894067,90.8755644745268966744334,155.267646868650388114474
0.869999999999999995559108,-0.158502329804367930732312,-0.586914489133485539618107,0.283600528413673946825924,-0.0176893710246724435164456,-0.00975996597761436164575333,0.00429131043958661580889347,-0.0110230472351313720652533,0.00201435583649230967248633,-0.0537878041275327428705211,-0.998489153025423625820167,0.0788134865940333662059913,0.138463317342787911590207,9.81485248734644777357516,0.00335099696665050721805512,0.00239953427254796514134227,-0.000836460681891992223306598,0.137232376681600126699934,-2.28023094616115384880572,1.16999932284090379930319,1128.74850843527769939101,1126.0421663179217830475,1136.95765957538810653205,1134.30341444812870577152,348.982361690604818704742,233.075541545258403175467,531.869616763878639176255,54.0245430182039356736823,155.267267959759209361437
0.872500000000000053290705,-0.177554193293464085412481,-0.45283623043458398615968,0.182032522156773624022463,-0.0178660175390717018695241,-0.011231070168318320334766,0.0063062681559763727329182,-0.0110260950925575255260336,0.00206852387226993863350577,-0.0538534593247252321712715,-0.998485466529840159921605,0.0784223711058306821586328,0.134778529622781279018184,9.81111524366182408130044,0.00323331790130664768062596,0.00239895836226857979769922,-0.00081980714260292673369046,0.137248143421348611781241,-2.28021857145957840273809,1.17000329503201605518825,1129.52114575942164265143,1126.75194916702071168402,1138.29094560664680102491,1134.39215039826467545936,274.517151182226143646403,338.964684287020361352916,556.654061284506951778894,15.4545885295647025259314,155.266932557147526949848
0.875,-0.209115996491799988055149,-0.305587166635429063887841,-0.0185102987232862101207864,-0.0182231547419350811689576,-0.0123867770195110922515358,0.00765129337669626530954448,-0.0110290946448553719289043,0.00213211565856298796220458,-0.053927299542124058906456,-0.998481314796947794221182,0.0786589757209506107438202,0.130756430071867962849907,9.80726918906752764826251,0.00309969728573836157334287,0.00237418929960374336385343,-0.000827752688550306247976251,0.13726562754043669656312,-2.28020756176259942193951,1.17000800984373842794639,1130.12109419118883124611,1127.73698973935688627535,1139.74092988181064356468,1134.38068739077652935521,160.675435504390264895846,363.527438712844400470203,491.82390833648196348804,-16.5115871978286889998344,155.266582065370272403015
0.877500000000000057731597,-0.222978048117495414315314,-0.210214157232594761604005,-0.214850631445241080363928,-0.0187838058504744553900423,-0.0126656897530565640958011,0.00711271943075322387456394,-0.0110301131283206295397026,0.00220307329772365806386247,-0.0539983497058212011388001,-0.998477314994173359430363,0.0794973568273175945630982,0.126462773763020203121599,9.80339967401647172096091,0.00295044777747007977430904,0.00232693161759712314681781,-0.000858998445617039068505916,0.137282935695187430225062,-2.28019875695672125104352,1.17001189494296808923934,1130.32452293694359468645,1128.56958636058493539167,1140.75006514832921311609,1134.30959246227553194331,24.7124392740260887535442,320.078246941920667723025,360.305380266026645585953,-23.3553766735439936041985,155.266333967262880833005
0.880000000000000004440892,-0.199532037216838709081657,-0.159909808595982333434549,-0.392915830580300273755512,-0.0197872396489143995146343,-0.0124894658103037962254556,0.00513038781464189661690734,-0.011030274323901778296686,0.00227688675812092507916296,-0.0540566056289959392944233,-0.998474005261652863829624,0.0808614691594879975156118,0.122023851337873329159223,9.79958790086181430467605,0.00278751346621015265794807,0.00225918450347023860858009,-0.000911346751700960753042602,0.137298760981889533816513,-2.28019282072004214612093,1.17001259297528537040023,1130.24465638755896179646,1129.33738097406649103505,1141.54245678314077849791,1134.26391050740880928061,-68.7146160733390729546954,291.253407674502966528962,290.79754226404446626475,1.13575547352411265755734,155.266131592257920601696
0.882500000000000062172489,-0.130048236150415719158957,-0.153704149007465679099838,-0.528417862708647989578026,-0.0209713133145990049399643,-0.0121370757858336800194543,0.00269243825453054736948633,-0.0110283409221155551116489,0.0023508778403517932749367,-0.0541005186622590950040745,-0.998471486985076595033206,0.0827025914501866021844023,0.117514420917694484280958,9.79591121619149518551239,0.00261440752246544678982776,0.00217285792670450115735004,-0.000981975552673525816510525,0.137312628823606452943551,-2.28018915177671832594797,1.17000994959720050481167,1129.98094985657689903746,1130.0258533989574516454,1142.20405285964943686849,1134.31527123964315251214,-132.948638683910644431307,254.85859839018280581513,252.554377049045569947339,56.0294446757779454060255,155.265966664330846924713
0.885000000000000008881784,0.00354393064064374013755199,-0.198635317075633366368237,-0.598954145781679492266392,-0.0219774914386264563770368,-0.0116372075660160570476087,0.000261364168097911282392931,-0.0110225815261862317845365,0.00241708150460210073259826,-0.0541292217790805621491224,-0.998469842979417432360378,0.0848585697271470873470633,0.113000258555196270160437,9.79244085093879057524191,0.00243594033813363973137167,0.00206949685383977935795863,-0.00106784952324470109458199,0.13732302391855191747716,-2.28018615763496113046926,1.17000515257057902118731,1129.57991319413940800587,1130.61167396601740620099,1142.80522866838600748451,1134.54405773078769925633,-186.764845485595117224875,233.117589989887875390195,274.162830937711760270759,141.448665089046585308097,155.265845688541162417096
0.887500000000000066613381,0.232957305239752027192779,-0.292946162684154409738824,-0.614298352621055587796661,-0.0224753579183279532383022,-0.0116075898310232360904903,-0.00232344910268462902930287,-0.0110112302376802403958145,0.00247097552239094585962986,-0.0541452364800299248970283,-0.998468967147455588317939,0.0872241848548314518962954,0.108536842287770718407103,9.7892405155372088643162,0.00225783098417336710109216,0.00195012452561368139665465,-0.00116614832963377003036132,0.137329159094278618891138,-2.28018236299002374778411,1.16999941353271053046115,1129.04712562914892259869,1131.19144134890689201711,1143.57486701433799680672,1135.02251456508838600712,-192.480329056161110656831,189.869868399364179367694,299.835557788628364050965,196.986207975623813126731,155.265748965185082397511
0.890000000000000013322676,0.467163518326520310619543,-0.38069850631459639656029,-0.586121704691865974545806,-0.0221478832466468593398456,-0.0127214892347947208794956,-0.00398147931899070755407122,-0.0109940921429608449988446,0.00251295253103658855486913,-0.054155534502538162089369,-0.998468485099121672021738,0.0897807586947669822308171,0.104198166824051446921473,9.78636490556618099390107,0.00208620541614496944268775,0.00181534351849638956460931,-0.00127447806834005356382833,0.137332403907808764387255,-2.28017651512262276014553,1.16999403404235957637525,1128.61751154885860159993,1131.56102330801422795048,1144.30440645732915072585,1135.52898877066581917461,-162.839706658996732357991,119.973167285752325028625,308.107624131934869637917,199.681833494787326799269,155.265706427814791368291
0.892500000000000071054274,0.719026102178469850301212,-0.446307699188899897890792,-0.542957683307776273196055,-0.0208939908104863215909663,-0.01473080949143887666275,-0.0047050086591862959328747,-0.0109727875459421902321067,0.00254251993470538820499294,-0.0541604613718942931588352,-0.99846836565992258538671,0.0924812280403590480926113,0.100086532142858536387209,9.78385922851593825555483,0.00192710762884936576133654,0.00166569263525974333058077,-0.00139085364216846646065462,0.137332764330698853250112,-2.2801685279893821878261,1.16998992042343186170683,1128.23292709585393822636,1131.79130718533565413964,1145.11540513499767257599,1136.02092373256232349377,-159.505850362984205048633,64.6509543330011524631118,357.096714247745353532082,179.322119939706510649557,155.265700018053763642456
0.895000000000000017763568,1.00350924242609540470994,-0.476690826189389627032256,-0.501341989670318177729769,-0.0180188388251047819366146,-0.0171139137677155314665178,-0.00469380275113043775314647,-0.0109481517782136529570725,0.00255786774727239990187555,-0.054156684627970713696854,-0.998468791095617369535375,0.0952403935959540010047775,0.0962814794717427313575087,9.78175989129884726480668,0.00178614963459845809724824,0.00150201877968517204069154,-0.00151354624711338373727054,0.137330136679651021447413,-2.280160534705420793955,1.16998642126093299609124,1127.81998229704367986415,1131.88427807967923399701,1146.08989002856787919882,1136.42559937036435258051,-144.772472164916877090945,2.13807449595155985022643,337.205038943200520407117,96.2073541720221783180023,155.265729980654725750355
0.897499999999999964472863,1.19909528107713470035378,-0.458444541662821336558409,-0.481788291515166389178404,-0.01462647136110183793134,-0.0186505878543621016196763,-0.0048006145721135847284633,-0.010925845624256932606122,0.00256405172231978463123769,-0.054147304752614588974069,-0.99846952248022891041046,0.0981036227578168662510905,0.0929399868938185769184912,9.7800920749167001844171,0.00166814734187148514671373,0.00132568160904419896604922,-0.00164095438852403891979992,0.137324992864655354152248,-2.28015382380872022594076,1.16998294979594130715839,1127.50906473502936933073,1131.80199755781541171018,1146.80143032971363936667,1136.50196050342242415354,-115.116131664808463597183,-65.0265962513457793647831,239.349052932538853610822,-38.4322813699327170411379,155.265783702605830285393
0.90000000000000002220446,1.32933569871760814962158,-0.401952450718748022229221,-0.466280968505437543036862,-0.0107275843775128526536022,-0.019627519198611123596443,-0.00577868224091664627051212,-0.0109145598852060047440071,0.00257320051256814015527841,-0.0541329919954686156202683,-0.998470400054493056885008,0.10124983727317649062627,0.090260237777977841977517,9.77887017568288818836209,0.00157670655186012594051181,0.00113862218835066031363823,-0.00177147093067533891071197,0.137317923501979133327211,-2.2801489608352700777516,1.16997966492975180585745,1127.24440163871963704878,1131.55914509842250481597,1147.28663529323057446163,1136.23343796351468881767,-91.9391897599324749990046,-120.931303254928820933856,144.131405997677433106219,-165.178009268129102338207,155.265864711360080718805
0.902499999999999968913755,1.39904372013645494909895,-0.321648884397219780861832,-0.43709563361534592429436,-0.00676775320771771504019254,-0.0202280102678937638571721,-0.00755020153831964958152101,-0.0109166474522476818209693,0.00259172636053611911421957,-0.0541107728577127009006453,-0.998471543030627128878507,0.104734496836514215378777,0.0883116545070694314301107,9.77810140018648077386842,0.00151394577688812636065419,0.000943275440917252508063462,-0.0019033442304092612878258,0.137309766463262233893161,-2.28014578024612157847173,1.16997604286747769464228,1127.04936878622970652941,1131.19734104154076703708,1147.52208735970202724275,1135.67607045708177793131,-50.17153154490183908365,-167.270315099631119437618,31.4508152941470768837462,-280.483184149306680410518,155.265966867622381641922
0.905000000000000026645353,1.40003027030955129461631,-0.219809543698907150499622,-0.374842666413671532499308,-0.00304547633965630360278198,-0.020533906076970202120302,-0.00966680908187164678047054,-0.0109300383346881656299043,0.0026256802607820856239329,-0.0540806106472055056477721,-0.998472960247308582992787,0.108600258580412792341896,0.0870661811746686331581202,9.77778489206580836423655,0.00148027821269155796142514,0.000742389754780235799382082,-0.00203467610392412756939451,0.137301565840253186889797,-2.28014358815522744095006,1.16997185744097720316859,1126.9935439809951276402,1130.72279352292434850824,1147.44388936970130998816,1134.83102204276815427875,20.6770605816927677267358,-223.168638884635385011279,-94.1075572086446356934175,-410.917822550436198980606,155.266093255191776734137
0.907499999999999973354647,1.33745749082776899108183,-0.075931166526977997288661,-0.259020252623647528888995,0.000940595017384945712712874,-0.0207331345947215500702399,-0.0114261708813265406431414,-0.0109497510558149244858095,0.00266833571054419290552451,-0.0540426212904729710850837,-0.998474713132113556035563,0.112639055931221754303095,0.0864406180131719048542749,9.77791236392930152021563,0.00147437467847568717468909,0.000538914516447505892275671,-0.00216340537810780306898772,0.137294444905007306800826,-2.2801419080223999102941,1.16996732123568891736909,1127.15275408913817045686,1130.08149784711758911726,1147.05154957365880363795,1133.6214813443295952311,101.243265879656888728277,-235.802181698181613000997,-177.717313223319990811433,-452.6502230981346315275,155.266271955758980993778
0.910000000000000031086245,1.24662030349121644157151,0.0634004250331228896842006,-0.139203851475768247691889,0.00387825524144068964696452,-0.0208251931366088792463298,-0.0120104659783586420473966,-0.0109726482015344607712226,0.00270774282647715880747996,-0.0539970792288554310434101,-0.998476848550752804634101,0.11654781209319337031971,0.0863813640884102673656031,9.77846686112763663345504,0.00149322150108847483823693,0.000335925472907500695819022,-0.002287351576239781986849,0.137289248998096774512234,-2.28014072237540199594719,1.16996261501117104764091,1127.49976031039341251017,1129.54378261443343944848,1146.55530280358470918145,1132.56777092727747913159,182.585844255890890508454,-199.629122315627512307401,-216.861411597801435391375,-405.633391513856281562767,155.266443165144124805011
0.91249999999999997779554,1.13183253768645530890069,0.22565964458624485078353,-0.0150782485030890520127933,0.00644360456721767421717217,-0.0208224407992342770701288,-0.0121891534671541307971454,-0.0109988924666240134309092,0.00274021844174495701404459,-0.0539475848752427669663412,-0.998479174581885842165718,0.12019653297976781725076,0.0868786276539841029187272,9.77942184779660195204087,0.00153229871986220117854871,0.000136572427864346335538159,-0.00240424797899609597739978,0.137287965593818922505065,-2.28014019213339569347454,1.16995700856372897291635,1128.06568331041762576206,1129.08335223553945070307,1145.96724251566979546624,1131.59331438676031211799,292.326596071415849564801,-165.124376421226628508521,-272.549279700114993829629,-389.324943008886862116924,155.266637732770107049873
0.915000000000000035527137,0.98080138863178956132316,0.445667613726531464113378,0.114517107060046238742324,0.00921485875301989582064621,-0.0205509471110575901720008,-0.0120085982409847084190213,-0.011027119097513502637975,0.00276434798431395402709687,-0.0538993340003192100695628,-0.998481426336491617590241,0.123508145361447191357129,0.0878789779172218232794478,9.78074374166730287072369,0.00158603272186226378070995,-5.59604052329560502400396e-05,-0.00251175950750268323422021,0.137291678479949358360201,-2.28014028657778755615482,1.16995008315550763633439,1128.96139329075049317908,1128.71816073232730559539,1145.19255640508413307543,1130.6211462122330431157,357.586520484937523178814,-90.2267107435363016065821,-298.722916043788870865683,-313.791711453268078457768,155.266898491514695024307
0.917499999999999982236432,0.851017585626330785864013,0.642660119182107858470943,0.188656349692711611254481,0.0113260513480892416326995,-0.0198968562934134195197,-0.0111724282756122447052283,-0.0110557850384717087227626,0.00277907618100390035181801,-0.0538562253015958738999736,-0.998483413273721698288909,0.126423895389540907885362,0.0893146421538747736779129,9.78239249083132555995235,0.00164844231404394185591666,-0.000238542685325993986979187,-0.00260760296295342586248012,0.137300454003281974246775,-2.2801405237431362493794,1.1699415577616651962245,1129.85361591284231508325,1128.63221868182176876871,1144.47362793545084969082,1130.02435582949397030461,378.983254725016763586609,20.6464987449635195559949,-310.427436111558279208111,-186.430938953344423225644,155.267138236890218649933
0.920000000000000039968029,0.723051589393771787506182,0.834986484386899485699018,0.210733028023220247959557,0.0129061166142976652820851,-0.0184868574317807524143298,-0.00971100667030132605472836,-0.0110827672517909512489576,0.00278119294377234763798734,-0.0538234448340055224302425,-0.998484889967773292518416,0.128854838680419830909685,0.0910993379211704479292422,9.78432308434037878441814,0.00171388035260480590428467,-0.000408178311311315302790936,-0.00268971760829177014215374,0.137313457599420957189196,-2.28014100319618728818227,1.1699317852115511673361,1130.85630956437557870231,1128.82139322605212328199,1143.64041922452634025831,1129.68899151746632014692,457.113535951156848113897,148.557205266388194786487,-394.330098922773345293535,-78.7512638948100374136629,155.267400240271342681808
