t,ang acc x,ang acc y,ang acc z,ang vel x,ang vel y,ang vel z,quat x,quat y,quat z,quat w,acc x,acc y,acc z,vel x,vel y,vel z,pos x,pos y,pos z,mot 1,mot 2,mot 3,mot 4,dmot 1,dmot 2,dmot 3,dmot 4,vbat
33.832500000000003126388,-0.29561832854363023770361,-0.0178531491004393708110776,-0.894766876116221521186844,-0.0855216118380974082979762,-0.0297465525300243255335531,0.0716423134404415157261425,-0.00983900250751519253600286,5.88007292391826499617508e-05,-0.311297732293221884880552,0.950261104218363517048829,0.0371713901245670080841776,-0.0872855815972111981349002,9.85757215369342887356652,0.0319550137720965091170378,-0.0969450978536954555142557,0.000908237802441696855625108,10.7332310490008975278897,-1.65456989162159007200614,2.07232337432468938231978,1106.47413455515447822108,1120.84693611035004323639,1110.25681155917322939786,1108.15031607973355676222,388.854181971584011989762,298.068858436983930459974,79.6588631930309816198132,-286.796181516309559356159,155.089078314295107929865
33.8350000000000008526513,-0.437579071556294163514167,0.0126800132576493952696328,-0.873677109663271833639442,-0.0862894156082486818437616,-0.029631718214049827808676,0.0684989342833831615919848,-0.00994372790485425692152965,5.31746370307580654677743e-06,-0.311238690455308053550709,0.950279347289449738411804,0.0377219687623054217295859,-0.0868072795729257357111308,9.85624117018990908434262,0.0318411725803458139916202,-0.096729715664828366805672,0.00102031804509344599732334,10.7331481446251224554089,-1.65480925613820217812133,2.07232295595716831115851,1107.45165586464577245351,1121.46004656509535379882,1110.65620176399011143076,1107.37813476809856183536,423.337320523772461910994,166.233038495889758223711,252.551968739728692980862,-334.670984087992735567241,155.092218336017396040916
33.8374999999999985789145,-0.571647175898143622418957,0.0853061512439036578880902,-0.687021252952367489363894,-0.087372509543689552691248,-0.0294670873449084588791003,0.0647474323163908377365416,-0.0100481652019164067329848,-3.43198926305403261244158e-05,-0.311174664526951583187753,0.950299207889455654907351,0.0377408380754665970235884,-0.0866228323625510970851238,9.85477611406309073061038,0.0317317940993358318935158,-0.0965118415538963048128096,0.00113943293060284013204497,10.7330653860165128321569,-1.65504732269722198978457,2.07232379475333639007317,1108.59082115777141552826,1121.67810130282873615215,1111.51957140287072434148,1106.47696115929511506693,411.294139503814790259639,-30.5979658787080452952978,357.305462779821937147062,-304.864339973008554807166,155.096022835688188479253
33.8400000000000034106051,-0.646651109460414708074438,0.179976520993703287265575,-0.405149126721394636785334,-0.0888791677080601055793707,-0.029354843094618419258035,0.0619029802164181297552403,-0.0101534260945386894947617,-5.70168496195545989029679e-05,-0.311105373647824923200034,0.950320767034647628790367,0.0371629042539419612856122,-0.0867639745922591659743617,9.85316786487987172904468,0.0316254656660324151573604,-0.0962932671195111666850863,0.00126305185905286427791583,10.7329836785813927946265,-1.65528451045239610728288,2.07232694297312614040152,1109.5081265621658985765,1121.30705673570173530607,1112.44272907789013515867,1105.85381306823273916962,364.016567096309927364928,-272.669312344984632545675,373.064945688738703211129,-204.337991082352402827382,155.099220407423246115286
33.8425000000000011368684,-0.673439387638028907900889,0.313717825301093933276775,-0.024922626314707360672962,-0.0911321450262221471882995,-0.0291459033709872139539243,0.060149597878910505965866,-0.0102616955448786191518185,-5.45101822345686403510287e-05,-0.311032175262722476727362,0.950343557519203407935038,0.0358388345893363158278788,-0.0873091953752888477735539,9.85141065213068145567377,0.0315203059410623168123955,-0.0960755137692199390198056,0.00138753535515654963933274,10.7329038959050322432631,-1.65552091183023919462869,2.0723335716375181903004,1110.41090399325389626028,1120.31475474110311552067,1113.38489613131537225854,1105.45527120388283037755,398.064236488424342041981,-558.447358547944986639777,368.709536680142889508716,-115.330978507804800869962,155.102442331058398394816
33.8449999999999988631316,-0.645728731531184707570503,0.517361053843841012245264,0.477633688812624468411627,-0.0938920919655567703943078,-0.0285003989216637658443698,0.0601769854124086928104376,-0.0103702650254783382277601,-2.99271512441754985675308e-05,-0.310954291482038014393652,0.950367857693251605333273,0.0338096041412580539109456,-0.0881709226576158355825896,9.84950525299993273620203,0.0314134092116389665449994,-0.0958599011929585492763906,0.00150971962946893321910746,10.7328263268329280322178,-1.65575695600527805773083,2.07234331217919631740187,1111.49844774460621010803,1118.51481994296455013682,1114.28627676128917300957,1105.27715817569423961686,398.358166176127213020663,-724.852783912631139173754,259.120983452616428621695,-18.3315665432380114907573,155.106332363478600200324
33.8475000000000036948222,-0.579559461408403531201827,0.715540063926619729350875,0.873068373770274575029759,-0.0957236995138732726928765,-0.0275189875428667636569902,0.062365462051090024553357,-0.0104807547379303488827018,6.75279053201134846500138e-06,-0.31086965929418114429339,0.950394319095382633655333,0.0312787835640769770750858,-0.0892969501002778137666027,9.84745749962013938727523,0.0313012666563268829311717,-0.0956473645860360238701858,0.00162548821776975342158489,10.7327505202108994808441,-1.655993651117446008314,2.07235547706443545834532,1112.40269482413555124367,1116.69049082153810559248,1114.68050104857911719591,1105.36361337116659342428,351.588298111121048350469,-737.641902861728453899559,55.9241962361907454237553,72.0597039050148566730059,155.109590582887847176607
33.8500000000000014210855,-0.485870418952455751515629,0.926463152613758111897369,1.17133813296802635761651,-0.0969261549138582950702059,-0.0260620964526410599237938,0.0665730378226910418648643,-0.0105954258757166349530499,5.18455152668070550219144e-05,-0.310777150153371484186948,0.950423283780620020699814,0.0283442688332351880320381,-0.0906828770344944717907154,9.84527847543940914931682,0.0311804471691098511465512,-0.0954382564830596746840996,0.00173091133390674222457262,10.7326761942166051255754,-1.65623160596632490459967,2.07237040443733500083567,1113.25638923516271461267,1114.82661042865402123425,1114.56589774247026980447,1105.63745669521949821501,318.881523195813201709825,-705.250741652758051714045,-138.890533445318283156666,129.699989914824698189477,155.11286190166026699444
33.8524999999999991473487,-0.384324104106415209702874,1.12901997952227728383434,1.34866099397435768025844,-0.0977260035693122280919809,-0.0241031151134064973440285,0.0716755837473292967132465,-0.0107170731059750834468502,0.000106916517841438015270529,-0.310681245859724786129163,0.950453257274062379700297,0.0250175521267188040452911,-0.0923648504407159898210722,9.84298406179198970278321,0.0310488535586893356355009,-0.0952320961679206934302755,0.00182261799336380344097042,10.7326027645385941866607,-1.65647073047476167673153,2.07238741752554389563556,1113.99710244011316717661,1113.1642371132775224396,1113.98604838135315731051,1106.01211332074012716475,245.115378171396628204093,-569.437419796695166951395,-338.683705373486645839876,161.839405811459954520615,155.116140757713878883806
33.8550000000000039790393,-0.288925797656069238694698,1.2909085062822527323334,1.360586706507390886145,-0.0981050170146375855040333,-0.0210821501468408008250766,0.0768915693508170211556418,-0.0108453091874230553998126,0.000175675431148576748291781,-0.310589788019370871552383,0.95048168423857115616471,0.0212588928247226909007406,-0.0943318306686450752662765,9.84059498829084056126248,0.0309055480934320829511375,-0.0950278336685728974853049,0.00189885293324999391249841,10.7325289344969156957177,-1.65671001248677707273771,2.07240592562922465447173,1114.4819661260203247366,1111.9794233296690890711,1112.87247921560197028157,1106.44665372427721194981,120.707677093680203483927,-375.23306751471767483963,-586.297742182723823134438,192.790786588276716884138,155.119424249854802155824
33.8575000000000017053026,-0.194810825407161714029058,1.39571199439293547328589,1.19822245493094170498694,-0.098271313471782251180997,-0.0159771429713972609731876,0.0819413139096557552321087,-0.0109732477711525430730255,0.000250544083453944877674241,-0.310507155110434363010086,0.950507212936831824556805,0.017207605380352077040218,-0.0963818054424120523870911,9.83813762400565749999259,0.0307495853024713113044175,-0.0948244007378452186118878,0.00196035326736446278289572,10.7324540346295442816427,-1.65694848333275701612877,2.07242418229768565751669,1114.60064082558187692484,1111.28807177570297426428,1111.05455967043803866545,1106.97606725368200386583,-53.6585524844246322118124,-127.812207670038162632409,-714.013643837246490875259,189.215298044645550135101,155.123363481441771227765
33.8599999999999994315658,-0.13682983465206666195968,1.38565387491006952735972,0.948291331790787617173066,-0.0984148176386584888630793,-0.0110076921549646464942862,0.0844637041449497472100916,-0.011095251579308322217865,0.000321527673624083651024441,-0.310431973845237796361118,0.950530358229302763106716,0.0130624150137149258599223,-0.0983214645318605390267308,9.8356405524746168822503,0.0305794754143475233654215,-0.0946210048137618858765663,0.00200883390210235702327823,10.7323778819835311537645,-1.65718574076639191261506,2.07244015704080242201712,1114.21367336359844557592,1111.3403622913194794819,1109.30241099641898472328,1107.39273021449957923323,-264.502228676078175340081,130.78604729465112654907,-699.820811765766734424687,156.361096149800118837447,155.126640346231283729139
33.8624999999999971578291,-0.0982284245404971279036488,1.2698392711311599079238,0.626904336836841102886808,-0.0986261319800531000012711,-0.00645846165352840020923431,0.0855592130561551172940327,-0.0112107427411046994131238,0.000386176040438836860012317,-0.310359804017974416634473,0.950552574865054733521674,0.00891744292907939439807308,-0.100098769251238145505667,9.83313139145241166261258,0.0303935075925062386792419,-0.0944170495094424910842434,0.00204601170607335855824993,10.7323005355310368003074,-1.657421976685470754731,2.07245297352268442736545,1113.27812968220268885489,1111.94200201217563517275,1107.55545561161238765635,1107.75787273443029334885,-520.753689569853236207564,345.001143124050884125609,-705.415216102167732969974,144.4202324911827872711,155.129904649563911789301
33.8650000000000019895197,-0.068658200317846626581364,1.03508876961987761333717,0.204819572780960773572545,-0.0988385773585304799881968,-0.00246556436495205073475279,0.0863220082861302501209266,-0.0113225702846396717587973,0.000436549269441784040107768,-0.310288311117046855525103,0.95057459160320445512582,0.00499503176938541001983474,-0.101693476517535547065663,9.83063726751541189230466,0.0301906714866742760527973,-0.0942118239662550482904635,0.00207351794167547325703493,10.7322226258335682302913,-1.65765797462777952908652,2.07246216522210202626297,1111.60990491574784755358,1113.06536800694061639661,1105.77533491590634184831,1108.11483137695586265181,-670.56205283613303436141,439.345899413322399595927,-561.51700138660464745044,114.989949600735883450398,155.133799072179783706815
33.8674999999999997157829,-0.0532356674982042629706847,0.792663840808745967514426,-0.151682387333750501312579,-0.0990047114561475455341011,-0.000450226375483428172333267,0.0865596469216155933734669,-0.0114313245112084797133756,0.000469320253986259283175697,-0.310215004368805169487899,0.950597215464185185673784,0.00142082403454666175712795,-0.103072486093864879030946,9.82818412701517907237303,0.0299700405051330012740074,-0.0940047161371255490802668,0.00209349601918738369848993,10.7321451885684631122331,-1.65789419015527217382555,2.07246873793075403469288,1109.9253194180203081487,1114.13873150924337096512,1104.7478706046779279859,1108.3328224824342669308,-681.184651303448049475264,417.086229973590036479436,-289.519874294036981154932,69.1399159155199782844647,155.137019090415520850001
33.8699999999999974420462,-0.0417755112401134443000927,0.543832284946218602605938,-0.484650109384744731677586,-0.0992547220766084870025026,0.000490628532870414466211806,0.0859983393059024214810648,-0.0115379952635294939083943,0.000490339938098333831886788,-0.31013929366624731764901,0.950620625739784563812407,-0.00184638823233721632854909,-0.104267645306380857261885,9.82579477106216536697048,0.0297312094084225785051157,-0.0937951697253544269816672,0.00210758032756254085060554,10.7320686535941227646163,-1.65813060816188984070152,2.07247428163041469417749,1108.20398165923370470409,1115.15079915680666999833,1104.32773554443747343612,1108.46053095653314812807,-651.195332044093220247305,375.662641245061138306482,-66.4564134199850968798273,36.6932309865018027039696,155.140205376123532232668
33.8725000000000022737368,-0.0303667761892701289216934,0.316134587088642005081596,-0.774642810416159566244687,-0.0995298423343735777502062,0.000834685542164731127980082,0.0845608972396441616048435,-0.011647961159591125115953,0.000509398935462074655203257,-0.310063289814803577648661,0.950644068681917531193903,-0.00489363310734681339342345,-0.105418386598268049025862,9.82348816304206273741784,0.0294746514205629570049005,-0.0935826853916968126601006,0.00211582183253654137686239,10.7319926954589686118879,-1.65836689862018782370967,2.07248075819355737081651,1106.66934275779817653529,1116.01704471546963759465,1104.41558853757783253968,1108.51628863736686980701,-524.044403641442158914288,305.775332636610983172432,135.97205700277621076566,8.81485847512070996856437,155.143358843762342758055
33.875,-0.0176250770203236206690178,0.135551666964204536869332,-0.982466529587472603424203,-0.0997502102686243091733687,0.000764232433221452523916528,0.0817943441340210353196483,-0.0117657430794480145214154,0.0005388636835278248294126,-0.309989277691832654237913,0.950666743100423206058736,-0.00786173503059205136533905,-0.106664972094793919499267,9.82128070842897571424146,0.0292013742566605005723801,-0.0933669790932745158329453,0.00211770230913428929991893,10.7319163443581597761067,-1.65860188223283322450641,2.07248988924763866137368,1105.5837596410251535417,1116.67967581999050707964,1105.00759582945170222956,1108.50460524890877422877,-337.525648298822034121258,255.581236574794814941924,330.089623766007264293876,-11.8866723605259601015405,155.146467913951909167736
33.8774999999999977262632,-0.00248734913340396823766554,-0.0114937233036013566889189,-1.10431040824013360079903,-0.0999126525064539944276376,0.000469494294313825902276172,0.077268983470045543571203,-0.0118878941400035759851095,0.000577536978693681565637241,-0.309918100434272369980704,0.950688415837670497410272,-0.0106886516103837647673203,-0.107917198641994060981375,9.81919042896889671112604,0.028912721761950428700505,-0.0931480069473342858765719,0.002113792454444181692641,10.7318390097934557303461,-1.65883446343811091772125,2.0725010004369157634585,1104.98171451630560113699,1117.29495089834244936355,1106.06603665640636791068,1108.45685527556429406104,-97.0857697915975137448186,210.380726127215581300334,407.658852506866139719932,-14.9300314596453986837332,155.150142545383630476863
33.8800000000000025579538,0.00676765499114648574896513,-0.071849984522902435313263,-1.08933299569486696789511,-0.0999642010683141069016244,0.000159771521066424531136094,0.0732410979142546908482458,-0.0120073449699197136453233,0.000618223383432938604700735,-0.309850304179093760659214,0.950708997835137514798021,-0.0132257301510437033642553,-0.108981962528086534502947,9.81723526234086207864493,0.0286104283990656280134424,-0.0929258551438827823387712,0.00210521021821935203077736,10.7317605476693387345222,-1.65906483329406739812839,2.0725133742430354999442,1105.09833079206691763829,1117.73157945062712315121,1107.04589009198707572068,1108.42995509161050904368,159.856247554271334365694,174.882287675338034205197,372.353881543850150137587,1.57712029781497475866558,155.153155196935244930501
33.8825000000000002842171,0.00723901521729529949522597,-0.0677124892763606434087365,-0.963699177634950054915919,-0.0999449138721084096026459,-0.000151072941061716325278352,0.0698613006764202404408337,-0.0121220454880016093035522,0.000657400144242570837194162,-0.309784423382228668586436,0.950728990747005675565617,-0.0153670445220452298040748,-0.109783238234314961534466,9.81542962903946403230293,0.0282960291624703604018709,-0.0927008072192473664419055,0.00209216732938849675829673,10.7316811046500948378934,-1.65929377494713969909412,2.0725265871331743916528,1105.78099575407736665511,1118.16936233671958689229,1107.92780606412657107285,1108.46474087705337296939,341.321985649157170428225,180.955785621818876052203,316.220472052160630482831,29.431947010224970284753,155.156114335542355320285
33.8849999999999980104803,-0.00394026072120709763141333,-0.0123538523005983502667249,-0.769004125030719354327857,-0.0998842090145770217235466,-0.000433228911589639785733458,0.0674683829082634578533373,-0.0122304407707971001667557,0.000688445355321873255632914,-0.309719345423426717367477,0.950748778706507979840978,-0.0169515359654213090823127,-0.110236784052208464101952,9.81378638244295586900989,0.0279711807584846136598422,-0.0924731281605680743851394,0.00207503498818943123149783,10.7316012489982970379288,-1.65952202525824432655099,2.07253933638422749297092,1106.80494072031115138088,1118.63635837873539458087,1108.6269924522464407346,1108.57711482666150004661,451.144527277116367258714,189.706770851210677619747,225.471922199151947552309,66.0457715962027975820092,155.159028340018465996764
33.8875000000000028421709,-0.0340246369431655079629273,0.0996421359666291306389496,-0.527692707636576052721011,-0.0998023011609855126291535,-0.000626528917975244540802815,0.0663967732790295139810866,-0.0123319240563126049370357,0.00070993995135569120009944,-0.309651659834078885058517,0.950769481134256744248034,-0.0179163158992238016886667,-0.110308844710173659109387,9.81231510881687718494959,0.0276370243024193357195273,-0.0922432499203774264318056,0.00205425278192008717303985,10.731521267427158505825,-1.65974966212304231305552,2.07255090811580222620591,1108.03671839046410241281,1119.11789619097612558107,1109.05516567512290748709,1108.79496973503455592436,536.832715517264659865759,196.859667688740302082806,129.751150659673839982133,118.475293937838941360496,155.161887915472732402122
33.8900000000000005684342,-0.0963482700486409104900787,0.288062350790885712825684,-0.228777193343145918147385,-0.0997367799281731748362034,-0.000615612686922518731642839,0.0661897760906304810646361,-0.0124277310166653436052098,0.000725409735625021393976009,-0.309577665712467586800472,0.950792288327538925862825,-0.0182871399968080605713538,-0.110031833349920893372342,9.81102166262297714638407,0.0272945957852167783719288,-0.0920116675776987136270435,0.0020300392002197509104533,10.7314414225701622029874,-1.65997595760387883778719,2.07256130537830518534292,1109.48910429789884801721,1119.62065671717959958187,1109.27574820554514190007,1109.16949129635099779989,496.322522482156557543931,152.761733438685723740491,43.7187056432264569139079,152.958499485751389102006,155.165257054380333556765
33.8924999999999982946974,-0.170930467327337742844406,0.476400755559104160941075,0.00429593313040300961436202,-0.0997744064138818553821864,-0.000231576103044500199038339,0.0664588685458335631794924,-0.0125176282076607699178528,0.000741652422694351722357031,-0.309495080970868807757057,0.950817946961319160337212,-0.018168000250245765203605,-0.109433061781343959895096,9.8099089986631966553432,0.0269451941335618859463263,-0.0917787750572349875222145,0.00200287120531009599916361,10.7313625169154427396734,-1.66020005426272732051984,2.07257155362379386076555,1110.51833100287262823258,1119.8817048581688595732,1109.27375920333884096181,1109.55976223246261724853,351.155053679669890698278,49.9055838335806853933718,-21.2163379494432469130061,168.844984511911235358639,155.168013037181026447797
33.895000000000003126388,-0.265893540102579761796875,0.672826201616243846359566,0.203591271992067224250178,-0.100019303492918334996808,0.000825631221807614440813539,0.0670138131130398606583043,-0.0126075926452143827205532,0.000770095910498136458979812,-0.309404173833995599363078,0.95084628339594723378525,-0.0177205145726182580756536,-0.108687007860209544629626,9.80897508263578465914634,0.0265906432541076383213596,-0.0915446614287073884286272,0.00197191369699494922079763,10.7312847715314472196724,-1.66042199700834425257767,2.07258234663711693457344,1111.24487956629809559672,1119.87018463634763065784,1109.16966651579787139781,1110.01371621891098584456,245.636071282989945530062,-81.8825616990160938257759,-49.3662851298470144456587,212.895727192681306405575,155.170715536392265221366
33.8975000000000008526513,-0.393808699370580272969278,0.880612837463714437369333,0.392952610691008230592303,-0.100713629269786802966635,0.00321610976339733664608467,0.0679859009418560672477483,-0.0127027918620795012699665,0.000808095455190953174985646,-0.309307238550804997068155,0.950876477724639346256197,-0.0168583898993060546378508,-0.107871369281643925130965,9.80821756294420410426937,0.0262333494876880908563965,-0.0913088371696975653613038,0.00193651633682274579816018,10.7312079661147770082152,-1.66064275690788121231378,2.07259380372941137693488,1111.74651135928820622212,1119.47229204967356963607,1109.02692777768947962613,1110.62424086842656834051,131.766365542154545664744,-208.323483504598982563039,-42.8048356614388509910896,234.852434223862331919008,155.173896459222561361457
33.8999999999999985789145,-0.501470780093632662044456,1.00176521141443530815707,0.504107214805863734774505,-0.101731774208137559778464,0.00626842058822016118951881,0.0689122972194269184376125,-0.0128064818156468588489227,0.000849518221314585967977873,-0.309201732907178283848992,0.950909311904444609631071,-0.0154523891298985679987332,-0.107010467374989093336524,9.80763194043722563719712,0.0258750266372150226901194,-0.0910704410143701320601295,0.0018964766913787259924179,10.7311314994683968393474,-1.66086364305573019883866,2.07260578627071501145451,1111.9037113940082690533,1118.8285672188255830406,1108.95564233749087179604,1111.18797839002922955842,26.982714142500135778846,-306.821013150581563877495,-5.09161744043661723679861,235.119220996346257379628,155.176495063748120628588
33.9025000000000034106051,-0.595510869548771637482787,1.04268003413722665229102,0.560177917138407033270653,-0.103230449452787836905898,0.0101266153871227941596356,0.069959626445901770819269,-0.0129209544655970853116456,0.000897116655025853538749092,-0.309085849115547539600612,0.950945336080798342415221,-0.013555677054320335039872,-0.106169609204084747222652,9.80720901066050210204139,0.0255178485498966135802679,-0.090827921935702354838682,0.00185186893630021596514335,10.7310540182082956306431,-1.66108488578063995255718,2.07261802788708093814307,1111.88142493000077593024,1117.93818698391987709329,1109.00146969048728351481,1111.79983697340890103078,-26.3240677651858199226353,-378.244349555313647215371,47.800976129859108709752,247.075850126121650873756,155.179038688564560288796
33.9050000000000011368684,-0.667922815435772143644044,1.0110820212835998077594,0.563162836569045199830441,-0.104969663213034622439856,0.0139425906776468235687139,0.0712248572932408369196011,-0.0130473453120185031717249,0.000955419601129423794010076,-0.308961307238014071252508,0.950983972404297883684876,-0.0112726486719334495489875,-0.105409309375799592478629,9.8069359368100563756343,0.0251651204963454604157658,-0.0905790244825291218644381,0.00180319181102144552621136,10.7309747028800828161366,-1.66130614811045385081911,2.07263117431905774523671,1111.772091055182272612,1116.93734547104804732953,1109.19464721814028962399,1112.4233576406604697695,-57.5698848026218641393825,-401.329328245493627491669,124.817299751862094581156,237.789749027467934183733,155.181535852802795716343
33.9074999999999988631316,-0.704773537395243954151169,0.905735688848764430858296,0.49073403967981599205217,-0.106729028840432421665341,0.016886503419837984446561,0.0728952190658842397175121,-0.013188872399979258837055,0.00103036284965288336794298,-0.308835394796555418039929,0.95102280362627800158748,-0.00873258442415098673494711,-0.104844015006151564106673,9.80679544643172640405737,0.0248216430772429524909128,-0.0903209415272902688132106,0.00175086216156005391141048,10.7308934828023829766153,-1.66152676126800069589251,2.07264538448435686746052,1111.59357550598792840901,1115.93154034269423391379,1109.62555618924602640618,1112.98878571854515939776,-97.9772839191308690942606,-414.890634887994224300201,257.349679526355657799286,208.716630538158455010489,155.183975647640266970484
33.9100000000000036948222,-0.698931619068099641012282,0.730624891903512763136064,0.30572665730910630887962,-0.109008866004586479903082,0.0191312632954813884034184,0.0753222975821155604769785,-0.013339878577841210102739,0.00111414803362214535030483,-0.308714165537003981665265,0.951059940914021018087965,-0.00587351061736442192628971,-0.104344936920040654015907,9.8067704194715812349159,0.0244923481437672174720888,-0.0900508441618927818472784,0.00169753574373686464543676,10.7308110464191628352637,-1.66174587218848679448513,2.07265921566382171903342,1111.28220463558636765811,1114.8628922966070149414,1110.48139561577272615978,1113.46694079335179594636,-140.849771186977505976756,-354.724911236553850812925,374.745519771467286318511,121.294225295315996504542,155.18683532206188147029
33.9125000000000014210855,-0.648058432115657390149011,0.574726752819751496303979,0.0723041739127154303723444,-0.110886218365922981088367,0.0200885761527075344667903,0.0773045351838379940501156,-0.0134949405484978291608344,0.00119843477232376110878931,-0.308598666484003525400936,0.951095119878469952290345,-0.00263243491411366964394247,-0.103789253837126838053706,9.80683967564766057023462,0.0241813629328218489267233,-0.0897662429541779549602154,0.0016463319798993383304142,10.7307273255237909381776,-1.66196349718930624916879,2.0726710844919207232806,1110.88932665005268063396,1114.15791578651055715454,1111.49928378810432150203,1113.5952568450220496743,-202.54226422107652183513,-236.841888656578561267452,466.303475320970676420984,-21.824236191488875391542,155.189160891284331000861
33.9149999999999991473487,-0.548158534679886511042923,0.438661004777914587116072,-0.218779505223962666971005,-0.112161381711613619693857,0.0204406063892877687404592,0.0781938070759123637909482,-0.01365480171360372585454,0.00128616840037411111173637,-0.308481241443758713582923,0.951130797952811968265507,0.000871009966971765525745042,-0.103241543002647179205766,9.80697528132756346508359,0.0238910859765783314956344,-0.0894652511851835585687809,0.00159945780818802354115993,10.7306408635721837185883,-1.66218000219951678175789,2.07268024288070984439969,1110.26949331448190605443,1113.67868285332519917574,1112.81291299237545899814,1113.35781961239445081446,-344.016989204743822483579,-162.514418668487081731655,627.229466985679323443037,-187.817305859556967106982,155.191426786071104970688
33.9175000000000039790393,-0.371031876070179067461652,0.317483933622804859187028,-0.578808948361882569244585,-0.113162029855884693763102,0.0205668545854457637811485,0.0770557110170559667050583,-0.0138190181903789614803468,0.0013788945699955248210683,-0.308352811426245820847214,0.951169919037468170053273,0.00452823892559506280264259,-0.102740065208984820976923,9.80714667996371858293969,0.0236233665947322112044215,-0.0891462880013379893595626,0.00155935150326478927026996,10.7305508030534184626958,-1.66239573640835280876615,2.07268621080657222677246,1109.16924170402808158542,1113.34534369316770607838,1114.63543112303432280896,1112.65617031572378436977,-468.859648812200475731515,-90.2502300100870655796825,686.2871136604680941673,-307.707832752091178463161,155.194078023413510436512
33.9200000000000017053026,-0.172064703962337306464292,0.253765262003507852117679,-0.839224498156241893731533,-0.113996908830058474304536,0.0206705722511391111473333,0.0745884436459554461817945,-0.0139863873527995338091889,0.00147838626611719549039381,-0.308210160797752263928118,0.951213543608333544909783,0.00821577631951017975375784,-0.102314304987788873280152,9.80732124324363319090025,0.0233804988720108901378847,-0.0888079841264712566140105,0.0015281466980918373497339,10.7304578622714554825279,-1.66261077458089534530927,2.07268948088705817767163,1107.92519507041970427963,1113.22743170327453299251,1116.24434856067955479375,1111.81928044863320792501,-556.293510545998515226529,-27.2208090669002764627749,627.606237316265492154344,-346.021363796849982463755,155.196232451524593898284
33.9224999999999994315658,0.0857691654214227244823476,0.219553685891093808280061,-1.00749984398975955812716,-0.114768239983115166724659,0.0209861087521693509549969,0.0713206255145139855766701,-0.0141502310201958823865365,0.00157972927733035029343456,-0.308059278357390553537698,0.951259840136427170520506,0.0118978900528173905937201,-0.101853824244693358380687,9.80746732225885153866329,0.0231654936498337932215819,-0.088449302545391753072046,0.00150817553108813749707107,10.7303642506462004746481,-1.66282481482900656999391,2.07269196932274946121311,1106.38777415130061854143,1113.20923964783332849038,1117.77346230961279616167,1110.92606349674110788328,-641.824447763648890941113,-0.5077769400491050078017,571.270568768042039664579,-329.667212624489991412702,155.198332641118923902468
33.9249999999999971578291,0.391601994261805363972684,0.197393049361305999989114,-1.07262407353751898497762,-0.115010369253032998515529,0.0215636827457149037046147,0.0676561355080253223892583,-0.0143049921029856919041379,0.00168198002897268711688938,-0.307909736621212237750456,0.951305799050915501524628,0.0154701998401526562287867,-0.101293377191873645859488,9.80755285690041667123751,0.0229807526887940011262046,-0.0880700249081336067336068,0.00150038845010035809535154,10.7302724746480038220398,-1.6630373173982724299691,2.07269594758149233726385,1104.71607283160437873448,1113.22489281857428977673,1119.10070140451716724783,1110.17094438551225721312,-659.193252920276108852704,6.39211248039501178652699,455.097297361675373394974,-229.533005341519015019003,155.200390584105861080388
33.9275000000000019895197,0.74319129417475604526544,0.17349852410159652404964,-0.998175093643770772189328,-0.114243908397560142709004,0.0224309694012283407371644,0.0636776671687362544327371,-0.0144492145313553834590214,0.00179327485608188862131751,-0.307771104004502582540681,0.951348335231949615575786,0.0186850957485948723779678,-0.100697335706009444278308,9.80754584107342886056813,0.0228273790496607217881397,-0.0876708736385661407952696,0.00150380743245937453442251,10.7301831706037624769579,-1.66324750245278329963128,2.07270270887858032438089,1103.09180788669755202136,1113.24120021023531990068,1120.04894879642233718187,1109.77839847003292561567,-642.137428608692744091968,5.55163311691728900143517,310.724561951087878242106,-59.6602133419914366641024,155.202401657904033527302
33.9299999999999997157829,1.18868479189193254619283,0.127321842989222389075366,-0.754664578629529070319393,-0.111893037938102041239929,0.0235599876468871802237537,0.0591492931247799419436362,-0.01458141849526368473422,0.00190848657339641068417246,-0.307646669811942496952639,0.951386416082633856738937,0.02154684696921694425642,-0.100045888279920600072437,9.8074189976437438076573,0.0227042628957089612229403,-0.087253501619785553411468,0.00151682226375338602072929,10.7300958934937700206547,-1.66345527475337462419702,2.07271202111550234548076,1101.50538568855927223922,1113.25265098415889042371,1120.65432421427340159426,1109.87264331880214740522,-482.506913936715591262328,9.08345068388287835148276,134.271214052054602916542,129.557421141389170315961,155.20476672587992084118
33.9324999999999974420462,1.55111735132726757946386,0.0701978949917461819696385,-0.451110097000249066212518,-0.108391706836438325711747,0.0243369541247412841944442,0.0563587208534724118380588,-0.0147012619474453463258579,0.00201617646777559013024361,-0.307531993781390289299793,0.951421504923458338787157,0.0241917928961289663281065,-0.0992977253821012567636117,9.80714976393029580492566,0.0226079306913273408996545,-0.0868202445661849370184271,0.00153729327288965717489277,10.7300104687429094241224,-1.66366114208620086145629,2.07272282690839482199863,1100.67927331701616822102,1113.28661746365469298325,1120.72030486668199955602,1110.42618557573928228521,-202.316961207485462637123,34.6098494713537832012662,-47.7418118088491141293161,297.087858436937381156895,155.206701919678238255074
33.9350000000000022737368,1.86962978210900931941296,-0.00162797677457572967374411,-0.101391505839884488171521,-0.103461797820826151284024,0.024634974265575725060895,0.0554064879131964047043191,-0.0148068349183798891183228,0.00211147360559009542729791,-0.307424227909465552777135,0.951454562244114177005372,0.0266337772563897158539792,-0.0984170309098751500131996,9.80672074195915577377036,0.0225342999761484544252177,-0.0863734131574532965069935,0.00156321330045267785704977,10.729926907785751311053,-1.66386583299646217959378,2.07273491412971688774292,1100.4938008825213273667,1113.42570023151574787335,1120.41561515522903391684,1111.35808261098759430752,30.3144388153968513677228,89.2315889997915405729145,-164.758551070697023988032,405.216358588924833838973,155.208605385970031420584
33.9375,2.13211061930541712072795,-0.0770912319866838557924638,0.23198760063039294831988,-0.0980842153876110844912262,0.0243103414525638918119999,0.0562848334105810130245651,-0.0149001171995021865213094,0.00218619487064695364880729,-0.30732438564769598565718,0.951485248806536842991477,0.0289833415466294597173658,-0.0974149899253774209650913,9.80612006831796101380405,0.0224792811261112328302669,-0.0859150100893913137856117,0.00159203741797279713782176,10.7298451328262434145699,-1.66407082616565338284431,2.07274676346340402943724,1100.83084551109323001583,1113.73277540865387891245,1119.89651211132809294213,1112.45226736868494299415,236.175581991016031224717,183.16560857882282675746,-239.651110875583668757827,434.238494762880009147921,155.21048648413150772285
33.9399999999999977262632,2.31379686209189250334362,-0.146802902757930509025641,0.483183300790880121411419,-0.0927059688494760725241406,0.0233726844426333790760708,0.0590734994611744959613908,-0.0149831517561720070630393,0.00223865263036861477513595,-0.307232846152612482093502,0.951513418058442472791114,0.0312432724801802799707851,-0.096336634457064196368492,9.80534197579546962231234,0.0224381051472602767449249,-0.0854469097845348968256474,0.00162133819965067267621084,10.7297651819665471606413,-1.66427700461154959299392,2.07275777439683839276086,1101.67467879247533346643,1114.34152827440902910894,1119.2173596008522054035,1113.52927508480001961289,440.931851851248211460188,356.149989203140364679712,-322.726011237017189614562,421.921390278350997959933,155.212345329317713549244
33.9425000000000025579538,2.4268647722100467056805,-0.22019671149034988899551,0.636790186004882130532678,-0.0860510623626768444971447,0.0221639928192827011244059,0.0633203027179969069049292,-0.0150579758480178550750228,0.00227533449013721245091091,-0.307147334731676657781918,0.95153976543968521450978,0.0332780031404903975378318,-0.0952692127166566704588035,9.80438702030153130806411,0.02240525724869913901105,-0.0849710494596686849444467,0.0016487349927910577036122,10.7296872006147427924816,-1.66448443907013743370271,2.07276846376316070674761,1103.03550477035059884656,1115.51352535467049165163,1118.2828820551421813434,1114.56187432007777715626,522.253975472727915985161,507.189346281042787722981,-361.793323415119175479049,313.450761373654756880569,155.21455624250862115332
33.9450000000000002842171,2.4241765294901465033206,-0.279000385682803164755228,0.632388383679834409356602,-0.0799430285494362735665419,0.021395707503912342328789,0.0665041505814453204337156,-0.0151282148450460670469075,0.00230796373979542729024117,-0.307065619093922492766069,0.951564939671771248264065,0.0348784372717901025584553,-0.0943541584539202699000171,9.80326196398218563388127,0.0223753324975617638725733,-0.084489447760653216268345,0.00167156617033047865186757,10.7296111233190831768525,-1.66469211007198558682774,2.07277963152745181574232,1104.2859486698403088667,1116.87747500581554049859,1117.40839298377568411524,1115.09652889166909517371,494.278273955473423484364,614.64697564957953090925,-372.107001080050508790009,140.609053634298646784373,155.216386589707099119551
33.9474999999999980104803,2.31065147823399952287104,-0.349102277745079292436969,0.512263634486720964567041,-0.0732426231745154504571005,0.0209369407049147908395081,0.0686581420829722455234645,-0.0151969317880513554025468,0.00234985058038365227789379,-0.306987703122404698152792,0.951588871624227006229546,0.0358168304737915554891714,-0.0937250333915584377120211,9.80198017213402117420173,0.0223437370584833316922158,-0.0840041847073626363195942,0.00168732014353687028926365,10.7295362443574777699951,-1.66489832206833465733098,2.07279253960595788441879,1105.5068961401257183752,1118.58676023291559431527,1116.42234704974362102803,1115.26491958824863104383,514.857172413813145794848,795.863702630642706026265,-455.465574538305929763737,5.52438339795743793558813,155.21820947883193753114
33.9500000000000028421709,2.04853751314167453756454,-0.46089919205722312822715,0.285683269410955675837727,-0.0652834602840971778281443,0.0205577710976370606199559,0.0699316331801885654462225,-0.0152640275446506417517112,0.00239789004582948274760246,-0.306912593630096375285632,0.951611893421788090918767,0.0361665299660456074359871,-0.0933507923019193663893844,9.80056255426141120778993,0.0223063574689155059982415,-0.0835174891828763393819557,0.0016943887774294402823877,10.7294627378194640243692,-1.66510203011667679007246,2.07280655745626685160232,1106.86023453191069165769,1120.85679351897078959155,1115.13106511108298946056,1115.12415080865889649431,476.210837892296808604442,828.205272204590187357098,-479.284599877865161943191,-88.303355063408460523533,155.220393792913711195069
33.9525000000000005684342,1.74415681343879547249287,-0.580958880058968785142781,0.0718863372651720872186232,-0.0593928769509621465316762,0.020139375113951210605201,0.069976614745859339050682,-0.0153248536401710110793628,0.00244420382553493364258257,-0.306837854822180400304887,0.951634884833238325896332,0.0360751923889212275375904,-0.0930806129505273860402781,9.79903626934107130352913,0.0222594343891720398975753,-0.0830316148494983086170151,0.00169236489110907760771707,10.7293908585557762336293,-1.66530332137257275348929,2.07282081865650313901028,1107.88795032958842057269,1122.72778659394066380628,1114.02592405035306910577,1114.82340281293136285967,392.845309943634561022918,684.63298084483051297866,-423.273983211468703302671,-132.187156456695618089725,155.222214755014448428483
33.9549999999999982946974,1.3960500086842992928382,-0.720974658423091385728299,-0.118646372240402114828228,-0.0551705674534467283010031,0.0192451240316955790587983,0.0690937184417608485365037,-0.0153814470263285499318506,0.00248201900252472025532047,-0.306762955846991314245997,0.95165800124897603762264,0.0357208617607823117334753,-0.0928897341530074832638419,9.79743091817231892548534,0.02220012696071675672993,-0.0825484987971759204272715,0.00168016544558964825255287,10.7293202191162961867121,-1.66550317474967290998222,2.07283507761255902934749,1108.82446108162707787415,1124.27995842319182884239,1113.01469519502757066221,1114.46321502637601952301,359.574618617168880518875,522.916125220086428271316,-366.613664264917815671652,-137.619384244565111430347,155.22403945758298959845
33.957500000000003126388,1.05774632148534064590706,-0.861932919435280164854873,-0.260669461181574024788432,-0.0526387712364386473051781,0.0176708428431284030046822,0.0675536725154893130662614,-0.0154348313614583888125908,0.00250198957994955889852506,-0.306687538504390067028993,0.951681367471767236665414,0.0353324442441557695637755,-0.0927145511684087375581242,9.79577950473176173318279,0.0221262293599928036580415,-0.0820696423215960535468838,0.00165743104438346154118344,10.7292508694128265744894,-1.66570245885903345239853,2.07284850051268509929514,1109.6858234226751847018,1125.34236722004243347328,1112.192855729027542111,1114.13530589170818529965,320.84837703193397828727,264.033207594140094442992,-259.782384579379026945389,-111.248264546145421149959,155.225868787765335810036
33.9600000000000008526513,0.787238709585695084491874,-0.977683142593740450720929,-0.32372502225894983496346,-0.0518808460838716192786713,0.015042309005903531371473,0.0654852890328097014815967,-0.0154826146741440257709188,0.00250242255378096923809639,-0.306612299783270259023737,0.951704804767122158892789,0.0349823945176399309087145,-0.0924704457986092742682871,9.7941172640114704250891,0.0220363346087879413692789,-0.0815960184529523346874669,0.00162478072892947140136444,10.729182196090892631446,-1.66590118236331652390447,2.07286026060421013639257,1110.42870296678756858455,1125.60012446116320461442,1111.71578327213001102791,1113.9069737036450078449,284.579865866393959095149,-99.0860456140572694039292,-115.469060978344231216397,-73.0509017795821335994333,155.22770465722140897924
33.9624999999999985789145,0.593469291533928355875105,-1.0554538832031878925477,-0.306321059994595745745727,-0.0522190795908048580042937,0.010803140332428519745922,0.0631574896461020163229705,-0.0155239314836359536958765,0.00248616028071157535786484,-0.30653825745165469429665,0.951727998779155703878985,0.034672441058041181261018,-0.0921263810855651177345038,9.79247957659227274973546,0.0219298132699842322768102,-0.0811281274605911706387928,0.00158282848336075776876641,10.7291136696108324599663,-1.66609878108916076300261,2.07287067817943304604,1111.10872275200586045685,1124.84693699197259775246,1111.615510424136346046,1113.77005138281060681038,199.336322159604492298968,-446.932970042142756028625,38.01986600958900197611,-31.3808499733407622045434,155.229915361005339491385
33.9650000000000034106051,0.555377407967456160342579,-1.0567890518828610968427,-0.231163865161198384123864,-0.0527189157054279225467219,0.00700696907053057968517429,0.0621954062274618288408412,-0.0155557672795065826676364,0.00246110745705096839106019,-0.306466768135655209803758,0.951750550295946240453304,0.0342994110099261451107822,-0.091640776632123235878602,9.79090168231965662926086,0.0218068148098911895882424,-0.080666010284912201266927,0.0015326126233890470171306,10.7290454657863225662595,-1.66629460251300121065299,2.07288125857240723703967,1111.42538457758610093151,1123.36545961095134771313,1111.90588260217805327557,1113.75006945377822376031,57.2752206076236518583755,-732.329083133834615182423,173.166065911666549936854,1.25109888253909606881109,155.231763245256530581173
33.9675000000000011368684,0.63024111067158372634367,-0.997361433931604923763814,-0.125784162973436364207913,-0.0523652071987716627443632,0.00390925024590292602422181,0.062565525093567983527798,-0.0155809436865534684663048,0.00244223012966898050946085,-0.306398958345406036141156,0.951772013444983855379178,0.0336637017757516476823554,-0.0911235977234863270268761,9.78941575978418576653439,0.0216681196965681326094266,-0.0802092777682126834015719,0.00147418223906829065107671,10.7289771813223957508399,-1.66648844894983705344771,2.07289311084022243036884,1111.39509885504412523005,1121.1852915763015516859,1112.48134075369512174802,1113.7763068772233054915,-104.84017354897773088851,-1048.04048015889566158876,281.727689754035736768856,8.25312502248221235845449,155.233615093889255831527
33.9699999999999988631316,0.801818760891955473191217,-0.881906804000349375805001,0.00280453096649819696994932,-0.050513974072645344282062,0.0013583816126058214073663,0.0634662459369266518383057,-0.0156009484643621233052047,0.00243005754534456486909422,-0.306335832290724641158164,0.951792031324263931857388,0.0328247112995103326738011,-0.0905748994845693294886146,9.7880529392341149019785,0.0215151481345764797326048,-0.0797570056010152433900728,0.00140808366002787748241798,10.7289083182087221501888,-1.66668091679699514884305,2.07290547832022875596181,1110.90118370984168905125,1118.12525721016163515742,1113.31452105094695070875,1113.79133507889059728768,-254.340704435259738147579,-1133.2939114131136193464,297.625244779994829968928,-5.84056452830438033174687,155.235838717110851803227
33.9725000000000036948222,0.968633263495954910382579,-0.771524582877646580847397,0.0999945082116360378643449,-0.0478638191858428707625706,1.74070579104248901035779e-05,0.0638627063101618458462738,-0.0156175130877962003994597,0.00242043215061950658939516,-0.306271883723325755166655,0.951812352551073659334691,0.031926961191194223876888,-0.089973705248239610465788,9.78684158088557865085022,0.0213487069463404281755015,-0.0793080573710319147728853,0.00133515070826009988290417,10.7288383078697791006562,-1.66687307745213053600253,2.07291717852817836131862,1110.12339533286717596638,1115.51882201923308457481,1113.96946697759585731546,1113.74710405458176865068,-368.279901099179198808997,-982.255236809621692373184,215.109024861139005224686,-35.7318398512506050224147,155.237690462591558571148
33.9750000000000014210855,1.11099456478512381707446,-0.666574844512073827473841,0.183056545709005813460379,-0.0441672016011507226340704,-0.000952266654634037739562968,0.0638555110739549569576212,-0.0156328287624158505930705,0.00241339317543796992929228,-0.306200174586867879256147,0.951835173319690919235825,0.0310336916194895555409783,-0.0893364307352357833735823,9.78580598231552833965452,0.0211696879557706357788405,-0.0788610033565092516383288,0.00125642097375607475137627,10.7287671395972381560568,-1.66706524529842270432312,2.07292775401447526562038,1109.05978420434485087753,1113.21398102611101421644,1114.39006617525319597917,1113.61267587963425285125,-450.334362610374512314593,-829.213044667975964330253,102.688079243628351377993,-69.8437381658730771505361,155.239538221276063723053
33.9774999999999991473487,1.20705287986689469015289,-0.572306783625857407038495,0.251634274358288390072147,-0.0398973606722370019439516,-0.00196257707391792306922396,0.0639512411668422681154667,-0.0156452404426782494539783,0.00240838666533963732460655,-0.306117571032666069275052,0.951861533382009628034837,0.0301884375473014353319368,-0.088608860924868276809363,9.78496703537696710384353,0.0209798556855139810284339,-0.0784141065155754546367461,0.00117378051457130692415698,10.7286953310244488335456,-1.66725721544809846186297,2.07293742929735502755761,1107.87172351981735118898,1111.37275679589697574556,1114.48290737381353210367,1113.39788536375272087753,-475.921759881868922548165,-594.209790684286190298735,-66.7964472718835367004431,-102.706709375699787756275,155.241380891977513556412
33.9800000000000039790393,1.23652173050914893082108,-0.489041866343118580839899,0.293740449352115184922241,-0.0358048985456728210974298,-0.0033206625353419537589883,0.06470230721224518033452,-0.0156592706992614016936471,0.00240401206721975154237403,-0.306026492725719578835708,0.951890586631715329701819,0.0294784836230194656481185,-0.0878520068320837177466842,9.78433965997801102787435,0.0207820773106256219409094,-0.0779655080899375046987743,0.00108820965569626695174099,10.7286231252635744226609,-1.66744887741417557869283,2.07294629642872862973491,1106.68017540493428896298,1110.24293207268806327193,1114.05608393889360741014,1113.09914233275549122482,-495.092961644214938132791,-322.364945749740115843451,-324.868798140111948669073,-144.832552005226290248174,155.243215516143379772984
33.9825000000000017053026,1.20691516403609044871814,-0.39639393994646865415632,0.299386168114322004374372,-0.0320382635564195675237364,-0.00539386010932576751009115,0.066352084449102718965996,-0.01567369824021246776935,0.00239419387970206311994081,-0.305931132297525776309044,0.951921024261736747895668,0.0290341874455168277857631,-0.086997099561379548360307,9.78393542804304416904415,0.0205796538348587861044781,-0.077513556852167486699301,0.00100164687114333511921971,10.728551318968968075751,-1.66763979120556560253874,2.07295417400580772593344,1105.39625871159501002694,1109.76093206714745065256,1112.85856338311214130954,1112.6737226037262189493,-434.126821647518340796523,-41.7694483617576821643524,-552.455653181461912026862,-163.131754659037255805742,155.245405595046122471103
33.9849999999999994315658,1.14654587295818299885752,-0.326827896965369679715963,0.261704598754741668553692,-0.0299086169206153433541839,-0.00711544542836714880018611,0.0678535707722067865654836,-0.0156850431782908014688438,0.00238139260418190629869928,-0.305836175995063241916938,0.951951396330698251802005,0.0288033708733159803105917,-0.0859895545260858928937608,9.78376083221339776230252,0.0203760657527682388645562,-0.077056992154247924697863,0.000916192657965483013560171,10.7284798153261995423691,-1.66782883182566754598497,2.07296119805040079953073,1104.50954129669867143093,1110.03408483087946478918,1111.29380567298881032912,1112.2834835594610467524,-312.68088539656008606471,221.521352922874513069473,-727.314763974552420222608,-161.86508615224909135577,155.247219731385371233046
33.9874999999999971578291,1.06676230813309014244794,-0.279979208805798407411203,0.186771098643610827805261,-0.0282742791083037577071213,-0.00790464766836247029191398,0.069012993629547825236159,-0.0156960818352910903838993,0.00237531263909816639859351,-0.305745630256874290076041,0.9519803457484176112402,0.0286263004560391130792762,-0.0849395159548054085041358,9.78381569279377139025655,0.0201747835149800047727098,-0.0765949840535921494533156,0.000832671801504584162267886,10.7284078112018246287107,-1.66801480344564190261281,2.07296863592204561044241,1103.83285428461363153474,1110.86853883176081581041,1109.22198956324268692697,1111.8643971729657096148,-237.214392986167297294742,399.336592553095556468179,-891.756720407100488046126,-174.396078780457088441835,155.24902112627282235735
33.9900000000000019895197,0.973338222266992847409028,-0.269485388303148498678752,0.0953626417034969114938647,-0.0265348724805834386419878,-0.00758798678131410858638262,0.0697554971677374485716783,-0.0157055814827558280766251,0.00237260405304014557192893,-0.305661007021394814930915,0.952007408775572661063791,0.0285527661650710369578565,-0.0838086908932081653400559,9.7840969738641518915756,0.0199788862248180265623887,-0.0761270459096442253521531,0.000752458449362407863839075,10.7283355068551973232616,-1.66819714799499640989211,2.07297675618041221667909,1103.32346933176722814096,1112.03076779364596404776,1106.83502207095102676249,1111.41150316555831523146,-164.256730941731433404129,506.690284007813716016244,-998.942271237627323898778,-194.772516450976070245815,155.250811040050592737316
33.9924999999999997157829,0.853263837186622131625313,-0.317022706475273696735684,0.00944179195754259181772028,-0.0242651254234343416449349,-0.00667936703262079350951197,0.0699683971595478626515074,-0.015716256440302424357558,0.00236437656093582432986766,-0.305581202371498716896525,0.952032910034857016157162,0.0287503587207921379453879,-0.0826032484701808289440095,9.78459696023478642246118,0.0197907792985702914168034,-0.0756528641449055461176698,0.000676253586064964927818122,10.7282635228715150788048,-1.66837693846635448657878,2.07298440039213627272829,1103.01157062990455415274,1113.40199025180118042044,1104.2272782070519951958,1110.890534590710331031,-87.3670863995242683586184,601.20798185507851485454,-1153.20116176490341786121,-252.331767859188715874552,155.252585946444753517426
33.9949999999999974420462,0.660003079708002537984157,-0.433026822973403557881511,-0.0501170763286514844847552,-0.0210034293364205169873937,-0.00616199469400042533495654,0.0696272398891351201877242,-0.0157302705254550624636156,0.00235108337361410310237253,-0.305505461348941964594417,0.952057046896409575609255,0.029200911178719667071757,-0.0813787955834993220749496,9.78530365211698160976539,0.0196124143262241430740733,-0.0751719920598140356471362,0.000604735064101948049941626,10.7281917118978604719359,-1.66855539613913528285138,2.07299174576553779658639,1102.88663389977000406361,1115.03680770291862245358,1101.069016262131754047,1110.14984432626351917861,1.84056073626285487954135,560.60065438349249689054,-1127.87363896037777521997,-293.276103280445624932327,155.254696743042813977809
33.9975000000000022737368,0.451706130107810077678465,-0.551868353904875541537933,-0.0372169912213846654225335,-0.0184541654597155345418624,-0.00693255864278271866779635,0.0688700664056142719537945,-0.0157478859792736583522732,0.0023328237354168827009937,-0.305430754202471621550075,0.952080782511240619747639,0.0298745951204803274203758,-0.0801565741166945233686647,9.78620221070102935811974,0.019444826619254184513208,-0.0746838688352578078388788,0.000538834584179438734821699,10.7281197860084791528834,-1.66873364226048592762197,2.07299866939982324609559,1103.0207734335858731356,1116.20499352372007706435,1098.58791001224722094776,1109.42415407430735285743,109.83690346746536192768,386.418269170992630279216,-918.44090272287155585218,-309.125095484638336529315,155.256438373754264148374
34,0.204747132641965506882897,-0.646963068896476922731154,0.0643728528834784791134993,-0.0169785104526882432707247,-0.00924979811810927761428491,0.0677080861371480158261704,-0.0157700771964725122709083,0.00231282836344889669230596,-0.305352557323823325940992,0.952105543474603854825489,0.0306819924119949641316829,-0.0789925390824718354210177,9.78727481566825474601501,0.0192882530640384533549003,-0.0741878673474356126193996,0.00047926806437985445402683,10.7280475663956664789112,-1.66891202701580732004061,2.07300498144919842502532,1103.43581841710761182185,1116.96889904877457411203,1096.47681174851504692924,1108.60421884883953680401,249.351013750946862046476,208.142811084651981445859,-797.059363956529523420613,-369.731111388655108385137,155.258160010118615446117
34.0024999999999977262632,-0.103992971100956566044005,-0.684517341929130385125291,0.296401780471142850537092,-0.0167621086458829213206023,-0.013003695168815415650343,0.0661595090649374079072587,-0.0157953771395445523306744,0.00229012204571366409511235,-0.305267165162107612097486,0.952132546974429283537233,0.0315933626075117074405441,-0.0778742058581422258445315,9.78850241740272863921746,0.0191425459960319135910289,-0.0736833750854242325312171,0.000427020438880803404613218,10.7279754000086207099685,-1.66909037350009836764286,2.07301004229203389428449,1104.26752850233947356173,1117.24570757914239038655,1094.60261319246819766704,1107.57549851736575874384,356.027498320463337222463,-17.1438844994466812465816,-549.913083768242927362735,-371.727736428366256404843,155.260200274575424828072
34.0050000000000025579538,-0.342494443049045471649805,-0.633440372498583315064025,0.566192890989249630884217,-0.0179079598072796469798718,-0.0159328234157550992222685,0.0652491646568803956851568,-0.0158274452376822201415951,0.00226641608034060379125996,-0.305175276062314315694834,0.952161507231609194334965,0.0325566858770727773908504,-0.0769023802532309147528267,9.78986354485517651369264,0.0190077523940707718286269,-0.0731698603433242472648956,0.000382010725023112845608053,10.7279035606116135426191,-1.66926829722694614055456,2.07301383411298045800208,1105.21595590871083913953,1116.88317962627729684755,1093.72724632967242541781,1106.74558016669675453159,420.060605923812261153216,-263.903317537371151502157,-187.505970631668361647826,-310.410761493699624224973,155.261876988714988101492
34.0075000000000002842171,-0.531754037870520002151409,-0.499244900818873016401511,0.866289367170521518168869,-0.020111804839944846801103,-0.017956880343961360846361,0.0658326280377245914854356,-0.0158675529525761846438847,0.00225243444191096896245252,-0.305079877629141071881946,0.952191419300915886658743,0.0333365938360972169363095,-0.0761879120197375692136177,9.79133625274452512599055,0.0188837906706371752574292,-0.0726471003224983952195615,0.000344045844845340892739771,10.72783251827083361718,-1.66944493965705120785969,2.0730179111830620009016,1106.36783153195960949233,1115.92619099145485961344,1093.66508333930937624245,1106.02344470989646652015,480.847214450278329422872,-464.404024941827060501964,112.484659039921538692397,-261.065521750298159986414,155.263526558939787491909
34.0099999999999980104803,-0.668909011962510846593943,-0.311244558683784589003807,1.13469202385775891350761,-0.0224940070115930250416181,-0.0191526280551079577940676,0.0685971915397338150022222,-0.0159119087491893206054439,0.00225015817138125894317224,-0.304982136268394543598959,0.95222196401692271727768,0.0338315406921826794528485,-0.0756945491735623171569713,9.79290033757857258933655,0.0187699010318741164871081,-0.0721153710274407971914101,0.000313301862239336341084406,10.7277623089022711155849,-1.66961970898000600094235,2.07302225813552309929833,1107.62019198096004402032,1114.56115950157027327805,1094.28966962487152159156,1105.44025255794645090646,504.490671187992347768159,-609.730970463903759082314,400.986961609646130000328,-191.817673808729608708745,155.265151376459442644773
34.0125000000000028421709,-0.74547732905137231718129,-0.0835078023018160642276797,1.29066690086290103423039,-0.0245620732989319315309196,-0.0195320678112877593735064,0.0738818999634185402669573,-0.0159610005113083423811116,0.00225396349977691938873403,-0.30487990439259821107143,0.952253830964561176486427,0.0341103019476576355129005,-0.0754190549218319988833414,9.79453603525294447251781,0.0186644444569083710339097,-0.071575458541526443267955,0.000288948596185291482069113,10.7276929543625403340457,-1.66979313283058372618939,2.07302701335903316604004,1108.89028488790086157678,1112.87753613913378103462,1095.67001814735863263195,1105.06435634085232777579,533.502135425305709759414,-758.361655484507878099976,742.881605797794804857404,-112.230950369291235801938,155.266743390481281039683
34.0150000000000005684342,-0.782488215068518955241927,0.202393982954331530521586,1.28168739072600934569834,-0.0267195563866630229898913,-0.0193518664865160380794684,0.0809571555715655477580839,-0.0160154067327175110568849,0.00226287601081251107948411,-0.304772270604113437730831,0.952287305933588124062794,0.0341593168276838193841982,-0.0753856981608099496749986,9.79622474010451860237936,0.0185655703285633848220737,-0.0710284234605976783072379,0.00026977162615061793006499,10.7276247829307145309485,-1.66996563759571770013679,2.07303338442547291364804,1110.28770265808793737961,1110.76935122414579382166,1098.00407765386239589134,1104.87909780609970766818,470.600159410124092573824,-744.858854826584206421103,929.389429202164478738268,-22.3081444136571995784379,155.268611750716530650607
34.0174999999999982946974,-0.780954080766995795137575,0.427455597263611208891376,1.0993475020777199180344,-0.0282365948152597974474265,-0.0185783810011264371997441,0.0859406731152454333999557,-0.0160768371684266164756139,0.00227878826205100016438765,-0.30466279772974780293282,0.952321223037996378302239,0.0339229166035504847709348,-0.0756544158688007839508316,9.79794927082590660916139,0.0184717582063769099331996,-0.0704754478672135614703009,0.000254207688120124467023864,10.7275581285466721226385,-1.6701372508461325150364,2.07304125300982500235136,1111.24328568494934188493,1109.15324186500424730184,1100.31696529336522871745,1104.95281561878414322564,319.09282639082493915339,-572.695655781697382735729,949.510593097071136980958,76.9555130697942502138176,155.270130422698002803372
34.020000000000003126388,-0.758196657647845828620348,0.611140482524101691375051,0.763634628280735583416572,-0.0294802328070085210842688,-0.0167299904696657855684983,0.089277819714355846625331,-0.0161446325378989154197829,0.00230594126476635959827055,-0.304557662182135591155685,0.952353616453809559416754,0.033293259794447416233254,-0.0762517074413485845818528,9.7996947088471841880164,0.0183816252273998302635416,-0.0699178879163388222739428,0.000241102107220238530069234,10.727492722181253270719,-1.67030735717629252867766,2.07305068127635694352762,1111.88316679004287834687,1107.90587294523584205308,1102.75163061935018049553,1105.26387537144887573959,195.968783618527396583886,-429.255693946750909617549,1044.04121831477164050739,190.48892400314147721474,155.271605187594019525932
34.0225000000000008526513,-0.710291371412358873982384,0.758576026610057407850718,0.250851989220298110527807,-0.0309411155161584822126386,-0.0135029790882703684684607,0.0913453416591255701328933,-0.0162108729508525506446404,0.00233549081381974679705316,-0.304459774847138375797329,0.952383712908886126413677,0.0323707543430929514660654,-0.0769864448374315557543923,9.8014501067977199966208,0.0182931793578586798787455,-0.0693574300784812053377593,0.000230747835930123195574692,10.7274286722313476616364,-1.67047518030905894903526,2.07306052234148241453227,1112.2231296030424800847,1107.00696339526939482312,1105.5371713849417574238,1105.90526023880033790192,53.2762581114668805071233,-220.412024247134837651174,967.828671307841318594001,277.275329988267230874044,155.273318954715051631865
34.0249999999999985789145,-0.647761510740194501600797,0.813993064915699449102249,-0.207322658407176035888497,-0.0323916883255652918172096,-0.0108212154441672623456094,0.091523852207502545685891,-0.0162698323928586949249642,0.00236016137495810227053816,-0.304367492001234807297294,0.952412156885943494977198,0.0312477217467139606332793,-0.0777135634097406435838451,9.80320575808236505110926,0.0182036560029031173335579,-0.0687960123134710582748497,0.000223533291703209482242931,10.7273663303614181785406,-1.67064030868557034104072,2.07306965824362210426557,1112.14954808059997048986,1106.80381282400117015641,1107.59077397588498570258,1106.65025202138895110693,-91.2978008564993075424354,23.3741762892685542851723,743.449569282785660107038,335.138059697884727938799,155.274696434078549600599
34.0275000000000034106051,-0.549003331873733624313161,0.807220560372021389561326,-0.620513426830554215563041,-0.0342684632518940532341922,-0.00880766224454541425681331,0.0900483987271210872815885,-0.0163210602860857229012836,0.00238281103699962892514264,-0.304277439071609145937458,0.952440025697797842951786,0.0298665723990092571438204,-0.0784428974554197966373437,9.80495174908985234196734,0.0181099405837336253910497,-0.0682354937599238958734205,0.000219472336911202565296053,10.7273059650249873442363,-1.67080306420361845987088,2.07307838283465750706114,1111.76664059875974999159,1107.12383427671579738671,1109.25441923135758770513,1107.58095053729061874037,-186.846496058428698461285,194.866525943862484382407,594.348595090164621979056,394.601425815679306197126,155.276016217324126955646
34.0300000000000011368684,-0.411842239032661316944228,0.760698242314251427131921,-0.940836083270964351754628,-0.0363910138973315491761618,-0.00703598416528087178961615,0.0871533733592112919152939,-0.0163692514394443572323112,0.00239386529246326390518718,-0.304188724150105949117773,0.952467537250521023572958,0.028439807777953757944589,-0.0792025941048809661859664,9.80667888204642324012639,0.0180092822986945982899343,-0.0676772278143189659482815,0.000218349291590704550417024,10.7272477451791861113861,-1.67096492920102579482489,2.07308592180678896710333,1111.21531560030734908651,1107.7781454537209810951,1110.56251695133732937393,1108.62325915046835689282,-232.967119988264101948516,308.179194986412937851128,440.537336732350524926005,428.843397848075994716055,155.277284175899893625683
34.0324999999999988631316,-0.229007837021128451970853,0.680384229014750596675754,-1.0937115641539596477827,-0.0381616746868569389761205,-0.00524055073774190235957882,0.082775511062870538170344,-0.0164180454777203069238745,0.00238664322515547058095597,-0.304098301759082034756432,0.952495610854546259638198,0.0271269334507224929575742,-0.0800149538482474442790959,9.80837872178150504964833,0.0178987317995334994924495,-0.0671220840733992435422905,0.000220373915100264281333176,10.7271917535099916563013,-1.67112734957860920026462,2.07309200712683061595953,1110.60180499881948890106,1108.66473025164646060148,1111.45710591501733688347,1109.72516752652904870047,-245.809333900898963065629,398.245338925995383760892,313.337599464852019082173,474.670848928174564207438,155.278485148048133623888
34.0350000000000036948222,0.0228608510356009889119555,0.562936717470088443526777,-1.04249287073885321674993,-0.0388084103550783848790573,-0.0032304765471110529970189,0.0766099144098010831349654,-0.016469262964651506381264,0.00236702274899813552497263,-0.30400443963921963685948,0.952524747964671347766341,0.0258480154500460856947797,-0.0809404519226206708992777,9.81004277009356684402519,0.0177758922994174332898876,-0.066570312297234965348558,0.000226032263888739128054883,10.7271371911452764180694,-1.67129069661104345811964,2.07309683636293851094479,1109.98626893080222544086,1109.76937214835197664797,1112.12920494866239096154,1110.99661339511044388928,-180.884460180230462356121,385.05878513536424634367,196.231127647015114234819,438.916753970718787059013,155.279844113086198831297
34.0375000000000014210855,0.23566548441510024036738,0.462406744034200067883233,-0.806221983253396667912227,-0.0381086833330973942524089,-0.00185712717247919832479208,0.0715309204916199786739028,-0.0165260432263314924195008,0.00234636557888952311870523,-0.303908118602491950088762,0.952554553493254352325437,0.0244332577342061714464894,-0.0820947450134769385332589,9.811662019593899941583,0.0176394400735305871552594,-0.0660216176260353670990355,0.000235504200724060948693439,10.7270830569710913238168,-1.67145462358904439703622,2.07310133322487022411451,1109.69738269791787388385,1110.59002417732426692965,1112.43826155325291438203,1111.91975129638376529329,-49.3883137485676257938394,290.587544339351154576434,92.8713953564900975834462,320.40487448945930282207,155.280905423631679695973
34.0399999999999991473487,0.423799138056936863794277,0.379567392222626254216777,-0.41695640927357524585517,-0.0368610727780098179628965,-0.000989123715983444579818995,0.067911491948982313782146,-0.0165886396645757751289185,0.00233863395189056475290124,-0.303811645514052042216235,0.952584255377391220243055,0.0226507051808948652038556,-0.0835532423604951612894354,9.81322787620835335076208,0.017489129841186976804801,-0.0654754267067235856680796,0.000249137105304498922796197,10.727027870337343173901,-1.67161790134352794545691,2.07310632958400598013782,1109.73932736205961191445,1111.22230987004741109558,1112.59356192544441910286,1112.59863776755628350656,76.1442350928129343401451,222.712316309821034110428,50.3059082240467461133449,219.838945571269817946813,155.281890658344082112308
34.0425000000000039790393,0.576110567773843174066428,0.326874696028189803964636,0.0309379720090661343434579,-0.0353511817299484096266404,-0.000518320999896869903135477,0.0668134667532954140689583,-0.0166512435398434160971348,0.00234382697982664757810345,-0.303715909403992678772255,0.952613669698704979005299,0.020496107385373257131489,-0.0851930419514948522596853,9.81473414735368976380414,0.0173254526635552817681596,-0.0649312034367572482596032,0.000267945997224291977342747,10.7269710163264981872544,-1.67177911925324029773776,2.07311125728133527346131,1110.07810387338213331532,1111.70358575887394181336,1112.68979109437327679188,1113.01894602424067670654,199.089397847172222100198,172.345692362708234668389,35.5177113645641142625209,100.418455836228091015982,155.282811866485246810043
34.0450000000000017053026,0.672597620906826509923349,0.325311590773435466150687,0.446307072806365334738388,-0.0334423015406302912011505,-0.00036644311868594506590921,0.0692879870785353124684747,-0.0167063007796868050192085,0.00235743745805166429393984,-0.303620119834709878414714,0.952643191979799741631041,0.0180408144153916191743114,-0.0868302119425010121567254,9.81617584937880316431347,0.0171493715782895794763618,-0.0643886245446921301471832,0.000292955332649351115129055,10.7269127410592606253203,-1.67193780797001534388357,2.07311601700772740741741,1110.73477435129598234198,1112.08403833186139308964,1112.77115048226733051706,1113.10073004673768082284,338.132465773595072278113,175.194319262732449260511,39.7906088886791522440944,-36.6133829048854906318411,155.283655590885899755449
34.0474999999999994315658,0.714739301520821435076414,0.391359712594120390249941,0.789792924905600601803712,-0.0309420872050973280731334,-0.000256857829457648545543741,0.0749093400846086721056594,-0.0167544012366413822001654,0.00238082943833245724157832,-0.303522606904427061369489,0.952673341435396281440262,0.0152954618776424029757965,-0.0884668433867109582635635,9.81754654915834912287664,0.0169621030927309714153584,-0.0638476315990863657612309,0.000323807689432046999847281,10.7268534949563409952589,-1.67209446179485365924222,2.07312102454613178537102,1111.76876620224857106223,1112.57955735518680739915,1112.8887441388164916134,1112.83587910971641576907,396.901506278479132561188,209.902398189305955611417,47.4398026393350278340222,-145.154389178101297375179,155.284579215457540612988
34.0499999999999971578291,0.687607968534834079754603,0.499539907838289387598252,0.897564912266557879405582,-0.0288541937473362659904996,3.27634084049985383358533e-05,0.0802094092068527803052191,-0.0167968168198521609901785,0.00241350608701088823609959,-0.303422204241671211732978,0.952704473736946888529076,0.0123090412199702674278523,-0.0901055846467026522184085,9.8188406690116654118583,0.0167650379449492820116419,-0.0633084094617585163566886,0.000359839552197993637998319,10.7267943435617318925779,-1.67224961395285176557479,2.07312626788227660767916,1112.71928188268657322624,1113.13355032280696832458,1113.00834949546378993546,1112.37495810084783443017,371.260636641082953701698,265.995282811309493808949,49.7592019153416984522664,-212.763808247910048976337,155.285276128821379870715
34.0525000000000019895197,0.601674987717105702600406,0.645838336318300010319149,0.816582362910688308588192,-0.0268384505441057186203579,0.000868523547071982284645264,0.0847222280886584661052652,-0.0168340392955115304707281,0.00245802428849409325753439,-0.303317963101499610267808,0.952736883455388761099414,0.00906766507014390363283773,-0.0917515866469944679773008,9.82005350310747715525395,0.0165595321787345602093655,-0.0627714225720230056815296,0.000400270068767825839932406,10.7267356285394921400211,-1.67240313348712010821373,2.07313186605098165316008,1113.62506938545493540005,1113.90953376924403528392,1113.13754014839332739939,1111.77206006847632124845,362.860404432463724333502,389.744948246225931143272,54.086889882155062991842,-270.304210077436380288418,155.285899496334536706854
34.0549999999999997157829,0.446696265875956954882753,0.831751700660866677417005,0.558538695608269630810128,-0.024770139959685445740778,0.00287306744294062383140997,0.0880326016906118891114374,-0.0168649625329222348224523,0.00250523164648223462327992,-0.303212790483531058338684,0.952769692520960775894423,0.0057652812122266187955244,-0.0933096747539735871246336,9.82118310322106324861124,0.0163473626688822488983721,-0.0622372607773049590917935,0.000444433701435666649037781,10.7266773285681296101757,-1.67255410458561137865274,2.07313752285994246093992,1114.53358390484982010094,1115.08227506403909501387,1113.27878394487470359309,1111.02343705045996102854,289.878326142970649925701,454.273728094862462967285,46.4222510830463050979233,-260.56539340439536545091,155.286564976477109212283
34.0574999999999974420462,0.292807933134541342745649,0.966081454227298741521679,0.276774206878214856786258,-0.0237050814724318048565266,0.00553150001305603971485381,0.0881838188510521842067291,-0.0168866304578115314360964,0.00254970527932150275995937,-0.303111079147408701839339,0.952801574109845117455109,0.00251345248120234121547156,-0.0946716124036903056149228,9.82222891393909769419679,0.0161302911324740505527586,-0.0617066403302264643304653,0.000491736153699409532513709,10.7266196546508343345749,-1.67270173650995812586473,2.07314384192652134686341,1115.07446101616847045079,1116.18090240971628190891,1113.36965140380834782263,1110.46923310145552932227,158.861324606241964829678,434.5889876317010589446,29.2837080231797948215444,-192.900070261604469123995,155.287052583498422109187
34.0600000000000022737368,0.140524977835966236039411,1.04783196955547652784446,0.00743979030834501786628721,-0.0235190360701683850996879,0.00900626528708265219891338,0.085754547280102733086693,-0.0169033646768936458848476,0.00259645924972101878325237,-0.303017050274619115235453,0.952831091735964808009385,-0.000729713599965219755771884,-0.0959270057295030509347811,9.82318876895764780954323,0.0159097200343876997441495,-0.0611802783837197827754295,0.000540507505308788160046374,10.7265624657255340679285,-1.67284628906652699242841,2.07315130234129307851276,1115.32789052788143635553,1117.25522000219871188165,1113.42520248499067747616,1110.05893669915144528204,45.2391551205660604750847,401.479650825898886523646,17.5218477705949631229032,-137.055477235228778454257,155.287472933058666058059
34.0625,0.00927312558364591123238885,1.07230638132859623645743,-0.212504689147590825060163,-0.023850243244688307947543,0.0125662210177767599134091,0.082438083936216668967667,-0.01691722089982953050602,0.00263970802295475847829009,-0.302932547027332299549585,0.95285762957504027692579,-0.00381849430974947473549364,-0.0970582804979444185855542,9.82406321823169648155272,0.015686340927948228679556,-0.0606587192713841857893975,0.000589502564196867388443546,10.7265060342833571382926,-1.67298910625036345578565,2.07315951326356096018344,1115.30065679177141646505,1118.18830066384680321789,1113.45726064266136745573,1109.78395571527903484821,-87.6029177996657466565011,316.708703354121723805292,11.8132635776526626614213,-82.2272659416578193258829,155.287839221332433226053
34.0649999999999977262632,-0.0791869294259608391683969,1.02693936904558702494228,-0.370201148001347513094572,-0.0244440574800025983703833,0.0156248249052008264525782,0.0800329800232275068161414,-0.0169296142343884452319269,0.00267438601311064576629417,-0.30285425287700712404515,0.952882226540572752071512,-0.00662499509809903047719004,-0.0980397674021508958031035,9.82485358906174610638118,0.0154597241651531162182076,-0.0601422868357861239996254,0.000637738675762059155881223,10.7264506352208570660878,-1.67313165864588642151034,2.07316799987449140729723,1114.88987593888350602356,1118.83876351896788037266,1113.48426880287888707244,1109.64780036944353014405,-276.072218095118557812384,208.435966387453618153813,19.4663982600914557963279,-40.335057980998783477844,155.288142433241318940418
34.0675000000000025579538,-0.123506227627380338329743,0.905660249244866100148954,-0.529620457287898638298884,-0.0253149221665247559087675,0.0186734830542911178774546,0.0794358007645512564920409,-0.0169434512441519018188796,0.00270265289336560484909078,-0.302777616619588962887377,0.95290627289681406608679,-0.00914846716627773504093568,-0.0989172819254568874702827,9.82556009070507130331862,0.0152289172761362959218623,-0.0596309482976006416388159,0.000684256962638649188918061,10.7263961776399803227378,-1.67327451005310456899622,2.07317673175317507272553,1113.92029570129511739651,1119.23048049578460449993,1113.55459263396187452599,1109.58228042537393776001,-432.601752608940557820461,83.7074824156415360221217,37.2659994511005052686414,-16.3862502170020718494925,155.288436149596265067885
34.0700000000000002842171,-0.10685660411749249576463,0.764468416941628703398237,-0.676216196743631758891979,-0.026029300334585645654295,0.0206808134455678423180292,0.0805701597135249775183397,-0.0169589508258808398244444,0.00273123934565614205280393,-0.302703060532616030631203,0.95292961741309978318526,-0.0114909168116163820649867,-0.0997154512792818858990529,9.82618237445164410814868,0.0149934122330396320948998,-0.0591242121560357214438142,0.000728695461871898381676915,10.7263422471272082958649,-1.67341719575523972807218,2.07318642324739554894109,1112.72686717583769677731,1119.25730093104630213929,1113.67059880013448491809,1109.56586911835847786278,-542.010396513380328542553,-30.4147379646841855560524,57.9128001209100276014397,-2.83968052977146712123613,155.288624510840492121133
34.0724999999999980104803,-0.039870834375818349493148,0.601815202811216143352624,-0.856073964093834849364839,-0.0266289635549031636352346,0.0220557284132089359562912,0.0817572443961129408096511,-0.0169785289461639246622049,0.00276784955755241240255016,-0.302635354090479369304489,0.95295068580679320735527,-0.0137605317667389426272706,-0.100508409178521218585445,9.82671842299455811087228,0.0147532315674654482262618,-0.0586212945327302115128276,0.000770785377419948118660198,10.7262884466395362892399,-1.67355882222726881636277,2.07319710643770793723206,1111.21024371873068048444,1119.07840680596132187929,1113.84415663456616130134,1109.56808202272509333852,-708.043115029660611980944,-89.2095514434457186325744,78.0303291990149858747827,10.1583857011012561599728,155.288756607188105363093
34.0750000000000028421709,0.0834054482334641855700852,0.402290040978978968855273,-1.07284179825761150084418,-0.026952387963836255124761,0.0229315921450328509545447,0.0804631514142124248945009,-0.0169965825027696554316847,0.00280743643152271986004886,-0.302576641849443550569276,0.952968909981987355450883,-0.0158747944191634793309476,-0.101146401807432589903257,9.82716841586984202194799,0.0145081692046520622368933,-0.0581214040792591910000731,0.000811797545521347340032048,10.7262350756799005324638,-1.6736986314264583608491,2.07320752071414426964679,1109.18665160068758268608,1118.8112531738288453198,1114.06075044612975943892,1109.61666104686401013169,-744.288840052041791750526,-78.1648181940509232390468,66.7403480212328332754623,33.3375654764779483230086,155.288852275981696493545
34.0775000000000005684342,0.205393110673209755567825,0.242085984390549929790026,-1.19611909199687782567878,-0.0265995624388577385499577,0.023192459017737324100672,0.0761465683700292134128418,-0.017007464556492626200912,0.00284258722581475289925557,-0.30252410777999111379799,0.952985305353544864814808,-0.0177075791935652968045467,-0.10146707165413831885914,9.8275311696551224116547,0.0142575100109620205024452,-0.0576238187253932804265943,0.000853509916953894558384885,10.7261822653794443027664,-1.67383667692230142520771,2.07321622669755889489807,1107.48879951846856783959,1118.68758271499086731637,1114.17785837467249621113,1109.73476985010756834527,-643.500243665851940022549,-2.10663002394731524447025,15.5962093711565064069191,73.5234138255450631049825,155.288880907107426310176
34.0799999999999982946974,0.325266846175521928685725,0.0910963098994513192918632,-1.193614563192557875837,-0.0255264198935868380502257,0.0232606036211444634764778,0.0697728451666993348956325,-0.0170141321137155104858962,0.00287125122570803734123324,-0.302473799826368572318813,0.953001076300250438144701,-0.0191832674188091023559366,-0.101504387086662511974211,9.82780071847199110379734,0.014000500041458715724807,-0.0571277174878394161661177,0.000896989804614715187554286,10.7261298693309843343968,-1.67397362164151308761006,2.07322327601180367295797,1105.96915038236124928517,1118.80072002370911832259,1114.13873149298547104991,1109.98427811599140113685,-554.810403309454954978719,94.3933299844929081245937,-52.1911833806103828692358,127.341027071705298112647,155.288857644098413857137
34.082500000000003126388,0.429477078153129354642914,-0.0556407330246015199848308,-1.0684435511292658116389,-0.024014141992410958231785,0.0233124548437390576027806,0.0637952335550332483293801,-0.017017883877350915150517,0.00288751415224091723468747,-0.302419195312455479918157,0.953018284938054960342413,-0.0201653755607860210585791,-0.101241653980244483701512,9.82796988595225862184179,0.0137362305802754911671082,-0.0566321636180131884885647,0.000943645508298734166791055,10.7260779929399721055461,-1.674110126677509580162,2.07322821819757674433049,1104.71474750191987368453,1119.15954936491357329942,1113.91690245776931078581,1110.37147498546642054862,-419.271999654905982879427,200.287363957101973710451,-138.549547112072161780816,190.791361141321146988048,155.288791907595623342786
34.0850000000000008526513,0.506029150859169662979298,-0.203824240718897237156781,-0.824530546018835353017096,-0.0222516465489793341392399,0.0232558197111233100340399,0.0599791358257745002569017,-0.0170190302197870679812297,0.00289062398764027179975944,-0.302355514440390493735578,0.953038445956595370311959,-0.0206227156650132595339109,-0.100678653386221408916334,9.82802878882842634311601,0.0134642110706051851276577,-0.0561360223158520396657956,0.000994761361328493423639152,10.7260264818101127559657,-1.67424629704000427210531,2.07323088299156133018641,1103.87279038408564701967,1119.80215684349514049245,1113.44598375742475582229,1110.93823492169849487254,-265.075771322349339698121,330.916685703487871705875,-261.99627370343660004437,287.071260777690497434378,155.288675279913547910837
34.0874999999999985789145,0.566952802751005013881525,-0.38882377112783300665555,-0.47773276387820551303065,-0.0204278349427326061382715,0.0228031201661050113294049,0.0584715954243750918317701,-0.0170177862596673779016498,0.00288401371627324812005333,-0.30228293165208280912637,0.953061494845782841700554,-0.020606864947492316286759,-0.0998432290710947190071067,9.82796520265875805932865,0.0131848587907386141648836,-0.0556379615863352786075957,0.00105107083625038998445089,10.7259758396341950970054,-1.67438217794282229178293,2.07323344406905230030702,1103.38936864530933235073,1120.81413279342950772843,1112.60692108925331922364,1111.80683128935356762668,-91.6865006983684196484319,393.679620434003084028518,-345.558331206489697251527,340.697635147224332285987,155.288476468718528167301
34.0900000000000034106051,0.598901003580823654282028,-0.548663765279553961029535,-0.213352216181280279760912,-0.0194399239390529166016108,0.0220398235640043849148384,0.0594535297096037695929738,-0.0170183990926992198544632,0.00287539753129658530797497,-0.302202636689185788476664,0.953086963447770219026722,-0.0202299860395492095421766,-0.0988686016099196984807662,9.82776438685623254798429,0.0128991802525966151732328,-0.0551366703343539876769341,0.00111210950012827084268374,10.7259264582280451350016,-1.6745177678164688828133,2.07323796986423669608257,1103.41435788059357037127,1121.77055494566616289376,1111.71819210139142342086,1112.64172309743548794359,86.9487790761023404684238,385.569758356980969438155,-382.899809504064819520863,337.529099877801968432323,155.288261485822346230634
34.0925000000000011368684,0.618108458339259869696036,-0.708224926336704307949788,-0.0390684887406112235641586,-0.01871435209834254598249,0.0209198658370253476324052,0.0616247335812108373853668,-0.0170224042104732097013819,0.0028765311677379327981452,-0.302120866781565355907446,0.953112815627120024686292,-0.0197017086970712324012212,-0.0978659952197337978940794,9.82741137105411155516776,0.0126094082614710140122227,-0.0546308089778493460864084,0.00117709441417337013630062,10.7258774435201829078323,-1.67465188617217375366408,2.07324493432202006104603,1103.82411254069006645295,1122.74198158521539880894,1110.69242204173201571393,1113.49447678874344092037,248.731959117229706635044,410.58967051368250622545,-470.166992896402177848358,347.017673854131317057181,155.287995288444534480732
34.0949999999999988631316,0.62213955619219163395428,-0.884136504882709672870078,0.0370484074388963691149002,-0.0175143968477610885436935,0.0189981403246936159101566,0.0643410449114217436461516,-0.0170263685281121616987843,0.0028841358612295225037625,-0.302042096820590300065845,0.953137698438465630346172,-0.0189852680074834093137959,-0.0967677317793688707148192,9.82689542133714688532109,0.0123183815134132283730661,-0.0541191981870783461738839,0.00124561093734270396556074,10.7258274386926668597653,-1.67478354451487221332684,2.07325308653018769433629,1104.65801767617858786252,1123.82350329823270840279,1109.36735713691155069682,1114.37681146670456655556,346.767528974628419291548,369.666573820170071940083,-493.613387963498382760008,273.056026759283099636377,155.287617629834755916818
34.0975000000000036948222,0.597686314298860765781285,-1.00146925185612900577325,0.00231265221138735955000443,-0.0159282390457968874020178,0.0167065268928202337317401,0.0659494051811562870257788,-0.0170286433856193554492453,0.0028922529710326268063969,-0.301965605169094486459613,0.953161882666439863598384,-0.0179891600075144583725795,-0.0955263355024953131344745,9.82620727539847216291946,0.0120290310907009007079793,-0.0536009183006024153561597,0.00131698531389524173089434,10.7257754133661542539357,-1.67491224237157521059771,2.07326089196293317229447,1105.55795018556409559096,1124.59031445431719475891,1108.22435510191326102358,1114.85975692254055502417,384.793789850467476298945,264.636430984775074648496,-455.661595628038128324988,111.812882353012454927921,155.287255881970509108214
34.1000000000000014210855,0.526932335574000432210084,-1.066746681528709661535,-0.0868609030175255814043567,-0.0137095965514548775304737,0.0135871580293602002564857,0.0661555474065604193212309,-0.0170280593430996891879392,0.00290237211284804282745986,-0.301890280843938096921875,0.953185730817427745442671,-0.0167654614740569557485017,-0.0941504491537964727232435,9.82533842915967703390834,0.0117445941417873931517102,-0.0530751790725745992149953,0.00139041006914167840358143,10.7257212780225028581071,-1.67503795717966741385396,2.07326862736023587174827,1106.58198662543190948782,1125.14668545315726078115,1107.08904915877019448089,1114.93587587846991482365,418.158301446299617509794,177.624382701994932176603,-443.471635513099954550853,-49.769535075165343585013,155.286847997970141932456
34.1024999999999991473487,0.410506537696694318029245,-1.07649518984058878423582,-0.172889758808021820613021,-0.011363843354885473646565,0.0100300748468673383423377,0.0650012613877299361142548,-0.0170282374696002734848488,0.0029106556614105724180297,-0.301814828601537965546697,0.953209594425295292374756,-0.0152448892936505528417079,-0.0927092534671230955600763,9.82428298581091219432437,0.0114683029341469313461266,-0.0525413242232181318391859,0.00146456222100484938566933,10.7256653983414853570366,-1.67516162769125531717407,2.0732756094124860091199,1107.64874169279369198193,1125.47843636782636167482,1106.00699692434977805533,1114.61090924716495464963,421.76517275275978136051,68.2063683749326088445741,-404.072926240971980860195,-223.929044555665342386419,155.286404539062459662091
34.1050000000000039790393,0.24604531375916119384506,-1.01666178065084111814542,-0.201096631416679910708822,-0.00971693035286384787507785,0.0066400361394799590347704,0.0624829420625238329822793,-0.0170324337553742523321265,0.00291638681320548079703436,-0.301737419631317782542368,0.953233995446510884441693,-0.0134252357389755896943662,-0.0912852836528351418987626,9.82303786461197958601588,0.0112029525844293872255397,-0.0519988983576940219655249,0.00153800791555599070288551,10.7256083884434865183266,-1.67528408326145217266401,2.07328178231552495702772,1108.69081248919678728271,1125.48771729503209826362,1105.06868452756430087902,1113.81623065569101527217,428.529537392486361113697,-78.3653685442967997687447,-354.567732452551865662826,-429.142292429249778251688,155.285922255971684080578
34.1075000000000017053026,0.0224800105813824160905234,-0.879432269876397665342438,-0.128978443122984010038579,-0.00906462077203788393897632,0.00332354040712152338718499,0.0590727631696256680338131,-0.0170397629693168316256102,0.00292332453213385448989592,-0.301655527114096821961198,0.953259742067965709644284,-0.0114182575606380162791531,-0.0899109642607592574048425,9.82160382749344940123137,0.0109506475566152894352001,-0.0514477554196832859156885,0.00160945337083478849649065,10.7255513070340224857091,-1.67540563256720798079868,2.07328805315600428471612,1109.79138937975722001283,1125.08660952510467723187,1104.23415826208611179027,1112.46519778501760811196,357.21333911056461829503,-215.177857652193040394195,-239.819546576190816722374,-526.084149644590183925175,155.285304948247869560873
34.1099999999999994315658,-0.156484357005533425422072,-0.731265291622084312450625,0.0155275611044356307705039,-0.00959482874799810758759122,0.00137748604866438982378962,0.0571877637106873379368999,-0.0170502662436722053629357,0.00294045921655979383690926,-0.301567949547778713093038,0.953287195598572889565503,-0.00943278440408602120159642,-0.0886675128135078621793852,9.81998479391904055546547,0.0107129406191954473087646,-0.0508881387316868910586365,0.00167711957466093594323886,10.7254947971296754616333,-1.67552555618698706396685,2.07329547234788735821098,1110.47687918474798607349,1124.4118280067721116211,1103.8695867946844373364,1111.18580990747045689204,201.177510435401188715332,-329.964544969725409373495,-64.6166829464296910146004,-493.953434568897080225724,155.284763629790262484676
34.1124999999999971578291,-0.294675596665132766283079,-0.576740516912106260249971,0.207425623815282927919768,-0.011186545649321852358149,0.000231401867594337087158385,0.0572487596294071893199273,-0.017063613273506701706328,0.00297817458516013832542368,-0.301478879960926926528941,0.953315011035855475185485,-0.0077095812037653935200332,-0.0876375602027683886507958,9.81818888648114374007037,0.010491261011947252204668,-0.050320614970757210349106,0.00173900807066902206993175,10.7254388998049972059334,-1.67564275831968223506863,2.07330584961083719264252,1110.79727693193331106158,1123.43678680025755056704,1103.91107484735425714462,1109.99543061217536887852,55.6764893163005396559129,-424.094845805085640222387,81.8410416193309799837152,-426.400981979859466264315,155.284200629555954265015
34.1150000000000019895197,-0.3828829838544119401611,-0.436087261909885226529582,0.394979726948282650056399,-0.0132591774289172684847538,-0.000452076686964573103404835,0.0588898564534423574201583,-0.0170789637374649250212144,0.00302812389713427634191367,-0.301391938654297975030971,0.953342077864411496790353,-0.00614319332432514825237391,-0.0867819472321498808220497,9.81623108626857998615378,0.0102863388546292552905292,-0.0497460871202256779688433,0.0017934022663035056530112,10.7253845198705324293087,-1.67575704571445305290922,2.073318174230029065086,1110.75526163132963120006,1122.29135377774559856334,1104.27879200278130156221,1109.05380499757006873551,-103.172103516446412641017,-472.631777401406111493998,205.543754216782303956279,-286.028614165015028447669,155.283623787459646337084
34.1174999999999997157829,-0.408824499704707022829098,-0.328025737973698938709788,0.529978960319672509626798,-0.0149992929742666526032879,-0.000858868765169610985134308,0.0617421315842587026256894,-0.0170936549003245265299089,0.00307777364542982873399368,-0.301305647383607155820329,0.953368943029753057594178,-0.00456003245411019941801811,-0.0860003642269508011830581,9.81413096837678011752359,0.0100976593969777407588939,-0.049165695969523824648828,0.00183917302222045804874218,10.7253321570917563576586,-1.67586923233643880770671,2.07333056608775745388584,1110.28141641435081510281,1121.07362791324931095005,1104.93879361843869446602,1108.56528754134956216149,-285.644728961765963504149,-513.395759599928510397149,311.585250032032092804002,-93.9087938863794136068464,155.283034520129774591624
34.1199999999999974420462,-0.385103060820232712124778,-0.24627050645776130122222,0.597659017258028280039639,-0.0161997051073691673839239,-0.00131776256788642678538515,0.0653164563103708212254972,-0.0171099710752664752044794,0.00311990339599758047250955,-0.301217879014365308432133,0.953396255521252733444726,-0.00285512778683526952105964,-0.085314478228885048949337,9.81190967396446289683354,0.00992398607370539691252542,-0.0485805276081232306761848,0.00187515675875675686193333,10.725281521105360482693,-1.67598045003274842557062,2.07334259920358698892073,1109.32703798652210025466,1119.72437497974829057057,1105.83671825294004520401,1108.58426102813859870366,-386.261405345687990120496,-448.253699785889580198273,305.294307483316742946045,100.610527409883985683337,155.28231760749011414191
34.1225000000000022737368,-0.337962973322209148108186,-0.21988118189122030088356,0.575006186592336709928475,-0.0166719746816136570044531,-0.00178456613852378122124509,0.0677013518492743521237642,-0.0171303417462722873398917,0.00314622702603357213765878,-0.301124840869864240922027,0.953425195513856960083388,-0.000899568499360198919889697,-0.0847398368205520557960853,9.80959109413560526036235,0.00976344469227801749211526,-0.0479914775234529730751909,0.00190069991310996247620146,10.7252322725996744878785,-1.67609135274213483235428,2.07335338431790061619608,1108.35010938762138721358,1118.8323594143187165173,1106.46526515585605920933,1109.06834017839923944848,-389.766914740203674227814,-281.167517805935688102181,181.684226994773609931144,261.666335837983581313893,155.281714683027786350067
34.125,-0.281160980904785307021854,-0.235698690433660429377483,0.491845629102121817410875,-0.0172112136777338442517049,-0.00229493595397428510121451,0.0692097566704906325130153,-0.0171551668431522072455486,0.00315512325645780650901218,-0.30102563058480819035978,0.953456047430920827778777,0.00130270980841828976082297,-0.0842911529159620365181382,9.80720063979383560592851,0.00961413082441330002492208,-0.047399154470115056891899,0.00191565125647068625405756,10.7251835585945567430599,-1.67620185560266432567289,2.07336216045045551581438,1107.37820341282008484995,1118.31853739071789277659,1106.74513938791437794862,1109.89259270732918594149,-385.709981493105885874684,-118.693133258483328518196,14.2698175710068149157905,390.747637195218658234808,155.281108433324050110969
34.1274999999999977262632,-0.21724707088130287835348,-0.300845688681180278845062,0.360109891227184064632638,-0.0180083068256004855123287,-0.00290782903108821252913252,0.0701433090850749063616121,-0.0171874507414206574573701,0.00314798888685935071563016,-0.300924854914686401574642,0.953487302509536505112919,0.00371130845592590463688509,-0.0840474432841134266869432,9.80476420176083252044918,0.00947451948888541201077018,-0.046803925196984251522192,0.00191970484671421560973759,10.7251351617252534964564,-1.67631180285965730725195,2.07336933517403254612077,1106.4215594801576116879,1118.23889374802683960297,1106.53661424371102839359,1111.02207836437355581438,-294.904199859351251689077,64.7823120998633044109738,-164.909845303879819766735,398.674323224191311965114,155.280378849890183801108
34.1300000000000025579538,-0.177914552958789884407054,-0.39056663108937389461417,0.251317745972303885348964,-0.0184872865989065895964139,-0.00359770508619635526192937,0.0703874636703606254561905,-0.0172270951991679889536702,0.00313079216178649812410417,-0.300828352957052014282624,0.953517106253530477566471,0.00618799892627390143995392,-0.0840537272170212568234149,9.8023084584621233972257,0.00934307580072575409591007,-0.0462060977951694734633392,0.00191268773585399161005216,10.7250876973714053264075,-1.67642079342997929458647,2.07337688020664767662993,1105.90368241352257427934,1118.64244895121737499721,1105.92059016139455707162,1111.88596432345116227225,-138.98238583776384302837,250.395249532411213522209,-309.160873056340392395214,292.09577297554977803884,155.279769795601310988786
34.1325000000000002842171,-0.166037815134878946610186,-0.511305640231222824354518,0.169960682101803151056174,-0.0186056171477536683167564,-0.0044916542619684906093025,0.0703069861159301007225153,-0.0172750025967515138947128,0.00311842331077213236190104,-0.300739871212857168281118,0.953544211560386933967948,0.00844071207899788761297444,-0.0844229578890708931560027,9.79985906499179115769493,0.00921797898185446745733529,-0.0456060797920241484115778,0.00189405136450175592965905,10.7250411408834036564031,-1.67652835844887815319737,2.07338696803676603153122,1105.72664755096843691717,1119.4908699956895361538,1104.99080987842853573966,1112.48255722925205191132,-18.1491724596691241799817,395.420873053349566816905,-388.576172895626370973332,178.762981913795329091954,155.279160275047502182133
34.1349999999999980104803,-0.185012737754453843175284,-0.651534110931175969305684,0.124238680898809628061485,-0.0184666600378602802079442,-0.00543189790982746400355152,0.0700949321768874339388944,-0.0173290125317370966029351,0.00311238341837324341762616,-0.300661060749763064947615,0.953568123710777260093607,0.0104170226535101571874176,-0.0851284302991717339859079,9.79744311151478797228265,0.00909729718063523491722311,-0.0450043435547445927480403,0.00186368080754838487053671,10.7249953007702298890536,-1.67663440267076491174691,2.07339935916203366161881,1105.81293655122431118798,1120.61955331648232458974,1103.97770929691819219443,1112.77977923301932605682,82.7085150267552933200932,483.950869066100267446018,-377.495880093090534046496,45.3045205564872190961978,155.278551350900073657613
34.1375000000000028421709,-0.244431256127653817600276,-0.802862144303675195899928,0.128201091154579172037842,-0.0182499503239374263885431,-0.00674216330188327512412672,0.0698540371987755037697099,-0.017386801864268313505546,0.00310672274094238873645701,-0.300587811201972032737473,0.953590192644064971183582,0.0122105288078689956654532,-0.0860928822698586587724989,9.79508695285548114384255,0.00897865906276159968235628,-0.0444015123821408508320019,0.00182189754741998266411585,10.7249499692960750252269,-1.6767396659441140549518,2.07341284167927186743441,1106.1401901261024249834,1121.9106243410212755407,1103.10333047796211758396,1112.70907983203460389632,174.161304387918818292746,545.970790763651962151926,-299.011501907427202695544,-99.2813946321295190955425,155.277945194372904325064
34.1400000000000005684342,-0.353712385210641966359901,-0.972460592437170423529835,0.18811981762055290934299,-0.0184016552773894614958294,-0.0090149113229189663243357,0.0696870362096514428529304,-0.0174485590715470484379779,0.00309662794084784647949404,-0.300515642246308556373435,0.953611838956400226230414,0.0139150752428395009518969,-0.0872895428531031275509733,9.79281395165668122615443,0.00885977310843243971716365,-0.0437983202618231343139499,0.0017694007713609139105515,10.7249053427548606265418,-1.67684451805028422732846,2.07342593555061549537299,1106.68374307316435078974,1123.3494072703019810433,1102.48265178738029135275,1112.28337225985842451337,206.556765734837028958282,460.053652247788761542324,-130.354346322911027300506,-191.464840050176889008071,155.277224755773204378784
34.1424999999999982946974,-0.460547337918545907076151,-1.08086505535443877512591,0.274842212040709243936476,-0.0191070384002509502385792,-0.0114956127823735432258445,0.0697795851371042358257668,-0.0175094353030741944898807,0.00307487350189603698621954,-0.300441550136761603706503,0.95363411997056524160854,0.0156458974635353340043586,-0.0885802390709544695823752,9.79064560608948575293198,0.00873866550869981106863804,-0.0431956413744967321344248,0.00170804884511483096899698,10.7248617262928593873994,-1.67694863265045412958898,2.07343715195743705237419,1107.1729739547756707907,1124.21089260225812722638,1102.4515587463481551822,1111.75175563178459015035,185.977474030865209897456,218.901997933314191868703,97.9852948944834594158237,-219.003717928241542267642,155.276633713003349157589
34.145000000000003126388,-0.557645016070680510367197,-1.12617234784038755535107,0.380678554348630682202526,-0.0203874198060388124587039,-0.0149470790546862210973478,0.070305184948377605347325,-0.0175656833810127477324414,0.00303750609584417735967166,-0.300364241035587398176432,0.953657527823799200383803,0.0174689241249695280389087,-0.0898635702985753903604405,9.78859916876201019420023,0.00861376551380316039796536,-0.0425945901884740713017052,0.00164010176230516228207401,10.7248189412399224096362,-1.67705140050026546560957,2.0734458288641235412797,1107.61363044331915261864,1124.44391725996911191032,1102.97257826185295925825,1111.18835367021665661014,167.731759336862211284824,-89.5028962953344091602048,339.375039273826700991776,-221.754865330217626251397,155.276057507354778408626
34.1475000000000008526513,-0.630402728906718223811367,-1.08310118376721975508303,0.500046974011710831931055,-0.0225627012853596188579619,-0.0197460485979104108378301,0.0716815402510330712537723,-0.0176138376286541775694872,0.00298527090709682337357767,-0.300284820536541208202408,0.953681783702973073779674,0.0193684722071299809942335,-0.0910679921961745908465247,9.78668728593107317692557,0.00848401363874923611363421,-0.04199651124759348763682,0.00156799481051187687002946,10.7247774057579974282817,-1.6771518333989008375795,2.07345220082395620408988,1108.01163275146041087282,1123.76337812078122624371,1104.14843394271815668617,1110.64298130513293472177,115.542156891584042455179,-424.112235226333837090351,493.253113767053264382412,-160.217613209179233990653,155.275390398794144175554
34.1499999999999985789145,-0.633932057733360365681108,-0.963580474174077106219727,0.570190639383338804258017,-0.0248225409774609495627828,-0.0233210004105225028603332,0.0735751808830087394852626,-0.017650846376262591813644,0.00292460653309919039327669,-0.300204435180253470516476,0.953706572566146215663707,0.0212288596289504881420296,-0.0921600635649311300534592,9.78491776893830511596661,0.00834865613050406012163318,-0.0414029144556090702988804,0.00149399723444601896862882,10.7247371745644208829162,-1.6772491555779931449166,2.07345681240519885690787,1108.19134122777654738456,1122.32335608383937142207,1105.43884383068598253885,1110.3872656041714890307,32.3390664080596366147802,-747.416482805856162485725,532.124609641960546468908,-52.271798106831369068459,155.274860725584858300863
34.1525000000000034106051,-0.563166177629043085417493,-0.775209516667932474476288,0.588635654725156665101338,-0.02718924958690680654394,-0.0256846370819887939718207,0.0761568195759273758316255,-0.0176833291381739317327249,0.0028660292191279418926031,-0.300124891311878250199641,0.953731171264843413659662,0.022917860216389016048133,-0.093308079862819040539712,9.7832918501095171848192,0.00820728978112820334311905,-0.0408152626827133560571959,0.00141921065883533889170898,10.7246978939481643067211,-1.67734344639777877006281,2.07346142088970220029864,1108.17332808350079176307,1120.0262957067500337871,1106.8090569909293208184,1110.38162231459864415228,-43.5346934369367914996474,-1034.40038919063067623938,522.557824206893201335333,35.355040022323109383251,155.274365517632332966969
34.1550000000000011368684,-0.430100282909527009689299,-0.552629899732562379632839,0.559455827613934641995286,-0.0292489394615613150507638,-0.0270548080317037642483768,0.0788763518353519238468508,-0.0177115920816777148993904,0.00280831466138081655564696,-0.300044633145648331762345,0.953756058353801505766967,0.0244873310581250301642964,-0.0944909489161977478310916,9.78180925383701804776138,0.00805949032912862961541833,-0.0402347240229352157148135,0.00134498189259063842190822,10.7246598676300912700299,-1.67743535834102619475061,2.07346682399293724685663,1107.97366776059175208502,1117.15135413788357254816,1108.05163295172178550274,1110.56404080428319502971,-123.253798373546715083648,-1238.86228256313984275039,426.828645408046952525183,103.857147436205067947412,155.273903602228045883749
34.1574999999999988631316,-0.234728627129537903428513,-0.316916852852514419058849,0.486314886956268233042522,-0.0305176697420618675549164,-0.0275432816040203573559886,0.0807075610783175856344229,-0.0177358539808964536799163,0.0027494276235393681762087,-0.299960710084816561948884,0.953782159808044593951593,0.0260043139739847065095013,-0.0956795802233270931136389,9.78046642785121456142861,0.00790491836036463259296259,-0.039661965164275697626195,0.00127233819155520835528228,10.7246228342603409089406,-1.67752616980238022925676,2.07347233426294641489562,1107.55705909163361866376,1113.83198429393996775616,1108.94320021796761466248,1110.90090805177919719426,-225.714972775743291322215,-1483.92860760738153658167,280.310024821112449444627,160.01359812454211350996,155.273486440439029365734
34.1600000000000036948222,0.042540687021398203293554,-0.0469464539770320377076729,0.383053279032745774834723,-0.0307366576332576656171991,-0.027353471780348127123661,0.0810859508423671798693633,-0.0177606469359325828960561,0.00269131330737732181110355,-0.299872390876438466023046,0.953809617532095255221236,0.0274858782283906970256293,-0.0969481148034644496513934,9.77925583702342748892988,0.00774365142363650418161347,-0.0390970225012305036549343,0.00120169001133641623058068,10.7245863239173804259963,-1.67761709440686801464437,2.07347748996904357454696,1106.84509289671245824138,1109.73171109984286886174,1109.45318307582806482969,1111.36410879490631486988,-286.261643000888398091774,-1462.09536978865571654751,88.8803812677906535100192,163.439525321935491319891,155.273042143523014146922
34.1625000000000014210855,0.284912278810417474161909,0.154930241839292798244898,0.308637312874132707651853,-0.0298549037795928819127855,-0.0268112507178366980820083,0.0805915800806236842790398,-0.017789424252533450609981,0.00264017902689098714341664,-0.299778899713800894843985,0.95383860216259863662458,0.0288613732876737902333097,-0.0983755074514414407094165,9.77816794269224587310418,0.00757608135334354813178459,-0.0385394110518859703273797,0.00113329832164228727110766,10.7245497791355699490623,-1.67770833285141351964853,2.07348237127566514814703,1106.12575087662844453007,1106.52150744499294887646,1109.38760212430679530371,1111.71810567838929273421,-298.541609533002485932229,-1175.10968277431402384536,-114.100739111712840667678,120.960091976822653236923,155.272721134964882594431
34.1649999999999991473487,0.514948490262292835062397,0.32694592146582707181679,0.257870320240858930116445,-0.028278225665711663461277,-0.0260160038403181095856276,0.0806135365163504064023314,-0.0178220279630914649193763,0.0026049333345357092786565,-0.299680752182670429029088,0.953868937807320182997728,0.0299855314985949077122296,-0.0999898876352440790782339,9.77719278500264721287749,0.00740311648365354381395864,-0.0379882991877069781105902,0.00106746595120261762029701,10.7245124942134957279904,-1.67779869970287043301482,2.0734874083956675860918,1105.35238484904880351678,1103.85616268597664202389,1108.88267938027001946466,1111.96890925478987810493,-305.243078766605606233497,-938.053653439394452107081,-253.183559022916227831956,77.4784142605371215495325,155.27245282284076210999
34.1675000000000039790393,0.723820420121618846032163,0.47400629878844241504865,0.222272318765566551101998,-0.0263489682482216970582645,-0.0248703059410540598672679,0.0812925115918346069543432,-0.0178482342209486562201182,0.00257996849019589144860753,-0.299581072807924231327092,0.953899842641568684875608,0.0309208252333152619484302,-0.101547920928288959441232,9.77632367549040992571463,0.00722631413564440560487467,-0.0374426621652045044097434,0.00100516713974579735210724,10.7244747834331448643752,-1.67788697104376494095845,2.07349232723184639937131,1104.59953548279463575454,1101.83123917779357725522,1108.1216843291915665759,1112.10549774969217651233,-278.686278137586896264111,-630.740966578100824335706,-332.276861069761366707098,25.3429490761716316171714,155.272228510752256624983
34.1700000000000017053026,0.902096304545874083657964,0.593885955284715771895776,0.195153038809153134280905,-0.0242295798974686837912174,-0.0234027262599632683570672,0.0821354821161522086203632,-0.0178658970291824363563205,0.00255714888793631472604928,-0.299480904235792100287483,0.953931042997467781852095,0.0318198228055424914284544,-0.102943928926993971684212,9.77555286309112325682236,0.00704735640845528289732957,-0.0369014914466232191170292,0.000946554107532505311153881,10.7244368188646710393641,-1.67797330912246445144831,2.07349669374901246499121,1103.95895345836015621899,1100.70245785308452468598,1107.22129507492036282201,1112.09562400017080108228,-232.048143230924381441582,-287.642945495088156349084,-382.94800215652043107184,-35.4336039237163618054183,155.27205658822867917479
34.1724999999999994315658,1.0797474615337605552412,0.713640181177985111204976,0.164432421203815126720116,-0.021729921464347958653951,-0.0216210022402421805920447,0.0825575721139348156496496,-0.0178791386229153817510884,0.00253649136109088254795174,-0.299379005658745311890812,0.953962843113981162623816,0.0327146552886765223933097,-0.104238941368658438735295,9.77487190491448920681705,0.00686786663806761114858812,-0.0363638005044871828741471,0.000891031172114471574363659,10.7243988971908787988241,-1.678058445320574465498,2.07350073612101803988139,1103.43929476664106914541,1100.39302445031944444054,1106.20694431841070581868,1111.92832973007375585439,-132.211525181788260852045,41.518758808685241490366,-331.813399142686989762296,-83.0822510900391222321559,155.271909206604192377199
34.1750000000000042632564,1.19575758398214904154599,0.799245630143023633173982,0.136371458384198007696142,-0.0195607888166215750092025,-0.0201538111395432907591019,0.0825308149516879169249606,-0.0178881182274744261750943,0.00251695466131945412568971,-0.299272871282235564116547,0.953996024499284334119409,0.033628425204772063872305,-0.105416034795585283889707,9.77427554894236827465193,0.00668942594752304758171091,-0.0358286063876521870819047,0.000838071440839307894854482,10.724360534480753770481,-1.67814289197696431266138,2.07350396637177114556039,1103.29789583245087669638,1100.91005164712805708405,1105.56222807920607920096,1111.68021274472039294778,20.860965628515501180118,326.356400751834769380366,-191.566138246746277218335,-116.627709422695616581223,155.271834246765479292662
34.1775000000000019895197,1.2691010191182598987325,0.873492519049385629514859,0.0971669368659317939096454,-0.0169025426810669836263923,-0.0185104235543067999203437,0.0829914489863687321324903,-0.01789529680833490746239,0.00249855488100197411713288,-0.29916069190519484211066,0.954031108668293881258649,0.0345721220743332863234443,-0.106509720605489299760649,9.77376070679228092785706,0.00651367001325819407198114,-0.0352950135630039768530608,0.000786666591129787798677975,10.7243213880555234851499,-1.67822658143817804443643,2.07350659072160592444334,1103.54359959478370001307,1102.02480645407945303305,1105.24911362717648444232,1111.34519118295997941459,209.38240610945229036588,568.96126184271361125866,-48.8480973664526132438368,-163.229143516503626187841,155.271807598284510731901
34.1799999999999997157829,1.28784928797268394262687,0.945808490728283213222483,0.0255211663905640928629026,-0.0127809703208109151639782,-0.0160877128834945662405609,0.0844155479307766576368977,-0.0178983559239279874097939,0.00248201594873107217811836,-0.29904381920330530553187,0.95406771683486868429469,0.0355096325562090781025049,-0.10747177850467803938983,9.77332877246835884932352,0.00634238462096292990310964,-0.0347623199660412329770054,0.000735774383725966169694788,10.7242820847075321921693,-1.67830887921790128380906,2.0735098224362285002087,1104.34480786299718602095,1103.75485795633903762791,1105.31798759237403828593,1110.86406702713861704979,378.533685633491188582411,656.765651802294769368018,96.2277848023370410146526,-187.751707469795064753271,155.271830049264849549218
34.1824999999999974420462,1.23154361663733502574303,0.985581593495735375221045,-0.0542572811739590044055603,-0.00870024518013120563841856,-0.0136130690004144516702667,0.0854790805831630723377046,-0.0178996468593926143231254,0.00247250660864417907622292,-0.298925300688120454406516,0.954104843527887824805589,0.036343840290705337059407,-0.108369052778605479137042,9.77298332833901284288913,0.00617729961892780378429624,-0.0342301600990203291896563,0.000683637322157588651731774,10.7242431792661463418881,-1.67838931293540105649242,2.07351427485701123032413,1105.43626802294943445304,1105.30863471308794032666,1105.73025255118773202412,1110.40643264561185787898,511.349823027887737225683,602.870514089464336393576,220.908199826977352131507,-193.085013264400345178728,155.271893182943074407376
34.1850000000000022737368,1.09556588459641313093584,0.996419172433658184573346,-0.136123234853580382663907,-0.00477820369539208068820901,-0.010562094927378109371352,0.0854277626821735025508531,-0.0179016487867608743711489,0.00247943867515901293988034,-0.298810782668358143610021,0.954140654358892725817043,0.0368943202305163711618441,-0.109297245215478011637344,9.77273138198272661725241,0.00602006835636024594665683,-0.0336984869053017013773577,0.00062828457480939041077117,10.7242046276112716896023,-1.67846723078166948361911,2.07352068417198465155593,1106.90155697813793267414,1106.76921052678790147183,1106.42252859150949007017,1109.89864196081612135458,626.713505556060681556119,548.198102189818769147678,301.687765976185175986757,-209.603507923368027832112,155.272001439784361309648
34.1875,0.903644325599163189544072,0.98248648792073056679186,-0.196953496446845705003525,-0.00158944568521045596042052,-0.00729666860181624882253359,0.0843388389371099583824432,-0.017900924142305481984172,0.00249854864473460875837207,-0.298700749582309854623929,0.954175070509650669059454,0.0371977354460147832670991,-0.110162865744576426996204,9.77258588260229110744604,0.005871665570807392542374,-0.0331675632108842585732411,0.000568355534743182340233492,10.7241665770834213589069,-1.67854254809617309263103,2.07352832934981101686844,1108.56983555073134084523,1108.04962522403843649954,1107.23869138106942955346,1109.35841510599448156427,678.756748069489503905061,457.902638046887545897334,324.217868641812117402878,-220.791482979730773195115,155.272146470873195767126
34.1899999999999977262632,0.671113029964575669161775,0.949626188624888234457444,-0.208785870810865692437375,0.000490980151174137896888383,-0.00455581710703773824777674,0.0825073414960223183722832,-0.0178950969764821998797544,0.00252294928980190038408926,-0.298589330794533536206359,0.954209991813986357911404,0.0373434977991046745948722,-0.110877843632961770037326,9.77256270143004002193265,0.00573220885251947507438297,-0.0326378448293623280029863,0.000502771114821327956903585,10.724129345609961561081,-1.67861580912391095132818,2.0735360041845849465858,1110.29534071848229359603,1109.05872371702025702689,1108.04361793471707642311,1108.79468454591847148549,718.20295496294966142159,381.537615989905475544219,309.397741718363192831021,-249.353415554660159614286,155.272335176169121950807
34.1925000000000025579538,0.388756131707919228013282,0.91492417660190727968228,-0.156733546926833416934599,0.00167957880137675394892349,-0.00231930930740819208485393,0.0807357274571956357034352,-0.017880994862062696282301,0.00255208596015559516581583,-0.298473171824057414980302,0.95424652894183525919658,0.0372961524973032185203969,-0.111377393942421021311162,9.77267977423312572682335,0.00560150939661752979292775,-0.0321097282152770779894979,0.000430927429868315967596837,10.7240933709109960147998,-1.67868747558720299295487,2.07354371413992399908466,1112.16085032554792633164,1109.95731330398893987876,1108.78568008966203706223,1108.11164802822054298304,614.367995121669423497224,283.346547165129436507414,208.443053075218585945549,-249.145379975798135774312,155.272611273244507401614
34.1950000000000002842171,0.182079261878211551284323,0.90973908551126736465875,-0.0681602318291934239358199,0.0016165688649829035306027,-0.00114792033780210960859647,0.0801936972161210043230639,-0.0178636601916430243219835,0.0025805549904709982819706,-0.298355913840578690354732,0.9542834579954938556412,0.0371573323002326733055511,-0.111722973184671392488099,9.77295445894575998124765,0.00547940887808033398609364,-0.0315833906065592431855471,0.000352268169395453050428413,10.7240587834174370129858,-1.67875852728187746620847,2.07355112810539576884139,1113.36718069409221243404,1110.47545645284662896302,1109.08583320009370254411,1107.54895764603884344979,383.345186932895899190044,167.685555917357930866274,33.752215843090880298405,-221.52741353185913908419,155.272881953798332688166
34.1974999999999980104803,0.0335747569559879943668079,0.940922737262781971878667,0.0442998004370541501040215,0.000847002314063375260841382,-0.000125413166346343790636883,0.0802686219023124591931406,-0.0178468709286114662893041,0.00260668244441110332626499,-0.298241813277364986589646,0.954319378577615728964645,0.0369520197874718403507899,-0.111975270079570254910806,9.77340437415686658084724,0.00536541316081491897332922,-0.0310588108502007458067151,0.000266866747355001062043389,10.7240256928307005068746,-1.67882917973146295054221,2.07355845036833263961285,1114.07757626021066243993,1110.79574108357496697863,1108.95444116887733798649,1107.00401096056225469511,194.328662458966107351443,103.784676616752790323517,-161.916400085973634759284,-232.534583087653288657748,155.273193546034690371016
34.2000000000000028421709,-0.0634006896260040642143707,1.01043993471558346541883,0.178079218693074553536704,-0.000277081716801001948832089,0.00179316609820449218183624,0.0805435553404480752970329,-0.0178266657552308242784544,0.00262642137639114816097252,-0.298135244748064798248066,0.954353007892901228359506,0.0367057729089485182405461,-0.112037831399492082695701,9.77404836680186583919294,0.00525883037117142165123296,-0.0305357710334410344110712,0.000175866094302686102462951,10.7239935128460324165189,-1.67889887759011124934716,2.07356462194403867727033,1114.3388240063875400665,1110.9943798359306583734,1108.27625119966342026601,1106.38628473059998214012,12.7100905607611363024034,48.7351306690676082666869,-325.199582555130348282546,-216.446702301007690039114,155.273612934962557119434
34.2025000000000005684342,-0.0798990368191313388157582,1.07396764382334830578714,0.267915869226942826575311,-0.0010039216843300989481097,0.00448039686304583725795503,0.0810120314857397799679362,-0.0178017751492941869728703,0.0026399280167710243924506,-0.298038790769013128834075,0.9543835653914706229628,0.0363839918670139372824934,-0.111890057934996012267703,9.77490218133098665020952,0.00515876572974901734247588,-0.0300138934106052024386457,8.06855624997836673104046e-05,10.7239612410920415186411,-1.67896704103634264448885,2.0735690339271735105342,1114.14112671301450063766,1111.03941673692042968469,1107.32844325610085434164,1105.92177744905666259001,-132.623473245469199355284,4.33109579044351544752089,-433.220244877414415896055,-167.405770966995447679437,155.273998735538583559901
34.2049999999999982946974,-0.0458380748063312304374506,1.11347764666263282506975,0.309892986716570284499994,-0.00113234294308359791786378,0.00809982683101905659439623,0.082135543824881834806817,-0.0177753278077453329142354,0.00265633653114125773894716,-0.297952093675053653054619,0.954411078718403582676899,0.0358136239857893834415137,-0.111646932693097972189022,9.77597663085072277056042,0.00506404342831093604027082,-0.0294926517318358991093241,-1.72596458188440326185498e-05,10.7239283783003873651296,-1.67903345422451977242417,2.07357261128904069025225,1113.6757066401607971784,1111.01603531488285625528,1106.11014997527831837942,1105.54925587576576617721,-203.3842384873747448637,-9.38014916559470712797975,-506.844652513486721545632,-125.703999795886645074461,155.274420018008612487392
34.207500000000003126388,0.0142957977903603594693749,1.11780992515763566430564,0.295228466090405650135153,-0.000774906405075027567876111,0.0117724387359264496405453,0.0837938819599585854591695,-0.0177497726463050446710223,0.00267379233502793847362944,-0.297873065581166218684928,0.954436155952967379967333,0.0350268388493098700720019,-0.111348032010357145260571,9.77727938131385698738995,0.00497318818931208675437894,-0.0289713660959146149243004,-0.000116234081470231926692949,10.7238954560761872158992,-1.67909872369390344992723,2.07357485450044798369618,1113.12420552057710665395,1110.99251599109243215935,1104.79421999353212413553,1105.29325745007690784405,-216.499031733499776919416,5.84704288384883597018415,-516.876283019254742612247,-64.2018802286328451600639,155.274868842547078884309
