t,ang acc x,ang acc y,ang acc z,ang vel x,ang vel y,ang vel z,quat x,quat y,quat z,quat w,acc x,acc y,acc z,vel x,vel y,vel z,pos x,pos y,pos z,mot 1,mot 2,mot 3,mot 4,dmot 1,dmot 2,dmot 3,dmot 4,vbat
45.2225000000000036948222,1.01603430413199835591342,0.555830365662805081505837,-0.194520706413471244911051,0.0371320548329336988513383,-0.0156010382272868813879896,0.00207802015716528152428078,-0.000151275248615527745923645,-0.00391125458321514140463959,0.0285275878893581705253446,0.999585132528673536711494,0.0118119104151013371017953,-0.0399360238528656125156502,9.27903720732155790074103,-0.006729145779870202015438,0.049755415985781335785898,0.0303867335429212140351929,-0.0205302423003529861678107,1.68103537988929452318132,5.70875673293957852649783,1122.48112241885655748774,1096.80038606256653110904,1105.4871076051142608776,1108.64230148759475014231,129.66258151011703603217,-554.742031750391106470488,-58.681952050362262696126,-52.6154732447324988697801,153.428332009907023802953
45.2250000000000014210855,0.992430457254156239699228,0.850938867919038166576229,0.150915380578195978955591,0.0387328326256117100312437,-0.0140416918017346979696836,0.00235911012600396007010684,-0.000103568450307018732753361,-0.00391544121486100439588629,0.0285273833759613036631375,0.999585132315833124749815,0.0145591617174340923202003,-0.0381899502260770046246918,9.27681320268136389017855,-0.00675179706676253769265239,0.0498993112962252335917945,0.0290171542045394997844099,-0.0205553243835466595279549,1.68115992720837592599992,5.70882610491412645359333,1123.09320322422308890964,1095.31276666015173759661,1105.16364538635184544546,1108.5850798399321774923,322.359003498033757750818,-515.228627609272052723099,-185.860858906049429606355,6.2175633060234920534981,153.425648560759213978599
45.2274999999999991473487,0.989224173901332548553,1.07452572478860419735724,0.447168768563053597997481,0.0406994790657294533420263,-0.0121162282172164407351156,0.00281733070747604329511771,-5.9488781878170576421401e-05,-0.00391678119930111059282529,0.0285267490681112567685318,0.99958515726290952940758,0.0170560937378025148647431,-0.0363427204353510419077011,9.27479438827091051678053,-0.00675714232556823366643295,0.0500459313154382953725552,0.0276478251085988391277937,-0.0205814998440406876634157,1.68128440500797449175252,5.7088927008019387798754,1124.09291743634526028472,1094.22424292452251393115,1104.55780331058485899121,1108.67338930412483932741,502.189228460808863019338,-379.145246692348109718296,-319.731425592881464581296,49.352541967730068961373,153.423366339521066947782
45.2300000000000039790393,0.971044858451107772978617,1.25140387321542645437944,0.734598933209981153069634,0.0434928745851414916279154,-0.00921109455128444644389507,0.00397008753097582815783095,-2.08362673202809844637609e-05,-0.00391366486182180041419887,0.0285246582885928384731855,0.99958524148782557094961,0.0192106660662718989329711,-0.034451826293942375278867,9.27298580975988961938583,-0.00674545972962330760841487,0.0501971229494457479858305,0.0262800275172361888498251,-0.0206092042383672902072789,1.68140843779860982287744,5.7089569985293646681157,1125.604149366528417886,1093.41704042668902729929,1103.56498825838662014576,1108.83184254977095406502,776.127989598502040280437,-270.227412215261210803874,-528.720098698706920004042,61.7038835601900146343723,153.421042250717732713383
45.2325000000000017053026,0.895094069263243086176374,1.37943149916642537888833,1.04365102455460756480932,0.0473740803276211860928235,-0.00493607948279193350232807,0.00666920164467227696847296,1.27219731523973062409282e-05,-0.00390487825015750546903126,0.0285253167356951872757342,0.999585267423580448031828,0.0209442733127745348009618,-0.0325422404963150169177055,9.27138794528512555359612,-0.00671684306520842558385631,0.0503549888955361901743402,0.0249142960541064648061216,-0.0206382814951032306227674,1.68153155086608974144724,5.70901872061221737908454,1127.97355738433975602675,1092.87310586344551666116,1101.91420281708997208625,1108.98190872192594724766,946.632260149814669603074,-124.207473679484067474732,-675.718780474586083073518,29.7209751502393579869477,153.418209975696072433493
45.2349999999999994315658,0.770119774315939920050766,1.39728300635819935315851,1.25126806785632194163327,0.0505583381357995811922201,-0.000809247766090995354799909,0.00995331655876769555435502,4.25690324018265409838392e-05,-0.00389089068262797035599454,0.0285313099822237653535595,0.999585157946827562724934,0.0222158517373767586122746,-0.0306262845548855022759227,9.26999754350482874087902,-0.00667205944848461938306849,0.0505215602954213055530985,0.0235506930953070202361399,-0.0206681593413030606498637,1.68165353944134543517919,5.7090776661736413188919,1130.33731066727318648191,1092.79600305829217177234,1100.18639435601676268561,1108.98044742552201569197,992.312463782029112735472,39.5458469743314324773564,-745.117377648449178195733,-43.9975098661991523840697,153.415816095906080818168
45.2375000000000042632564,0.579842797784055008492032,1.31085027831641443007982,1.388793835669978493641,0.0529368066345427545904556,0.00395967414473839297850422,0.0138497038179476207597762,7.18334262211143257693957e-05,-0.00387341748639823471589416,0.0285448986900695908519587,0.999584841537440316194818,0.0230161129010945167405744,-0.0286898184161633318378648,9.26880841124760657123716,-0.00661264360965565806821376,0.0506986329122512680012136,0.0221888427969535485806407,-0.0206978624169133380850116,1.68177491369259568543271,5.70913348201431780637449,1132.93511970325243964908,1093.0708350983172749693,1098.18861592884582023544,1108.76192117259483893577,1039.82462943419250223087,154.619045595075505161731,-821.37650421426587854512,-128.291744468949985957806,153.413388866195134596637
45.2400000000000019895197,0.347204500619420652895997,1.14321502932625951309831,1.46243787420282012057271,0.0542905318799986394417978,0.00856059338112820367161504,0.0177764093707802224575421,0.000104015576619515670965879,-0.00385401030773525020423076,0.028571331605446934065462,0.999584163010123760706449,0.0233429400395894007247399,-0.0267161889113239209292416,9.2678126257768163043238,-0.00654071000281194678271923,0.0508875488179387630571782,0.020828108736834865383214,-0.0207264880579589166886834,1.68189655333750831545103,5.70918570948332604331199,1135.53643381444680926506,1093.56909828626794478623,1096.07951183494333236013,1108.33898870317693763354,985.024538473849133879412,232.359512561999849822314,-836.705553512307915298152,-211.954678574204052665664,153.410934126635453367271
45.2424999999999997157829,0.0853279431404974364472338,0.908062718279511016383765,1.46135475506890633035084,0.0544320448060034781101457,0.0116798675471580844925645,0.0214828242925235030069686,0.000142103976483347473709282,-0.00383515671911326821996724,0.0286114673653284495857818,0.99958308869806955510029,0.0232216301383745896136368,-0.0247014059493633059139128,9.26700125495604254410864,-0.00645958984652836472328818,0.0510889609957160470421478,0.0194677119446224310139737,-0.0207533457510487781561004,1.68201937020852021476003,5.7092343502793578835508,1137.86024239561720605707,1094.23263266112621749926,1094.00508816128808575741,1107.70214777972478259471,885.51910496474692990887,306.198413527823674940009,-858.894253954812370466243,-307.682919274618768668006,153.408445193502046777212
45.2449999999999974420462,-0.236695674409156647799435,0.608726624160074170077905,1.38309316954454475379066,0.0536382808717617842741987,0.0130785198772472924244603,0.0256556396559868907236712,0.000186774179679787390249285,-0.00381825104894721991180551,0.0286606900978130588186765,0.99958174320251269584503,0.0226672771474318371365264,-0.022684980101513901873389,9.26636556783309650597857,-0.00637385168070724820316153,0.051302785776763906722131,0.0181068661274864997623446,-0.0207783529312694503765613,1.68214351206845225128461,5.7092801237231718403109,1139.96402933926651712682,1095.10009035390567078139,1091.7850405651731762191,1106.80057410680524299096,613.853980373510012213956,318.367941492780062162637,-738.020509243310584679421,-331.861826997431592189969,153.405416905850302100589
45.2475000000000022737368,-0.498618299343274617996258,0.389422624259457894613234,1.26231171115656470860245,0.0525936393111871638983423,0.0127739258198361470969528,0.028820559992173994806608,0.000237531976845782268796883,-0.00380335182617587636358381,0.0287156398190055971164636,0.999580219479182185970956,0.0216827379521165111708747,-0.0207277328578109876211499,9.26589732674678323576245,-0.00628835966297436061572812,0.0515284552425072581161025,0.016744693310534575214632,-0.0208013583870443191647936,1.68226910542108232249348,5.70932382765333557017584,1140.92951229748632613337,1095.82447236859093209205,1090.31498561506964506407,1106.0428386447367756773,192.060646596239138261808,283.853447244555638917518,-478.217888929503715189639,-278.381121333808039253199,153.402857588187401916002
45.25,-0.744326250141879253163779,0.235508855663641214484016,1.09418585335984919204577,0.0513278823473520828812866,0.0120171468523721410026628,0.0316316467889778130118117,0.000294576339073800998712149,-0.00379093118424350498940623,0.0287719201122548992599626,0.999578639525625978201617,0.0202919394387470267138163,-0.0188766644253567650313386,9.26558843910986240643979,-0.00620815615870823605398909,0.0517650783744713557932293,0.0153802011679288041373637,-0.0208221817084649103712923,1.6823964929136234758289,5.70936585741212976330416,1140.92433257224820408737,1096.51935759012917515065,1089.39395112052443437278,1105.40866850013549083087,-166.665350178042587003802,272.199036028470970904891,-259.982419534353539347649,-216.946301770910338291287,153.40026068945599035942
45.2524999999999977262632,-0.969398730178559708825503,0.141952608279149905534666,0.89420203956749100271395,0.0497370702816434043236349,0.0114027000097665174443984,0.0342239091731582276145751,0.000356940928359310142604921,-0.00378125277283512285786404,0.0288250077094303683300502,0.999577130845151984317454,0.0185272928425172303534829,-0.0171977823894270132054629,9.26543138414705680361294,-0.00613809936829820025627757,0.0520115320162855346297626,0.0140126858209600555632557,-0.0208415555806503102753702,1.68252516569796828349581,5.70940596974910441474549,1140.09618554659687106323,1097.18546754873204918113,1089.01507351739905971044,1104.95810713588321050338,-509.981382465924184543837,259.535591438047049450688,-7.24171664191628838835868,-122.24198893275682564763,153.397632910638066050524
45.2550000000000025579538,-1.15559110188071989533398,0.10881488666320116021069,0.666140028551831631098423,0.0474204444653185397395845,0.0113928942051456285472488,0.0364499581997432681168547,0.000422556414113530072473868,-0.0037744307693762238140045,0.0288733857027612048073983,0.999575735780602214752832,0.0164306498551559168608271,-0.0157738840499273280659764,9.26541901387569311054904,-0.00608228123284365249090477,0.0522666332497630781173115,0.0126419608065128970947333,-0.0208603507346423536206181,1.68265426242693405534112,5.70944336868508717230952,1138.37442565991727860819,1097.81703554732007432904,1089.35774253731483440788,1104.79745855547139399278,-911.361051012124676162784,268.163641231830467859254,324.160212984968609362113,6.26352459402958317014054,153.394969028515021136627
45.2575000000000002842171,-1.30924735053804797146881,0.110198440481050194406087,0.379045728243162405313171,0.0434617065903264848669707,0.0119949793998411265855131,0.0382305481026560534107972,0.000489637640275943715646723,-0.00376909815689975731534123,0.0289190103329215325578261,0.999574402512404258658307,0.0140282796773131060441564,-0.0146768593074678294074786,9.26554411261867727489516,-0.0060438567677306058792408,0.0525292185361756827632895,0.0112683555683059880708763,-0.0208789928562802262757003,1.68278333337769869793021,5.70947721170305300120162,1135.53938029153391653381,1098.52628575489188733627,1090.63587458232473181852,1104.98942475885337444197,-1114.91462497894190164516,249.248670132828237910871,607.902929594872944107919,136.469900927510451538183,153.391733116416929760817
45.2599999999999980104803,-1.36150378926512005683946,0.124464759957022053082909,0.146853528683319717318412,0.039275829403943716966463,0.0123635729305790701554324,0.038644302503776900570287,0.000555329068226689619679204,-0.00376357807940828383019838,0.0289664883411904147680893,0.999573004397057651715386,0.0113500784826751424660962,-0.013992051035933691927049,9.2657990453797758334531,-0.00602503552679668243075017,0.0527980344102773821446384,0.0098929226185395166548453,-0.0208977904481609105813433,1.68291195617743971624236,5.70950704359469973780961,1132.79985253502763953293,1099.06327889798308206082,1092.39725718528643483296,1105.47980806010832566244,-1105.0380450270754408848,200.549244723503932164022,827.34227490298928842094,261.112100438870697871607,153.389006368655714140914
45.2625000000000028421709,-1.32517527540653845541385,0.130166338361441424886777,-0.0563324832148984419588622,0.0349285083769537152420526,0.0123813045572704286817478,0.0381313192884424681516897,0.000616804234177214605674977,-0.00375781412087004135225143,0.02901864358189306519753,0.999571460681634271772111,0.00846312536177695057260095,-0.0137974524143974625056686,9.26617490421175382664387,-0.00602752000092650081636281,0.0530715834576009001799513,0.00851730630760737239537406,-0.0209166766955076362244359,1.68304015017490526950894,5.70953269514095751446803,1130.0141900663957130746,1099.52903197850992000895,1094.77258595684179454111,1106.2949852610483958415,-1163.9721210228301515599,188.062898121137749285481,1138.92846257436690393661,421.532073931360059759754,153.386252230593044032503
45.2650000000000005684342,-1.19009595029455339521007,0.0994693923060477602771101,-0.250378447351831345812911,0.0303687225103769151135502,0.0128181169277430603847812,0.037201828194422484341608,0.000673434921159326974927917,-0.00375198062172558532284539,0.0290784139662727224295846,0.999569685875180358181069,0.00544519725553260086625684,-0.0141217901773589421532407,9.26666096824391338770965,-0.00605237243011849147811265,0.0533480254994902133858226,0.00714338511505011476004912,-0.0209352185014172673116484,1.68316881215207359012709,5.70955370713440490959556,1126.97999192991051131685,1100.00359338858925184468,1098.09189949816118314629,1107.5874684297662042809,-1022.267933010309434394,162.43060495290814060354,1245.25669840558771284122,511.34102407350957264498,153.38292070734007666033
45.2674999999999982946974,-1.02276455339875504968461,0.0209202502663706040031411,-0.365870926676694907531129,0.0272997467232229118483389,0.0138990382871813315107667,0.0362994871952735109754684,0.000726077760560741550417696,-0.00374734100028968576331923,0.0291500814723711920706251,0.999567550846823804633345,0.00239807759170682782690065,-0.0149572353486535081223963,9.26724465909787831208178,-0.00609985554199445230427745,0.0536250622097993942527516,0.00577319382534939584683542,-0.0209531663637963563862066,1.68329885330130446519092,5.70956942727018823546814,1124.90285040134881455742,1100.34118500327372203174,1100.99886944886407036392,1108.85169038141361852468,-714.074522469898852250481,127.550356097279518508003,1120.26628893483552928956,519.243222318807852389,153.380125872766370775935
45.270000000000003126388,-0.834010109959633316734084,-0.129897737151403569466623,-0.432633794041573205291229,0.0250663777701906967387835,0.0151524491029516421292112,0.0350211501655729451343291,0.000775173288095034034722586,-0.00374716137999190831986418,0.0292320244978518176126592,0.999565091025257368428925,-0.000540345633562679117378735,-0.0162940362635468904972669,9.26791202770089839191314,-0.00617013623345746397425016,0.053899837605241064653061,0.00440890292531869940062528,-0.0209705312231593353489156,1.68343061843603347682574,5.70957967741126548588682,1123.40961931755919067655,1100.64134516907597571844,1103.69323094283822683792,1110.18368454136157197354,-501.558339614319152133248,116.174026188886870158967,987.378150784838567233237,520.481808447682169571635,153.377315652057006900577
45.2725000000000008526513,-0.656889227082976367988465,-0.33907981341984178014215,-0.461427778907666563679157,0.0235471302304495339052792,0.0158503973552152448156516,0.0335339500460698422545924,0.000820052841299352382534171,-0.00375384246494707071728492,0.0293178601191357857125297,0.999562484081104596356226,-0.00325186052164657540819448,-0.0181314446241050003516548,9.26864864093136375799986,-0.00626311182952804957474457,0.0541690661501588732740231,0.0030525552785419861161198,-0.0209877465654307940323697,1.68356395346806175794541,5.70958474624614087389318,1122.39505870327593584079,1100.9220551342184535315,1105.93576020279078875319,1111.4540994236533606454,-309.560972431572338336991,107.130619428978320684109,732.797859824024953923072,462.658352379469477000384,153.374495302033807320186
45.2749999999999985789145,-0.527170950123431514278138,-0.59659839407046066916962,-0.452864788828610198567759,0.0228971786855557482565082,0.0152003315858288984979696,0.0321636615075391665841131,0.000858931095306142704422225,-0.00376513781868797938606752,0.0294038263941811782442581,0.999559849714681369903246,-0.00570919150866657648668578,-0.0204757792653381676117874,9.26944056768859780959247,-0.00637753419805817470256137,0.0544292737834613862824007,0.00170571319488765330181501,-0.0210056307131576414093388,1.68369861613848592618581,5.70958510911247962837933,1121.86181445540273671213,1101.17699826622038017376,1107.35722024195501944632,1112.49697630325681529939,-159.074382310164338605318,101.852698170153146861594,394.785003149334386307601,371.232889004924061282509,153.371665602381654025521
45.2775000000000034106051,-0.458272577126469460306879,-0.91680891977797940306516,-0.416830572188441883518806,0.0230501874853326245429219,0.0126486346056263136011788,0.0309773674283121622230475,0.000889520388743635461760439,-0.00377643079962341945282622,0.0294855111350470384945499,0.999557338611756551749465,-0.00793639050473075174929605,-0.0233301915366373596727456,9.27027489653311853601281,-0.00651129080327825064677949,0.05467689163991398121345,0.000369188961097092539255515,-0.0210247542813112794912733,1.68383450187686878329885,5.70958161104802019991666,1121.599686791724707291,1101.43131862506947982183,1107.90968521853847050807,1113.31026386867893052113,-58.1633288452096905984945,79.8220047182031464672036,9.71755041691224796807091,208.765336358176284647925,153.368262467817800143166
45.2800000000000011368684,-0.48163426441669826560954,-1.1590938095788423378707,-0.379500595035489551865027,0.0236025298119042666045164,0.00939720809389620395646325,0.030375672574601778747061,0.000910389786769836835238212,-0.00378376969665765103267852,0.0295558064756410998619174,0.999555180671474086118167,-0.0099541865864385473128273,-0.0266715563918680370614211,9.27114030558221990929724,-0.00666169679335998615038461,0.0549083357630676949234783,-0.000957191192260271861945442,-0.0210457678951351256912972,1.68397151207027651054204,5.70957549046997669961456,1121.57099781117653947149,1101.57610828981160011608,1107.40580799403960554628,1113.54080298504823076655,8.00383175488423503907143,37.1434109712819378046333,-365.671142322358434739726,-2.72894805407552576426156,153.365422425763370029017
45.2824999999999988631316,-0.573490594142982090808403,-1.34502361981171980609417,-0.347805267663292949631426,0.0237562556709409664068566,0.00558992063887515499426284,0.0300290538153468525295331,0.000921502675417182402599348,-0.00378450636191189669979562,0.0296082185008546654170214,0.99955358532740135046879,-0.0117689338219580177935519,-0.0304417734026972142125089,9.27202808400077316264287,-0.00682533239149526928940537,0.0551201358267875141105918,-0.00227462188816922534009835,-0.0210695239984223618712189,1.68410975300047072167331,5.70956775424054985279554,1121.63970595049909206864,1101.61703567992572061485,1106.08132950692834128859,1113.29661912840856530238,38.5482963318539262331797,-6.22940242173762825927952,-615.651576882058861883706,-163.182164941106947253502,153.362580390359596549388
45.2850000000000036948222,-0.69058679398379807512498,-1.47117615050461481018829,-0.325081119944393648335534,0.0228498955508986377471725,0.00164442986201372644446128,0.0297362838763959060062181,0.000926475151133353182902885,-0.00378003016558881108771795,0.0296400146713017079158625,0.999552634270557405216096,-0.0133214638969478688101944,-0.034508653435007419219005,9.27293267940671661619945,-0.00699801053233106620105053,0.0553090717171409798624815,-0.00358534785633693019873958,-0.0210959754698029702812967,1.68425006316609859879918,5.70955865346416491235004,1121.76373929283590769046,1101.54496127770289604086,1104.32755010962773667416,1112.72489216034227865748,67.0757383725342748448384,-61.4758829277574676552831,-728.961136695479581248946,-277.407976822172656738985,153.35973816959162263629
45.2875000000000014210855,-0.784465315774765747924846,-1.51990513884512967734963,-0.310299854603140301545494,0.020543535050836218835979,-0.00217584512945857063564992,0.0293134324781664928893932,0.000930420136995386117331752,-0.0037747346087652149625169,0.0296557399773108819329703,0.999552179399019302685758,-0.0145077930623606493609756,-0.038706925202534617214134,9.27385304445560265662607,-0.007174741840279462434804,0.0554724117429922086719429,-0.00489217600106272004073515,-0.0211243414623277711572591,1.68439310565121314056114,5.7095480086951351239577,1121.97508464236193503893,1101.30965626528677603346,1102.4365238234490789182,1111.9095792442969923286,126.00100216634564276319,-144.667053858433661162053,-768.659118666135896091873,-368.698794887876545089966,153.356897247474535106448
45.2899999999999991473487,-0.801767890016213624626573,-1.48944408443095621663588,-0.289738940420853241519694,0.0168212993498958081339811,-0.00671868809419128541760013,0.0284562242983768982906856,0.000934101233146721662142786,-0.00377092055247511392240822,0.0296617305310583750932452,0.999552030692166582070968,-0.0152779299939008114672667,-0.0429458333472435976885251,9.27479426577123255981405,-0.00735057146066867006517498,0.0556081975299274194890486,-0.0061976301646446910892374,-0.0211541952034486092915078,1.68453791773242089746532,5.7095357067689462837734,1122.39374430366706292261,1100.82162600841138555552,1100.48425451630055249552,1110.88139818590457252867,191.89375161667345537353,-212.406376255176411405046,-610.652852234585679980228,-354.563391845613807618065,153.353491301734095486609
45.2925000000000039790393,-0.699021949219670091224543,-1.39295854912129457581216,-0.258992890778119322359174,0.0132863932555472592095258,-0.0107245757463923837432551,0.0273958321389215671282091,0.000938434975997723430131414,-0.00376940672686304836802584,0.0296652933988101608075993,0.999551978052616529879515,-0.015621910445118770971451,-0.0471284769881200674146449,9.27576678563162992929847,-0.00752083610494263133522397,0.0557155053216097165269538,-0.00750417736164084043376521,-0.021185054019588655388473,1.68468345983734701931667,5.70952131484586189458241,1122.93455340044579315872,1100.24762438401035069546,1099.38325956227458846115,1110.13676228506801635376,266.764889541809623096924,-259.751657088785464111425,-301.545903357128167954215,-249.994344036903726191667,153.350656647412307620471
45.2950000000000017053026,-0.454643054665558210558629,-1.2319609118196597208339,-0.204086232648791249255638,0.00971309069347240684744182,-0.0145929729658783764734142,0.0261273062820224395708113,0.000945114246760562657853622,-0.00377071127430685061263094,0.0296735822684847591612645,0.999551820100601950969121,-0.015546842737565437497782,-0.0511435994570943394665896,9.27678589778315476621628,-0.00768141386545919801348559,0.055794573783318798798625,-0.0088140631978282056591123,-0.0212167694998169932552035,1.68482902201072759496014,5.70950439517253638399552,1123.72756875137679344334,1099.5228677229667937354,1098.97652499951414029056,1109.63142646571941440925,411.706026068679136642459,-344.778770827401558562997,-27.6176629261750505861528,-158.076758823479451621097,153.347826720838668279612
45.2974999999999994315658,-0.0167153084765901682740008,-0.988282132218692099812074,-0.110607785729973595589826,0.00682113881645155482880138,-0.0182022769029141634478108,0.0249493331628137873789974,0.000955340268105211911503494,-0.00377650772419266082813305,0.0296892608239397032265927,0.999551487166356666946854,-0.0150496874841268835076846,-0.0548926898484825218083039,9.27787111147996590432285,-0.00782931917781447619941737,0.0558467813140254495940518,-0.0101289892714648225441332,-0.0212491695511109815464046,1.68497397101279577924515,5.7094846977342523786092,1124.99308353078731670394,1098.52373052987491064414,1099.24517124764383879665,1109.34637849095133788069,511.455140921463964787108,-379.49227045599997154568,195.960640493958436536559,-56.3298958158323443967674,153.344437101119467570243
45.3000000000000042632564,0.425711147740276352191557,-0.768303051026864025629948,-0.0195269275171074292718476,0.00677898419684946299673678,-0.0200744286690998398337005,0.024736931442010626214234,0.000968738103985594027969808,-0.00378515640331592538581074,0.0297140317355057519133066,0.999550953301974964837484,-0.0141986175827874400168227,-0.0583103265146352467418467,9.27904552834423768103989,-0.00796228485021847724734112,0.0558746560205156325706888,-0.0114499798115104012979915,-0.0212818488866911084689271,1.68511792795378201326173,5.70946179903434014590857,1126.28484445598542151856,1097.62540637068582327629,1099.95632820198443369009,1109.3497769866401085892,548.437649422513914032606,-361.539292489166314226168,339.832699461029619669716,34.3424843832787516362259,153.341618088440185374566
45.3025000000000019895197,0.877543044605906930044625,-0.561291413147277817863312,0.0679905863598773696487854,0.00945689795273613187376327,-0.020858496083863243414358,0.0253926642991241235947086,0.00098459882953343927543266,-0.00379310190421412903039045,0.0297520410661056902701382,0.999550125085961416182556,-0.013104261986084317359591,-0.0613443653123466881016412,9.28033436500672870295148,-0.00807840096326992856967664,0.0558817796200605301781827,-0.0127774556062403860795529,-0.0213145281889146262499501,1.68526061927766157566566,5.70943513225176424441543,1127.73527177790128916968,1096.71603406742815423058,1100.94433474494985603087,1109.51809091286781949748,585.381184152798027753306,-356.959915341855719361774,408.30128356038432002606,76.5030151846772241697181,153.338805275637866998295
45.3049999999999997157829,1.28677646444060833630374,-0.381454633145967225704709,0.14269101021414884455929,0.0137476172191869239896933,-0.0210559939954793363947605,0.026393388909905796807509,0.00100431569502000333712899,-0.0038003696977556237351914,0.0298042462544383102152068,0.999548981447796358601465,-0.0118148331917598964357907,-0.0639158432043701596469987,9.28176297383747872515869,-0.00817686248661191050768338,0.0558724501813260138183281,-0.0141114211877013187579344,-0.0213470149347685551888265,1.68540163949276333710259,5.70940454609839331823196,1129.21175037674674968002,1095.84060679397816784331,1101.99783461978449849994,1109.73229206256314682832,566.707590256479988966021,-333.1512400132243101325,408.247436976951803444535,71.9720189558956633391062,153.335997701871434628629
45.3074999999999974420462,1.60517772656262724950693,-0.240767105618042653869537,0.200288110761931620329435,0.0187781778083740864826456,-0.0209306361317244705999574,0.0273397297287822568789828,0.00103010967164163724438253,-0.00380863790556408392251608,0.0298672417446403937191235,0.999547613098332177195005,-0.0103504414987241194490153,-0.0659430951228555661813857,9.28335566254898658655748,-0.0082580486539063514134229,0.0558514310981264167077498,-0.0154514268519840257398723,-0.0213794122741435346779504,1.68554030270585530892902,5.70937039363648501932857,1130.5688097291811118339,1095.05027786736354755703,1102.98557192983275854203,1109.87795100764697053819,536.404986015439362745383,-320.886635928645318927011,398.685684741145223597414,20.1750793118559634820031,153.333196409842685170588
45.3100000000000022737368,1.86356633816310646167835,-0.107499692881220354490068,0.260083115380434048979907,0.0247326410312131150792681,-0.0207406200233477486238876,0.0282431093134235464137127,0.00106492587045966548807419,-0.00381827454626968484235894,0.029938581333628082326026,0.999546068330056103334869,-0.0087556151424113617953715,-0.0673430472041668670701853,9.28513446902058348086939,-0.00832281464449003902106305,0.0558237151703925918444504,-0.0167966778409046196829379,-0.0214119163098128589828306,1.68567632355489793738457,5.7093327913262479356149,1131.89377530682531869388,1094.2361736143341204297,1103.99126304349124438886,1109.8331674591224782489,423.082540351708303205669,-274.672233344513642805396,333.08919203283278420713,-64.5083236598236169356824,153.329841894479386610328
45.3125,1.97869762235969148811421,-0.00868487386247024893692892,0.31503650448389480809297,0.0295738825533513605137159,-0.0206842679912152584142948,0.0287811543752352523573013,0.00111188427235100963270942,-0.00382992146278092557981632,0.0300147593855709590715541,0.99954440013765022410297,-0.00706841882171244106913832,-0.0680426606831173175216065,9.28711770500052402610436,-0.00837274517880790165869076,0.0557941373713884691820653,-0.0181459711921968837311514,-0.0214443782028254856242278,1.68581022729535123794165,5.70929176336597343777157,1132.68422243094073564862,1093.67691670064027675835,1104.65101788999777454592,1109.55540938934768746549,254.993336094689766468946,-201.039493365943627622983,225.770774414218777792485,-158.228571662910525219559,153.327052041770144796828
45.3149999999999977262632,2.00186136199722808370893,0.104789955885043695182901,0.391104929029961856379316,0.0345349737123409050720824,-0.0207869645702910173235001,0.0291124391447669626786787,0.00117368474943535983263943,-0.00384539652208531340660258,0.0300906072375505956317809,0.999542670918210363062428,-0.00530229257684396854122255,-0.0679902481152972748557062,9.28931865122569888626458,-0.0084102531967784333044591,0.0557670385649063557464977,-0.0194976261119201403626544,-0.0214763979044393926720602,1.68594265822702693569113,5.70924727581948943111456,1133.16874198729760792048,1093.23097614750531647587,1105.12011691556131154357,1109.04202460080864511838,157.44967269312058988362,-162.265555316670287311354,156.620264509967370258892,-229.5859401370497323569,153.324267507315767034015
45.3175000000000025579538,1.96038475580547344456761,0.251062080872713366819227,0.492472731223154547297582,0.0395819265689956178988496,-0.0209860687523325713244038,0.029398821432698174493936,0.00125099459096225358936683,-0.00386443418055557302154268,0.0301624744811189934856621,0.999540860524332108738577,-0.0035057805745481798731511,-0.0671828914711324609587706,9.2917448927285750670535,-0.00843805940914117875994993,0.0557461166171400110402878,-0.020849389197464245765401,-0.0215075799568451991872209,1.68607407562903111042374,5.70919908629764538687823,1133.47147079440674133366,1092.86558892405651022273,1105.43411921254801200121,1108.40747968866185146908,100.852964255903557955207,-128.53045183831244457906,89.2593981108800988977237,-254.480711481261863582404,153.321486944225483739501
45.3200000000000002842171,1.85841073277721435808019,0.455265167375873081034854,0.623774735583808359606905,0.0443522606614373121614037,-0.0211559125756536972606803,0.0298981775401560498361953,0.00134304037409004885759989,-0.00388520393263843593148477,0.0302286715129125513334962,0.999538841717783510532058,-0.00175142637500064896061147,-0.0656545779972355220133196,9.29439746303344804800872,-0.00845903491716669918287774,0.05573424913111315465164,-0.0221985312628648276400689,-0.0215373445125787675580309,1.68620535584484532165561,5.709146768464634646989,1133.67300680857738370833,1092.5883238883134254138,1105.56641390611594033544,1107.76962104340168480121,93.6148171955606898109181,-100.062342340470479484793,18.4103959523494360439599,-241.837221317602455883389,153.31871054474521542943
45.3224999999999980104803,1.69302513318347291892962,0.773992390295670684707829,0.798970421719027767970545,0.0492648936473806461910918,-0.0209760408275264965960449,0.0311741582785095977525813,0.00144731789902601232049306,-0.0039060859544530327804035,0.0302900819052190038715988,0.999536501442716440735126,-0.00010212430924987775382462,-0.0634811056746858032306946,9.29727026740841111518421,-0.00847601770141463706220719,0.055733449935102326311398,-0.0235418688174660051259934,-0.0215654298650783046720214,1.68633723922016320884154,5.70909001426258821965121,1133.93954488038411909656,1092.36527721235461285687,1105.52617119230967546173,1107.19829358207493896771,116.944712856761015018492,-59.55400005010824315832,-45.3690780156416408885889,-153.482508817900139774792,153.315382778621739134906
45.3250000000000028421709,1.53900101829038526979332,1.08889825350166269402052,0.936446597069331976292972,0.05260744471562735918857,-0.0201205345134791262207141,0.0331110685700786860907741,0.00155920354530823552369201,-0.00392644276385913006816031,0.030347932845664463141766,0.999533936720965243694081,0.00140330628572318816260633,-0.0607860015041836176941104,9.30034996623458987130562,-0.00849186577910666408330886,0.0557448921300120331379091,-0.0248758447097798089664433,-0.0215921982872234116679344,1.68646993546594026192054,5.70902889460659501708051,1134.25773037286148792191,1092.29055388806273185764,1105.33956851603761606384,1107.00220849931179145642,157.320607819530323467916,0.63337329220270810470339,-102.728162166742748695469,-5.6481413151203225808672,153.312612330580151365211
45.3275000000000005684342,1.38513786654988502178298,1.41775004384454472727839,1.03081345414320324493929,0.0552521313773056133022976,-0.0179485778029373210795683,0.0361523638876949521270276,0.00167476422428644838164002,-0.00394595112326921043655048,0.0304029072148658263685661,0.999531309779303711593457,0.00273928896691617157488352,-0.0576860883288532258483805,9.30361607716786842559031,-0.00850930486286128121009575,0.0557688648021742658378308,-0.0261970157983226516196229,-0.0216181015509322449474894,1.68660400547438138474377,5.70896346754031736026036,1134.72614791948217316531,1092.36844407881562801776,1105.01253038147569895955,1107.17005287549932290858,243.763370688469649394392,80.5904914643002427965257,-172.39135979877792692605,151.793047335515240092718,153.309844564623375617884
45.3299999999999982946974,1.20505020331722989546108,1.76160478486874394477013,1.06037926308997532132139,0.0578367574393715833114271,-0.0131741004804452489090894,0.040718699564153797154642,0.00178834373805863348742828,-0.00396324464685938841757018,0.0304549151486983270264997,0.999528760239228319939286,0.00386649797659579380626482,-0.0543338025365038002068019,9.30704203000087026964593,-0.00853069559823009873622546,0.0558050445331835301421286,-0.0275019761140501348140042,-0.0216435086475308020859121,1.68673986598166081307681,5.70889364905504415048654,1135.47654722630272772221,1092.69350634538386657368,1104.47761171704451044207,1107.76117373598867743567,304.102875783909382789716,165.669026277607201791398,-217.47751027926611300245,261.398973640646488547645,153.306527227621302245097
45.332500000000003126388,1.04883019171858360429894,1.95181520724777413100526,1.00473617967291750652237,0.059915483003685487961576,-0.00721675199682397187223026,0.044476181286753020682756,0.00189510247828824350026233,-0.00397801945835853792976522,0.030501899815433816676169,0.999526436193912570793429,0.00477161538311749594543087,-0.0508695003761891542670703,9.31059574107194265479848,-0.00855815153917187723675575,0.0558525720768587238818093,-0.0287877650809073119819725,-0.0216685247020442124654682,1.68687752604668328437754,5.70881938215295825500561,1136.24666229840249798144,1093.19678921020408779441,1103.92514283007881203957,1108.47704774370322411414,331.291218119362042671128,255.099698498821908287937,-240.44106721645653124142,295.474281868686205143604,153.303767435057778811824
45.3350000000000008526513,0.860690611123604232268747,1.99195915940352752393494,0.875104371330008290463809,0.0625399336379683090658688,9.41274572105407509453601e-05,0.0472985604962298800124643,0.00199567915155048937470017,-0.00399041607354142999208868,0.0305446541625799192209989,0.999524350124897376090871,0.00545789357468468711021004,-0.0473330594094995699139261,9.31424041344706843403856,-0.00859289471855735620398065,0.055910088089316613280122,-0.0300525832104847380465973,-0.0216932102592600969948045,1.68701679578912200341279,5.70874089220692049195804,1137.13300331690038547094,1093.96900483787862867757,1103.27540638096161274007,1109.23854514533286419464,366.741917327560031480971,352.451164964443194094201,-273.669497398008104482869,281.51893059401254504337,153.301014903331946470644
45.3374999999999985789145,0.624346111290666527793292,1.89562887526265000381898,0.703371976367035300903297,0.0654340974613188963715515,0.00726969059644673714498664,0.0491687091810869628116798,0.00209205739441017815952173,-0.00400030564639734798060289,0.0305868878091058379875555,0.999522397880776791723179,0.00592845592286772582468757,-0.0437391709107227133479512,9.31793658768073385090247,-0.00863512125235167508907619,0.055976158265637530886405,-0.0312955293660563890756343,-0.021717685450494676746569,1.68715749122942315629814,5.70865820741445428865291,1138.08037188503863035294,1094.95904503502470106469,1102.55679534309001610382,1109.88464239667200672557,383.830529436894835271232,440.493016201346335947164,-300.369599022070417504438,199.320069342400415735028,153.298270838975298602236
45.3400000000000034106051,0.31453829638979935445775,1.65893863204556168966519,0.508248742686645771371445,0.0678106592137770608497149,0.0128872489448004119705349,0.0500425389587650232270377,0.00218444439971621304913407,-0.00400686696058990838437142,0.030631351399387919676176,0.999520495163970346119697,0.00617507459945151188085433,-0.040134230087885511273349,9.3216443899682204232704,-0.00868433324414691516779374,0.0560495986242233387719658,-0.0325164297481451078364323,-0.0217422543851373550882755,1.68729927370200805114564,5.70857160031586818860205,1139.05215596408584133314,1096.17146991888648699387,1101.77355838585049241374,1110.23514549204537615879,420.579745518774359425151,569.313316352035826639622,-353.929259857978593117878,60.5567163309987677166646,153.295540723096479496235
45.3425000000000011368684,-0.138123316314082783540229,1.28072045776633425262503,0.275523169400950673768591,0.0693244189967743423830271,0.0170154845881965791076773,0.0502850230998576758212337,0.00227123826315965386679618,-0.00400645368542976859638216,0.0306794446719576008320018,0.999518604692012258006173,0.00613706131698547180386427,-0.0365951737664133580629766,9.32532572652414870617577,-0.00873920921129699677931679,0.0561296433778247713664022,-0.0337160141569442101117104,-0.0217679297660888330934181,1.68744122388586492711227,5.70848244962083750664306,1140.18327061263357791177,1097.80561161678633652627,1100.78714904379921790678,1110.18742597832715546247,401.026362375842836627271,617.778341596720338202431,-365.457374635812300311954,-100.899757739035436543418,153.292286538825464958791
45.3449999999999988631316,-0.563120005654229482949802,0.945702361310760575285883,0.094083825256468897602069,0.0691884593536657432899517,0.0183987104540731839785739,0.0500704071369990413864492,0.00235105025847130288257913,-0.00399533299213238914104895,0.0307310932270310789571344,0.999516730095330485639238,0.00575224321900958540654258,-0.0331929883076766685245929,9.32894556583502065905122,-0.00879785909667639594300415,0.0562158958711966791343961,-0.034896101032702173116995,-0.0217955776578842123913926,1.68758288015313651087013,5.70839223000459394796735,1141.0572877759632319794,1099.26036162686727948312,1099.94627151267309272953,1109.73064670335065784457,327.932068615578430126334,592.377975137257408277947,-336.70479597563883089606,-259.84754861247330381957,153.289597849485517144785
45.3475000000000036948222,-0.999844710340039855012151,0.647438432323501067422455,-0.0731294703077763064147376,0.0673970186310930002848707,0.0182740092658306985118344,0.0496949049697627404098554,0.00242318285698774320974236,-0.00397260072132258387073156,0.030787294041959005486131,0.999514828801897792232012,0.00501103163108498200761787,-0.0299852857864130184495366,9.33247315850329428599252,-0.00885795620294835620023299,0.0563083205322241417412066,-0.0360594162159783085397358,-0.0218252976689451566594258,1.68772413399968446157118,5.70830156501661889478783,1141.82293095571230878704,1100.76750149247413901321,1099.1036250639201625745,1108.88818823526412415958,282.100976486018510058784,609.940186896671434624295,-335.100447923206502309768,-383.153510394308341346914,153.28693882210245647002
45.3500000000000014210855,-1.41255137841220190786373,0.401516702814161796641912,-0.234688438062328169619875,0.0641906538310253321766297,0.0175694585398560379485566,0.0493811020425938482225625,0.00248650790437164766200073,-0.00393961916143793170613785,0.0308493070798322652215084,0.999512843632723635423076,0.00394481143110015503028265,-0.0270366593858589465693143,9.33588356904257388180213,-0.00891709784663036533758351,0.0564072314044412811973039,-0.0372091543222064641271984,-0.0218569969864507336609893,1.68786448776208874988924,5.70821047524172708875767,1142.4677926583940461569,1102.31006256135219700809,1098.27076927305620301922,1107.81487915137813615729,216.062623085523284771625,628.464902782915032730671,-326.120908521557907988608,-452.353384825257649026753,153.284308060477343360617
45.3524999999999991473487,-1.7572976583439061659675,0.214249458576248857921698,-0.399403448935301330635639,0.0594314303245079833537545,0.0170486215618111114356026,0.0492564437643848787584666,0.00253941624832382381246609,-0.00389818104543666237374322,0.030914932284179678922964,0.999510826382011385859983,0.00259112617567722886002812,-0.0244182338810236682080657,9.33915877736528088348678,-0.00897340472686337237151477,0.0565131085167001681601739,-0.0383486328982669058551558,-0.0218905487805641438270321,1.68800363799544017595622,5.70811875224814713192245,1142.90324407113894267241,1103.90982600638585608976,1097.47302052131385607936,1106.62642131113989307778,118.419496054669608042786,722.615049931067460420309,-331.799091205005765914393,-496.370840781056188006914,153.281715066946645720236
45.3550000000000039790393,-2.055529145987380790217,0.0203960322241626829109507,-0.605865534300274788392926,0.0523095219790699894613084,0.0173115647500307161255062,0.0488851591672933571963711,0.00257936107176818911479454,-0.00384963911707837409120758,0.0309805251728518110665433,0.999508881973546481347626,0.000977610579444211647004437,-0.0222154978853026929819237,9.34228824987763672993424,-0.00902551161966904345879126,0.0566264949432363703940574,-0.0394808997748737830479904,-0.0219258031241865852800643,1.68814180973487992787341,5.70802588923229947681648,1143.05989013866769710148,1105.92313781100938285817,1096.61177381703032551741,1105.3330249474715856195,-23.9248312567602106071263,756.19422175393503948726,-288.00811603490546985995,-409.765695357345521188108,153.278650950190325374933
45.3575000000000017053026,-2.1972025829110264361077,-0.151718075915173805645608,-0.777741613120848107598704,0.0458058604049360815202441,0.0182029327192053357042933,0.047914077966804996533412,0.00260289085642729503197734,-0.00379751847077930242135846,0.0310421907019806098126935,0.999507121514583873889137,-0.000828450340356681746989409,-0.0205288802452838481382713,9.34526860219529353912549,-0.00907289869714135097100716,0.0567478439878528195805529,-0.0406083808143692520653545,-0.0219624137089295713709536,1.6882792707491200978609,5.70793105754611573843249,1142.78361991485508042388,1107.69079711515746566874,1096.03297994113859203935,1104.5775928343521172792,-213.399499398622907619938,723.418366303643210812879,-186.234126429768565458289,-190.318389127324110177142,153.276139191787819981982
45.3599999999999994315658,-2.23876978976841645163631,-0.369609189242472935266193,-0.92699072895581324793568,0.0397508803277327182890133,0.0191309987766982020351847,0.0458445134287238861836578,0.00260908264604299208744287,-0.00374695652282597789495266,0.031096099424578416137166,0.999505643795965514897262,-0.00272758354407023201337879,-0.0194088157712609121752223,9.34810254736192014490825,-0.00911606106603087516793149,0.0568770874517702459960411,-0.0417330793497716970308353,-0.0219997064119237493995396,1.68841639490316186567043,5.7078336849636155392318,1141.99289264167555302265,1109.54022964252430938359,1095.68060318488232951495,1104.38143300183583050966,-469.856450403618225664104,818.541239218565920054971,-84.0756266427003566832354,73.3300621727346424449934,153.273672420216740874821
45.3625000000000042632564,-2.20795629642382040813686,-0.696253605256518692812051,-1.04683428956541080268039,0.0338771071449275873455065,0.0195096931176912333216755,0.0420280676268625086322572,0.00260105235388853779643359,-0.00370206984979263697271845,0.0311426426929377747621075,0.999504411174967688502591,-0.00463478543354367555906492,-0.018825426019909760610993,9.35079798140776752291004,-0.00915597083615968081182768,0.0570134324704920925075413,-0.0428567150594011195274824,-0.0220368784158714893506303,1.68855394480545228930168,5.70773344020803641285511,1140.43433766283578734146,1111.78350331125238881214,1095.61260180792487517465,1104.9442431452159780747,-658.973269012703326552582,805.887249681515413612942,45.5925784608319659696463,339.680790640212705966405,153.27076534550926112388
45.3650000000000019895197,-2.14230304549284333859305,-1.00883278064318537836641,-1.07899999669944768321272,0.0300247455366415318123163,0.0187500515207285507746082,0.0382030741958765615584603,0.00258237522499828566283075,-0.00366690168889602895185842,0.0311850843202554142696847,0.999503296650650741028699,-0.00646297776781585425753818,-0.0187352029359244692807707,9.35336744779514184244817,-0.00919430885085343978235795,0.0571555704827172092463705,-0.043980286971383994454321,-0.0220728909730414889212025,1.68869242564181298860149,5.70762971517241801677756,1138.69802629661035098252,1113.56966589093394759402,1095.90856607718660598039,1106.07983695503776289115,-750.995403569323570991401,660.800899731485287702526,200.530375033850333466034,565.846892454934163652069,153.268387298775365934489
45.3674999999999997157829,-2.05167614595607306071656,-1.32234676122337102555093,-1.03679603442844925353938,0.0265173472046491068287999,0.0164152152366162373819947,0.0347430858499070752132276,0.00255696569223134995141322,-0.00364415420161248596389592,0.0312237114341517400795123,0.999502269915294894175872,-0.0081466491930870521542829,-0.0190818174460227890643083,9.35582709538573986662868,-0.00923389643033640898639458,0.0573016103681467103836411,-0.0451041455468226201719339,-0.0221069466731484247368211,1.68883193579167167897026,5.7075221654985766051027,1136.67936064499258463911,1115.08750780990681050753,1096.61525368309321493143,1107.77347760748807559139,-820.606419054202547158638,530.403264051965720682347,352.241446811515061199316,735.022332001367431075778,153.266056149014758602789
45.3699999999999974420462,-1.93405034877330983533739,-1.5941618534321364553108,-0.944132327307560248463858,0.0227076329157936233904547,0.0125831013750257042493885,0.0320505087697164278703887,0.00253125058516371660710664,-0.00363387413167309174591435,0.0312599290030948911978115,0.999501269167896166933929,-0.00966403215679155491724117,-0.0197543249294144518390937,9.35819519298452462408022,-0.00927784228370888246206771,0.0574490211200286773896018,-0.0462283999588122065937945,-0.0221387124496090631486922,1.68897278123377914127445,5.70741075217028637212024,1134.59499420134307001717,1116.22168221119136433117,1097.66977331124257943884,1109.7549486150412576535,-807.579122114608026095084,324.399045921761626232183,498.582958792639658440748,813.444049650881879642839,153.263765094642849362572
45.3725000000000022737368,-1.75683080482386011489382,-1.76332111406262193042949,-0.813571338774021102224765,0.018234233731331428440825,0.00718889385712171737063958,0.0302591012033918173307345,0.00251296377353980599639316,-0.00363562704865771999657165,0.0312976590621622668964008,0.999500153520022083242225,-0.0109967594076501376521016,-0.0206106373055698760543564,9.36049108622912306998387,-0.00932919950179695624259413,0.0575948641978887912462604,-0.0473529008006151191922939,-0.0221677754392471046407387,1.68911579373534470605023,5.70729515814816057428516,1132.6414650344174788188,1116.7095030395164485526,1099.10816847705768850574,1111.84069785574456545874,-783.419363343008967603964,32.7072693553705917679508,699.29773131107742756285,885.912801273254103762156,153.261524769838786141918
45.375,-1.4323204174002031052737,-1.79817933451903089192569,-0.64177709985223896360651,0.0123327523220197899506134,-0.000124899878445803116412682,0.0287844155019549297058745,0.00250800969542894561237212,-0.00364944625336917349844867,0.0313376803117893926176052,0.999498883464033482937339,-0.0121149385512917193152838,-0.0215366077610375378226237,9.36273477553271682438663,-0.00939127448321828463273508,0.0577361760041855617830997,-0.0484770508243779832402431,-0.0221940202205226540244087,1.68926154309470599734766,5.7071752672233699854587,1130.67789738462602144864,1116.38521855796830095642,1101.16626196779975543905,1114.18451262140979451942,-634.496606633078499726253,-276.535606656558741178742,785.175773510432122748171,803.114531791109698133369,153.258899287788722176629
45.3774999999999977262632,-1.04542411241005539501714,-1.67358287637407165959758,-0.500921856633207429609911,0.00734923598813291834019878,-0.00629532757002121846207077,0.0278213708433177470125131,0.00251656850735697788790102,-0.00367277727063921926795032,0.0313788109475292217864784,0.999497503028555334125826,-0.0130371968720214628789655,-0.0225173946923802187347619,9.36494706150529054866638,-0.00946673265887900024229129,0.0578706596152488636497502,-0.0495996376923841589268172,-0.0222185384928633086754068,1.68940901646299757032921,5.70705160451317272674032,1129.46898200125497169211,1115.32682500623491250735,1103.03404734460627878434,1115.85627051469646175974,-386.032807041495175326418,-567.839136499906658173131,743.978105257685001561185,589.617381526357689836004,153.256767778079364461519
45.3800000000000025579538,-0.53592840166691413372746,-1.40569746671207673749393,-0.372043647784939257583403,0.00310769744989116943403862,-0.0118054564347270553315017,0.0269369897629179351483675,0.0025354697611976112839316,-0.00370090516750795281430975,0.0314218831817550323104449,0.999496008624636722572632,-0.013822025573094795514173,-0.0235937826971389374985932,9.36714849776612901166573,-0.00955678342105235542613961,0.0579968238344989103771887,-0.050719280198684914273688,-0.0222427057501084560198201,1.68955672073919926923224,5.70692467830971761344472,1128.74773334941755820182,1113.5460228754673153162,1104.88615249409008356452,1117.1325995290430910245,-213.686439897564753209735,-798.178714262577159388456,713.089796495340920046146,438.584194792113805760891,153.254700568626333279099
45.3825000000000002842171,0.048897038469483511402558,-1.05566884117562254097322,-0.256331514245342784175108,0.000503321273040322164464555,-0.0159521911083983954082743,0.0261902065450451936035048,0.0025614935125447594287118,-0.00373031296253890573555445,0.0314686451199603228756629,0.99949436456505535986139,-0.0145046714823699809948643,-0.0248029249310063731881471,9.36935822537535578646839,-0.00966143939189966632907769,0.0581137553332565781616381,-0.0518348464277294945778962,-0.0222674620026031763742047,1.68970357730500753135061,5.70679484293519223570001,1128.40054980176660137658,1111.3359314349199848948,1106.59949632708480748988,1118.04919148865815259342,-66.5786829155573087746234,-928.86827536333737498353,628.612796425730834926071,279.095467427195330856193,153.252691764275652985816
45.3849999999999980104803,0.659421344467335801553531,-0.673732594369475745743614,-0.158912639521583909374414,0.00095080607543996547605103,-0.0177852013316219768890303,0.0259336239886544528410184,0.00259198296993790999048768,-0.00375957830296423265933892,0.0315202278305661137691729,0.999492546894956701564183,-0.0150818636990953380827563,-0.026168065929720499274147,9.3715936407765862981023,-0.0097797867291316269849899,0.0582209419698127145226252,-0.0529455512209812753643412,-0.0222936661004672666275273,1.68984903284860688010838,5.70666242507339127598698,1128.41483993484007442021,1108.90168149865485247574,1108.02921647621587908361,1118.52807686617779836524,62.4415206662569062245893,-1040.51533745370284123055,548.266344522873282585351,112.993981481155458368448,153.250760255504133056093
45.3875000000000028421709,1.31553545349927336616247,-0.272663474767071922766348,-0.0635396304476865264598828,0.00522285257968446714471611,-0.0173897421848745598049746,0.0262176975964637688776282,0.00262587312076713666475491,-0.00378757354478078843082467,0.0315760605299284374813951,0.99949058154133019193921,-0.0155467433979087146789233,-0.0276789360458011973742387,9.37387028240250508304143,-0.0099100707470201870180615,0.0583179351939283885375431,-0.0540511112336338750417042,-0.0223217979835001051336363,1.68999366315468457777627,5.70652760665200098344485,1128.71275740509804563771,1106.13335474764880927978,1109.34082804970057622995,1118.61416139606421893404,138.361618529526964493925,-937.604986030121494877676,414.763230178383935253805,-45.8981803137923449753544,153.248540326980560166703
45.3900000000000005684342,1.72626774242883551657712,-0.0427688436769240939994141,0.00307665108398168457917721,0.01113446651142038258675,-0.0154292991159831471836839,0.0264900062098256255938011,0.00266263105357464422567881,-0.00381099605392434988282435,0.0316339422319460994437179,0.99948855422921478730558,-0.0159373320467720430704262,-0.0293108649971804413603138,9.37620214952902486515995,-0.0100496380726605594874146,0.0584042569610590395212668,-0.055151635761953844705463,-0.0223520806993507646642794,1.69013841973379652650067,5.70639076978249182303671,1129.10664802748806323507,1104.21365656850184677751,1110.10303262710885974229,1118.29858596460871922318,172.924146655825950347207,-648.572781706524096989597,250.484489416613087087171,-200.83921154828280464244,153.246777317255663319884
45.3924999999999982946974,1.93964225859434358234523,0.0442132218885173400302335,0.0697040219318902365408519,0.0183290966449470779653375,-0.012814255233948829149071,0.0263147211155764434997728,0.0027007032236254771215278,-0.00382654517671404984999195,0.0316898877009912441349293,0.999486610588935509014163,-0.0162979986375950194887885,-0.0310559036642658048421595,9.37860177381453219425111,-0.0101954403479762364254091,0.0584794922741933564935835,-0.0562473046449650446176882,-0.0223848270823367792581315,1.69028371003377730907857,5.70625249395888545222988,1129.57737813837638896075,1102.89049083911913839984,1110.59325049678250252327,1117.60996533832371824246,194.290800177296404172012,-423.0178795407592247102,167.358372548056536288641,-331.10038025521475901769,153.245109837373291838958
45.395000000000003126388,1.97946468533346897622494,0.0184702285452206620142146,0.147262915120595888618382,0.0256084892672545326453015,-0.0107678368217976883070008,0.0257487467650124000895229,0.00273959215467560858806029,-0.00383445004841453246369198,0.0317394740487037946286009,0.999484893069086277606061,-0.0166128534272267161520098,-0.0328867400038775348214415,9.38107958075694625676988,-0.0103445867566680314159067,0.0585431262276195560345649,-0.0573383666211063763862299,-0.0224198698601275753228279,1.69042966829570451281484,5.70611291797644515355614,1130.07810202837504220952,1102.09856717079696863948,1110.93982448984957045468,1116.64308406333179846115,202.223858869944024263532,-204.877709512979663486476,123.22178969823715988241,-441.274436525329122105177,153.243524717474116414451
45.3975000000000008526513,1.83917787161077606050696,-0.101193780378583911283563,0.242755447123229634032171,0.0318758784676058254392572,-0.0103732065358336667665329,0.0251666998770887981318189,0.00278136383318326567415379,-0.00383671384070659185830388,0.0317831204056208682651175,0.999483375986325750517381,-0.016837693586704484405292,-0.0347280854563739443952031,9.38364364988335708517297,-0.0104938599544679312530748,0.0585945390602954710446149,-0.0584251574988270960808734,-0.0224566025965583018764171,1.69057637776545188756927,5.70597140314256634496815,1130.58849743272662635718,1101.86610229155371598608,1111.20935944527400351944,1115.40359315569594400586,220.637773760309414683434,-16.0740025653158902230189,115.121299182251391357568,-582.924598280335771960381,153.242041729294015794949
45.3999999999999985789145,1.54118003254911450916609,-0.276527230420481162642687,0.365290084306694295968043,0.036993525413435209003854,-0.0115850021746039064801659,0.0255594040467215580236804,0.0028262538370955165266396,-0.00383547570030345289643359,0.0318238292285443064022488,0.999481955884048200999814,-0.0169337053122423294992949,-0.0365388576918324048392606,9.38630029409722688171769,-0.0106400277267672312836444,0.0586335531862381201251289,-0.0595074652592948727392042,-0.0224945440826188926275453,1.69072354819682768578559,5.70582713968273935734032,1131.18129089717558599659,1102.01819715797046228545,1111.51543098576030388358,1113.72846107193277020997,209.464556835502833109786,89.4021956190497064653755,107.783927533764085637813,-620.484675168018839030992,153.240382610965411913639
45.4025000000000034106051,1.25554497369144546503605,-0.393608913441974073155194,0.454082527252233247860858,0.0388874415654390306884558,-0.013381448781783683577018,0.0274020597512513348903429,0.00286993510980973736551602,-0.00383320901856144466424148,0.0318627707351299277460654,0.999480598211846871237185,-0.0168654890838221896420812,-0.03836445394559823141023,9.38905415906940454817686,-0.0107805456579322441607038,0.0586607736790299150175798,-0.0605841421299616184059644,-0.0225336714305934687763155,1.69087063725755859522337,5.70567974221063778372809,1131.63582021690467627195,1102.31311326964919317106,1111.74827908294309963821,1112.30116977985426274245,169.462721423455775493494,111.109445207227963692276,72.2249442090372895108885,-543.540587359070059392252,153.239101259527444653941
45.4050000000000011368684,1.00409594402064428209087,-0.428155260107437984906653,0.509211015856693149927992,0.0392331907266613572060621,-0.0156737877662324505412261,0.0302652403687819690492056,0.0029076215126474639662002,-0.00383354809065974272419552,0.0319019301521701187374092,0.999479239229401295041555,-0.0165821144746670784408948,-0.0402611187115124030677649,9.39190729836461102308931,-0.010913502793797645942786,0.0586772139931336297880016,-0.0616535957932655767632646,-0.0225739401114850753160557,1.69101756432671601615425,5.70552873214999678452841,1132.02860450429329830513,1102.573744384006886321,1111.87655570680567507225,1111.01075813513602952298,159.197145473816988214821,74.392451918651559594764,3.60654401752399866865062,-500.63175816103523629863,153.237925015134038631004
45.4074999999999988631316,0.785089835485093701095138,-0.338391641759743733164356,0.540768571730057545643433,0.0394658774164508979742649,-0.0183907613370904131355754,0.0330208324826154822617674,0.00293919131472366191443202,-0.0038391897526000497847809,0.0319430628426004073472377,0.999477811918026870507958,-0.0160525097777053718517415,-0.0421992683612171098905819,9.39485846307655059206354,-0.0110376369614810284497386,0.0586836148058225287593714,-0.0627145480531330345996821,-0.0226145889172403441458314,1.6911645532463395191769,5.70537369021132256818873,1132.43180594427303731209,1102.68507552924211267964,1111.76631180303070323134,1109.79801098905136313988,142.668642699636393444962,-1.62726088242296529351449,-102.715962468930428030944,-372.815213947651784565096,153.236634198153097941031
45.4100000000000036948222,0.672160210815407221929263,-0.14706495348945483603309,0.561144235440841132600553,0.040111197839474158066686,-0.0201780728019362830261141,0.0338768661248622232617933,0.00296862220496585133694412,-0.00384895243310657804783337,0.0319856612139066132094456,0.999476322854791265903884,-0.0153199822628276374758549,-0.0440729181419459020707663,9.39790344538463173762466,-0.0111522497173005691317726,0.0586803937515080475950668,-0.0637662163522935143689097,-0.0226548149556533295889693,1.69131128177271250478952,5.70521497233133700888175,1132.7419477177918452071,1102.56560807959476733231,1111.36297589446076017339,1109.14668206539681705181,132.552458932537263081031,-85.6584741764452815004915,-234.664204456537845544517,-185.358564809162771780393,153.235658254744663508973
45.4125000000000014210855,0.605981199030956263484882,0.15237017717101097868948,0.607680732902326048439079,0.0414345385929716369943776,-0.0211618925099483004559353,0.0338205628264424337792171,0.00300107278681323915575652,-0.00386050537120469954358026,0.0320281386782140381486172,0.999474814652134169179476,-0.0144513283851380944233789,-0.0457566237458052887943083,9.40103551066411391445854,-0.0112573240937019827812016,0.0586679847199257989420751,-0.0648080836858194175853498,-0.0226942140503103920168293,1.69145740007870593046846,5.70505306200213979650471,1133.09456823893606269849,1102.25678315835966714076,1110.59299078074741373712,1108.87121816500507520686,160.784897986523702684281,-141.804807337750219176087,-362.075919342225517993938,-61.658167760935299384073,153.234784693353788043169
45.4149999999999991473487,0.550364091967329605026293,0.517715630122173919858142,0.688476873974362746366751,0.0431530520405395204286414,-0.0212581712231445230099069,0.0338706166677801429054639,0.00304205235224288064732612,-0.00387266063135027586994408,0.0320696257055767056098894,0.999473303377611088649246,-0.0134928204117896466396331,-0.0471229060726775852985249,9.40424565722512895149521,-0.0113534681323242004485907,0.058646918675714955482281,-0.0658398732814941128888009,-0.022732396928086234799693,1.6916034278280509539627,5.70488802240680215049906,1133.54587220772373257205,1101.85658404290666112502,1109.55259629775127905305,1108.83839122659242093505,217.159724028240674442713,-163.098635629338104990893,-458.447791608106967942149,16.093117634855797604132,153.233995066886990343846
45.4175000000000039790393,0.474315231361378375485316,0.919408102202046717543737,0.803065035888733458335764,0.0451453487981779699733664,-0.0199029885011010772288831,0.0346860493679602421845942,0.00309371634468229034925502,-0.00388425513610059659069806,0.0321117684380493803586454,0.999471735444300790618399,-0.0124921039971932837375768,-0.0481115960587659152736251,9.40752354084766295727604,-0.0114413586185800886241282,0.0586182994075688454382878,-0.0668612389576035415217348,-0.0227693272392382531355004,1.69174976412389366231537,5.70472002390138310801149,1134.18036685907782157301,1101.44128998021255938511,1108.30075182270570621768,1108.95168375317939535307,327.58767910123947331158,-164.237364070920762060268,-558.453575912868359409913,41.121487963916358410188,153.233305351861787357848
45.4200000000000017053026,0.328257712615948271661637,1.37592050569343360422181,0.945757166719912278907145,0.0475897499515545718828946,-0.0161960567533270261009193,0.0368200929857311620718718,0.00315219758637120747724047,-0.00389362465726250054492974,0.0321567037542295347529731,0.999470062228490552236337,-0.0115088077694779425397265,-0.0487800571000141722222132,9.41085829055110245633387,-0.0115216787544260464148937,0.0585841514383593983672505,-0.0678715375729020270467728,-0.0228054886360530353894838,1.69189595622380339889901,5.70454960733782634463296,1135.1838106032307678106,1101.03539722255163724185,1106.76032841818550878088,1109.04399866641210792295,401.732760389087843577727,-120.984057627830210890352,-538.769888492232666976633,1.51550180871846840169326,153.232591349925741042171
45.4224999999999994315658,0.151497765473957574089425,1.68528185436706867683654,1.03478628476856404638795,0.0492355637631190293235228,-0.0113620918487463088558664,0.0396011058400447465976946,0.0032120470610571432747149,-0.00389992851350549982886173,0.0322073877692025944963206,0.999468210976396598255178,-0.010586052990848117405509,-0.049220675089022537795902,9.41423839212616364591213,-0.0115950909716472060073666,0.0585468794608341308594035,-0.0688703336489041584300708,-0.0228411805821812988193109,1.6920414926104543340557,5.70437721160548605325857,1136.18903066102143384342,1100.8363696920739585039,1105.60690238024699283415,1108.95926126222298080393,416.489399894331427276484,-40.5962334293482527414199,-399.411308441790708911867,-79.3632885134278325267587,153.232089593825747897426
45.4250000000000042632564,-0.0753764483817248032160308,1.87460981294094253257754,1.0527764534215133807038,0.0500582880123682100181881,-0.0052472152133116057443063,0.0430921300231209003506194,0.00326937071545833901620171,-0.00390213357011238602331527,0.032266961486370537848245,0.999466098329833130264888,-0.00976698536201884431884324,-0.0495011322686545948701387,9.41765193219232088495119,-0.0116620682985628838779224,0.058508766690340135996351,-0.06985774779724253369384,-0.0228766755185137796169137,1.692185996633611688722,5.70420303179061249920778,1137.26625760270349019265,1100.83241605540479213232,1104.76327187597553347587,1108.64718222384476575826,421.375420942115852085408,34.9631234071060461587876,-265.685690055307134116447,-154.020951863470486387087,153.231682736614402529085
45.4275000000000019895197,-0.326768746813147215046769,1.94865706165450802700434,0.990440195639809117800212,0.0499859703038284600151719,0.00112003305028342942627206,0.0468032212166029568112258,0.00332101175965474147006029,-0.00389707904692736598062375,0.032331648622693887062951,0.999463868128937615864515,-0.00913157267718186366201039,-0.0496782232415350494258988,9.42108733330770675706844,-0.0117233848869389648689188,0.0584717801651896545989118,-0.0708343178353108143818773,-0.022912787424934695501566,1.69232915346352208452174,5.70402737754424027372124,1138.29590776573309085506,1101.01118530910957815649,1104.27847392996977760049,1108.1891565029052344471,374.405779939046965409943,117.52228279962538692871,-92.096832613917371190837,-189.105300337077181893619,153.231353066127667261753
45.4299999999999997157829,-0.578406953313609473177337,1.89229975147932227841352,0.822643801580908107240475,0.0486263030351788624883191,0.00688912372287187914354778,0.0504720313108995635720255,0.00336608638692248787749328,-0.00388188141856039576477189,0.0323938108429061011328542,0.999461778899634500916704,-0.00874980529962764153051324,-0.0497698592795949718015081,9.42453333928461667312604,-0.0117801111347657274514011,0.0584372526490929758424819,-0.0718009833497942479008103,-0.0229502700029989605001735,1.69247104401377068683132,5.70385045429914150361128,1139.13828650239702255931,1101.42002746940238466777,1104.3027877129063654138,1107.70165572216023974761,301.478335854200395260705,233.612889032277621481626,133.33808439964136027811,-170.302894128435866605287,153.231114527420459126006
45.4324999999999974420462,-0.842273393761668653922925,1.71320089815102472030617,0.515895628617113466418687,0.0457891479621953395584555,0.0121593518541094677137826,0.0538891956841489883078822,0.00340749350534680492050277,-0.00385656887491863222330868,0.0324490466692812090654385,0.999459960208933129166553,-0.00863039092363105525551603,-0.0497275928124185778722577,9.42797881402908899417525,-0.0118333045537219322396183,0.0584056459266969266175273,-0.072759030610055203114328,-0.0229890947861951105979372,1.69261241597002998204857,5.70367204047866138694189,1139.80329944500272176811,1102.1792497542699038604,1104.94516435196737802471,1107.33764203226382960565,175.425584071309742739686,323.043062996810760978406,328.855942512986985093448,-59.4692293645644411981266,153.230930973095496483438
45.4350000000000022737368,-1.00900653914023075152784,1.50829026575302038715165,0.204269348146875279192969,0.0430498600583273591246858,0.0150874698137763857408444,0.0548999332035014983577348,0.00345012939198412887931156,-0.00382473726617889829559882,0.0324954935312953066550712,0.999458439978832546835008,-0.00870919168268248500286433,-0.0494698784201071384281079,9.43141294025871701478536,-0.0118843863574078206085671,0.0583766634799011627232623,-0.0737097097871584755468533,-0.0230285936405001216698007,1.6927542540708335749855,5.70349174063224229058733,1140.0154144227540200518,1103.03524278438726469176,1105.94706742547214162187,1107.40430957533726541442,10.8739055173317709090952,387.747330718895568679727,471.160812014236398681533,136.131703504109680125111,153.230861535992374911075
45.4375,-1.10533412603165093202051,1.28194517673077257313707,-0.116138396366096324774375,0.0402233983584036752789714,0.0172798840682707247062844,0.0537532469254629885480057,0.00349743428400759587271196,-0.00379094384080348126980775,0.0325347048576778430373224,0.999457136863856732134082,-0.00890017851441306934168196,-0.0489448325098390743526089,9.43482575849682092439252,-0.0119347946785886387111031,0.0583497670438435783735187,-0.074653797052155856928124,-0.0230681218891606518162085,1.692896893467848329351,5.70330922380823057693533,1139.8576689725894084404,1104.11798640786537362146,1107.3009684120397650986,1108.01830054978472617222,-149.142594167869134480497,524.618568843675006974081,628.665273939467283526028,408.822438934893227724388,153.230876220811524035526
45.4399999999999977262632,-1.13062572614221656941424,1.00504993533889819268268,-0.465424408914543397131069,0.0365678712959874863130949,0.0196500444258434110722522,0.0514563959619180610882694,0.00354984907118727471136976,-0.0037584968504108216824644,0.0325720061555534803887646,0.999455861550150537198078,-0.00913798725715080778497779,-0.048157348875758954065418,9.43820836383692096660525,-0.011985638851487477596347,0.0583245197361911757449882,-0.0755914284432684518977297,-0.0231070547524063578392894,1.69304029682407986001635,5.70312415322890942093181,1139.26970145191535266349,1105.65833562860325400834,1109.09039379516661938396,1109.44842177000987248903,-275.586627066281835141126,599.043176480438887665514,640.816555431219512684038,627.858912938879143439408,153.230987949301436401583
45.4425000000000025579538,-1.07435724778133945278569,0.770347847110672723225377,-0.711679159803722094501666,0.0332242933649383245797715,0.0214453741661596586354221,0.0496362253314237000800802,0.00360568489662752575744542,-0.00373007018459905635363039,0.0326122118600302435265093,0.999454451887144990074319,-0.00936614697940928164765495,-0.0471525240700236131230483,9.44155255395601145096407,-0.0120382190520023045487985,0.0583005032438949563622366,-0.0765221898080989670898333,-0.0231450384465694720959039,1.69318425836693497998908,5.70293622048393444856629,1138.4797358372572944063,1107.11320229026910055836,1110.50505118919750202622,1111.157595114480727716,-372.439853307187604514183,607.479755763514049249352,498.771670152127114761242,752.118553103106819435197,153.231157077501876528913
45.4450000000000002842171,-0.944037892822060964448383,0.522300238165633645692765,-0.907130135846246687947314,0.0299666389704080493583405,0.0230760668173684187209904,0.047879276868087211616043,0.00366228830420400539025216,-0.00370742955453535680265809,0.0326574405535674378020516,0.999452841925135504475008,-0.00954194055646347127908058,-0.0459931037614027260485017,9.44485052064246843883666,-0.0120941032583442627940107,0.058277199951310455772191,-0.0774453169675111824377112,-0.0231822855793468833585091,1.69332842527432170243173,5.7027453087909911744191,1137.40750218537846194522,1108.69573440742237835366,1111.58425214592853080831,1113.20901453552733073593,-473.778733136508662937558,645.134749116546231562097,345.05159700683640267016,833.833120230596136934764,153.231402123326063247077
45.4474999999999980104803,-0.766588068964696334184339,0.254199180685290182513114,-1.0592204432678486991648,0.0271836898543380035830896,0.0244570851274686189291696,0.045983245923919592590412,0.00371789988952087643164779,-0.00369101632321540895284584,0.0327079631913710783264193,0.999451029660797463094468,-0.00964358050601264726875428,-0.0447239217207981987201038,9.4480945054138949501521,-0.0121548123873789840065918,0.0582537896588607093106837,-0.078360016871109147706953,-0.0232188158700113722598957,1.69347322635704133908519,5.70255136485456848305375,1136.11084217157690545719,1110.33887603584889802733,1112.23030917423011487699,1115.3267607156299163762,-570.650639404019784706179,659.959726954347161154146,134.046714300597699320861,803.642915694397743209265,153.231707797547073823807
45.4500000000000028421709,-0.561378861945784679576832,-0.0449829078179621727473503,-1.15255601443226374236417,0.0254723663092358693083028,0.0252004650233434157602375,0.0434791042920878237354465,0.00377107612643790262446641,-0.00367973882765297534078175,0.0327636279860298654242889,0.999449033567004985201265,-0.00967515318771396820585196,-0.0433826525168945903443429,9.45127682260414303527796,-0.0122214589325581306916702,0.0582293430091015071226046,-0.0792655210694400563786743,-0.0232544043985822290743215,1.69361969554796409909159,5.70235426838614056777033,1134.55424898835690328269,1111.99553304219580240897,1112.25448571743186221283,1117.22722911400137491,-735.811457025271124621213,716.363380210575087403413,-129.881111195279061121255,717.413324038485825440148,153.232083651013994085588
45.4525000000000005684342,-0.328025904744373653088019,-0.439299890093718170547277,-1.18242468022002000793691,0.0251587842096463558394515,0.0250484778765291404845073,0.0394299802576021374278525,0.00381926247139309157918596,-0.00367313850552841627411516,0.032821813748498060436809,0.999446955397926606323722,-0.00962761534323108153499149,-0.0420282890020157173793791,9.45438993366089874825775,-0.0122951478522050072772487,0.0582031806537754575758825,-0.0801609921078939996474944,-0.0232891641323982566402773,1.69376810540964894968852,5.70215380890692280502208,1132.43178488644866774848,1113.92069293690360609617,1111.5809036182533873216,1118.91382733582418040896,-805.940984368686258676462,683.277590597511562009458,-340.301732522484883247671,484.673657403786535269319,153.2326118735926172576
45.4549999999999982946974,-0.172232769937340907118184,-0.789872614182833832074948,-1.13133114001428958239615,0.0259695729936237941493093,0.0240524946624693682084573,0.0356278260880903280272136,0.00386159510444464195572101,-0.00367101902278248442418329,0.0328771568790193549625123,0.9994449774671898545364,-0.00948511183360607745829185,-0.0406883951364923751592428,9.45742626974111111337606,-0.012376799756582835404517,0.0581746723181901376209524,-0.0810460127520373774245854,-0.0233236859377033076135,1.69391782098219612073819,5.70195029293075705822957,1130.52454406651713725296,1115.41192099518025315774,1110.55297705482098535867,1119.65059740101810348278,-763.973207228964611203992,555.745378942572074265627,-459.294252769260879176727,138.633709357665821926275,153.233113411605728515497
45.457500000000003126388,-0.0706791869183807375254247,-1.14678081177368240695102,-1.00580878503312165506145,0.0267655161468275011593665,0.0221482592533892470865187,0.0323023876675743587538747,0.00389912639404762107614433,-0.00367034441586948020908032,0.0329274753091634703183743,0.99944317885196998219044,-0.00928421468303377434017065,-0.0393535010026668519156345,9.46037867081045114048266,-0.0124658384650766906193153,0.0581435454118828659586526,-0.0819208456425925407584643,-0.0233588901460820320965528,1.69406793064379357360849,5.7017446212605982225341,1128.61191885030189041572,1116.6994198316178881214,1109.28443235440590797225,1119.60699588261286407942,-739.67223245407137710572,465.280963209477931741276,-502.496086801845535774191,-142.297712854879108590467,153.233674946829950158644
45.4600000000000008526513,-0.0083695706049556218425467,-1.49084380179724096393556,-0.833382900638548029803587,0.0271798432111607646266549,0.0194862852294642903416833,0.0297422981050312618123144,0.00393060120494114102751571,-0.00366780382573678957053298,0.0329729508164627108102174,0.999441570517729971356857,-0.00906924155193963160703774,-0.0380592012731132967040537,9.4632410729495752832463,-0.0125606594028093328241358,0.0581106971046591175289464,-0.0827859337768639680366078,-0.0233955952940655201310882,1.69421731309044565350064,5.70153742569612020929526,1126.82618290424488805002,1117.73832581122883311764,1108.0404966208104724501,1118.93910883674334399984,-649.443433129863024078077,333.641484395487736946961,-438.06165469544617963038,-396.496542090150342119159,153.234283384662376192864
45.4624999999999985789145,0.0258693142941779918864142,-1.79025164103260459036449,-0.630726504266908127860347,0.0271525310430991741184048,0.0159051967977125174869002,0.0282192898632829050620252,0.00395291946996776787787153,-0.00366194146548892490375393,0.0330133315434869289983766,0.999440177793478046197606,-0.00885285792701746843125221,-0.0368794346739835104953542,9.4660085999616576657445,-0.0126594448155719872806113,0.0580780691848690328038529,-0.0836418444202542687992974,-0.0234343519728319633899094,1.69436466578536037985714,5.70132911039006096132198,1125.36470168465552887938,1118.36762725359380965529,1107.09412408093066915171,1117.62451317216391544207,-526.799412305266400835535,155.190978554321844740116,-292.076096862306883394922,-687.995391352763363101985,153.23494480993070965269
45.4650000000000034106051,0.0630935773607506356075447,-2.05183035672832669860099,-0.386930214865655597300531,0.0266390919581609639243958,0.0101232610257436083517346,0.0274032557849007846195732,0.00396533412577622975531133,-0.00365296485883953841317107,0.0330506026551806580959791,0.999438937049283770974739,-0.00861767047188458784612308,-0.0358475258244333877533094,9.46867719705647914452129,-0.0127601037498365869893302,0.0580478357468192582291344,-0.0844896291208969280051022,-0.0234752369076976011297297,1.69450915961451809010896,5.70111999730321983292924,1124.19218584271720828838,1118.51428070400083925051,1106.58011613649819082639,1115.49913187997776731208,-308.891732851749338806258,-61.2585599938625264826442,-60.590190880808151518977,-835.280379937403381518379,153.235795005723787198804
45.4675000000000011368684,0.107432102662248230018349,-2.15319437606071462099067,-0.2027727494910883387913,0.0261005019394768243701233,0.00404314451470709230324063,0.0272035907391784230469067,0.00396925514426066123468972,-0.0036436753578254332114339,0.0330857516053977632197736,0.999437799981626295853232,-0.00829948785612032169378693,-0.0349606824656888831581725,9.47124366051794730481106,-0.0128611187735193314291005,0.0580220119702753306389909,-0.0853305855479209313108058,-0.023517751656920167502296,1.69465090359616410431443,5.7009100947033690687249,1123.82024302039599206182,1118.06133445362434031267,1106.79117312652647342475,1113.44811127247476179036,-5.70710803504490016280215,-302.479828856623953470262,222.649406909452096670066,-830.763120505371944091166,153.236546974254252972969
45.4699999999999988631316,0.174323283482770624575053,-2.10196487277262722415117,-0.0523404320382270943357028,0.0259559698994318126252789,-0.00263204579734982284378031,0.0272154964808932788022933,0.0039674597611633844948531,-0.00363837729257798000309654,0.0331181857107323840416768,0.999436758203120501065087,-0.00780879751188536669337381,-0.0341942108748326673017814,9.47370578137800656293166,-0.0129617131668186419402033,0.0580021629183259876394452,-0.0861659912165960578667168,-0.0235611602058194043174399,1.69479058979771002313441,5.70069910489797671004908,1124.16365030254200974014,1117.0018815597190950939,1107.69336317104443878634,1111.34531627745468540525,318.079743073459269453451,-584.505574941314307579887,533.986670496915053263365,-878.089770490174601036415,153.237339629706241339591
45.4725000000000036948222,0.277548876043741177266355,-1.85531691928635744659459,0.0818828315020278252323038,0.0263265473593164919807741,-0.0102766082169635265819441,0.0274261380259301114359349,0.00396577203008838859860097,-0.0036409924845529871573202,0.033149854048755589275288,0.999435707383941274173367,-0.00706520145963556583934562,-0.0334682358196406737338435,9.47606205056120209917481,-0.0130612386577921568697747,0.0579888560824831089668407,-0.0869971749231656932277446,-0.0236044180502149592015826,1.69492955157457791948161,5.70048648218061160264369,1125.41064173576410212263,1115.13880657891627379286,1109.46110647901241463842,1109.0576624200216429017,583.322114583253892305947,-749.499313938057071027288,729.895414341071386843396,-758.398854018490396811103,153.238332524799687917039
45.4750000000000014210855,0.375256516864918510112403,-1.51175498581088940674988,0.152934939459238972148114,0.0269844791265417029146878,-0.0154954064843978583931872,0.0278034733390502795946642,0.0039717549306529167929547,-0.00365347808720428799539315,0.0331835831455096069708688,0.999434515530488787327101,-0.00602827509953138968024078,-0.0326708337328462800064344,9.47831169239449700114619,-0.0131591093452272846903162,0.0579816247237718018769925,-0.0878253036898245936781038,-0.0236464167801671391877516,1.69506962508893277430388,5.70027147506937303944596,1127.08026087545977134141,1113.25438499002689241024,1111.34284024275166302687,1107.5533220073602933553,765.833895359324628770992,-769.948440004300209693611,786.671622675282037562283,-479.59069693495581532261,153.239190681945075311887
45.4774999999999991473487,0.473300740873497438609974,-1.06760293985349896672687,0.180922383993680102598489,0.0279850223465066098860188,-0.0189072047171793822251118,0.0284355968940848934101151,0.00398987826435497072719016,-0.00367439256723715076263792,0.0332199553288729729216833,0.999433150877738762929425,-0.00472790790031880209243198,-0.0317478586342789664831443,9.48045521910843014268266,-0.0132547301995658093481945,0.0579797417401103215572888,-0.0886508624893741631334265,-0.0236871166021946494284478,1.69521161986625901185732,5.70005346926235745286249,1129.23981121255724247021,1111.28906437889827429899,1113.39446459238524766988,1106.65970893534904462285,908.915085190927811709116,-756.291493903176728963444,807.202854296379882725887,-240.881164597489714651601,153.240075812600196059066
45.4800000000000039790393,0.561832259410317780279343,-0.581914335248631009456233,0.174630133591533592829492,0.0292411888229366367930595,-0.0208159947669423021909818,0.0291108800907556308779078,0.00401988238438550499198598,-0.00369918449928827554676336,0.0332564834102657413961168,0.999431714174272456396864,-0.00325981838823306835362104,-0.0307333035298368445475958,9.48249443499741140328751,-0.0133473847129809107536769,0.0579827102834498189776191,-0.0894735527191519997014524,-0.0237275463034008135543296,1.69535509352089963641674,5.6998323474625962603568,1131.62483630141673529579,1109.47292752050907438388,1115.37885451423562699347,1106.34891618437222859939,955.639726653646448539803,-643.995662109853356014355,730.744325522290637309197,13.0538812882083732347382,153.240979507556261296486
45.4825000000000017053026,0.627014293675573264330581,-0.0985418225630246974455773,0.132262115281858050330754,0.0307911043207362983276099,-0.0210784420397151436854521,0.0296527051109708762732797,0.00406091736826701393131556,-0.00372286617203590897845489,0.0332904644344820879742208,0.99943031801961357274422,-0.00173188983463483381353143,-0.0296717464678491610330369,9.4844314140455576733757,-0.0134362204552635217807977,0.0579898812316251982545978,-0.0902928400248498297386845,-0.0237684319372059790764773,1.69549966683573849479671,5.69960819634106385933592,1134.01800984582791897992,1108.06908606834736019664,1117.04818621999856986804,1106.72497834179011988454,987.044605098969441314694,-480.883885724261631366971,616.296164174096929855295,293.471157765310181275709,153.241900842911121571888
45.4849999999999994315658,0.664420631885169310493211,0.418155074016530070579734,0.0505284891279631082072754,0.0330398370629128163011856,-0.0196174507881918536167376,0.0300477042861686943764354,0.00411163039173445890583913,-0.0037423521625191079852113,0.0333228458305913008419274,0.999428948734393030051137,-0.000219209535796245635896895,-0.0286174171014723227601806,9.48626818636896729231012,-0.0135201764696659797876377,0.0580007507005624867169047,-0.0911080517734014216912897,-0.0238098734346601711986402,1.69564471624253632064949,5.69938118463553244907871,1136.56005932690709414601,1107.06850809188995299337,1118.46033533510330926219,1107.81627197319744482229,837.76982998372545807797,-240.236406756516657878819,402.326898562454232433083,471.261913062548899233661,153.243020519750729135922
45.4875000000000042632564,0.654604299135027489775496,0.76125810467516930035714,-0.0334596641208196113326245,0.035161317167409493478214,-0.0170275480136536302988581,0.03013219908843267277887,0.00416817546213600273463662,-0.00375720057371367642876092,0.0333561069730549733525216,0.999427541055829982141745,0.00124887416173237453254075,-0.0276715896346396567073711,9.48800700046945699739354,-0.013598397651549442785579,0.0580153920163851699598467,-0.0919182594899962124301851,-0.0238517373865960481682524,1.69578921057179021758543,5.69915172887435161896974,1138.2068589957486892672,1106.86790403456416242989,1119.0598207128118701803,1109.0812879071040697454,536.705976209212280991778,44.7425681205230247883264,120.843986085612442593629,533.800407391845283200382,153.243960563296127475041
45.4900000000000019895197,0.60115152877079769400126,0.98962994395727310603661,-0.120860882352086612678832,0.0371325972535669554530635,-0.0134948782156618686534078,0.0299252045162677476897173,0.00422718163911209136862634,-0.003768768824094429013144,0.033391559579393048640128,0.999426059931255439394704,0.0026747293353074283461801,-0.0269249305918791564939951,9.4896500437669288885445,-0.0136704749437824811530984,0.0580338411106586585241907,-0.0927227369431543324562739,-0.0238936572803856023261559,1.69593279299508292723431,5.69892022275950793641641,1139.24358920795452831953,1107.29222093249268255022,1119.06455526553168056125,1110.48527401015803661721,315.414842508712752078281,254.87871612236165219656,-82.1228274275491685330053,555.007299068079191783909,153.244902016496496344189
45.4924999999999997157829,0.517150593371057398783819,1.12154637417129676713046,-0.201043386731026174629733,0.038744991653049100366335,-0.00982383670006677783836935,0.0294400241202986412414333,0.00428650506029225678017447,-0.00377785983337597646575245,0.0334279087255332438277655,0.999424555306477335747672,0.00404851116755254591961233,-0.0264408820546279538232781,9.491199763127582400557,-0.0137362107960373441145618,0.0580557902840024356305726,-0.0935211547477960425389654,-0.0239355389470468291057692,1.69607570256651873918941,5.69868702116182390682297,1139.78393320829081858392,1108.14229761517481165356,1118.6492065756744977989,1111.85632440244194185652,119.234184499072611629344,409.438744883854667477863,-237.446008624817693544173,515.73313324644527710916,153.245840151931162154142
45.4949999999999974420462,0.408646482922683240701645,1.15499750648198529212607,-0.261369004542783389677396,0.0397944795964018521727823,-0.00674772676717855755812447,0.0285908803623537606519722,0.0043453365485510899585142,-0.00378491063534971191456568,0.0334614868456088038195517,0.999423152305580986265454,0.00535224421642937348009283,-0.026252912473429826367699,9.49265912151219737324936,-0.0137956176962900547294799,0.0580804365278069986699983,-0.0943135684583638889133539,-0.0239778114098004660470487,1.6962182928067681686457,5.69845241744445196729885,1139.83976013044934916252,1109.33941465691009398142,1117.87732522240867183427,1113.0639396763879176433,-42.9855547028417461774552,558.720854605858903596527,-374.979187803718616578408,476.187688796773841204413,153.24676869820353886098
45.4975000000000022737368,0.267550171764876998370397,1.11783873964911428799951,-0.300595532888289385109459,0.0401820169240007379896085,-0.00398447961324574322083958,0.0272256870260878941492066,0.00440429394032530036051654,-0.003790396403444574319197,0.0334918644948766566771248,0.999421861622862395257982,0.00656853107066005664771424,-0.0263624325713453649955298,9.49403186560209277899958,-0.0138483514869883229947423,0.0581065191386799101413985,-0.0951003570617963839284315,-0.0240208899197048957041556,1.69636101350013679400774,5.69821636213307414209339,1139.56900543477649989654,1110.93590188820553521509,1116.77431063665494548331,1114.23726284642702921701,-120.836029584308590756336,578.343532612074909593503,-398.871045677493043513095,380.072757564163282495429,153.247864438879304316288
45.5,0.14959482590289160941488,1.04814078272825272897251,-0.303584776568376624172885,0.0399512603623934578478405,-0.0021581016307709163445927,0.0260314828528562074161368,0.00446456648474443523744171,-0.00379525645861799590038976,0.0335238093017145022400882,0.999420515980892654184231,0.00768883018611801055675059,-0.0267546937809103740901762,9.49532295471528442476483,-0.0138936192217759685307854,0.0581325101392344556483494,-0.0958820379891574675612631,-0.0240644694840491529808091,1.69650456686310047160759,5.69797834881773468396204,1139.23557998252749712265,1112.23113231997194816358,1115.88296999402018627734,1114.96430346420970636245,-121.08930331885048303775,477.435780831162844606297,-313.614988989287326148769,240.649764267246297322345,153.248756553280173875464
45.5024999999999977262632,0.0310213882955879191594128,0.958132071904938986683931,-0.281149497429467820630578,0.0397791220668075387600915,-0.000461365589276267848862362,0.0252613329667066566219802,0.00452604767444654988023389,-0.00380077078303148012394796,0.0335619161297465579130161,0.999418956872978880845437,0.00871011904735142367117717,-0.0274333368742969846421076,9.49653919941289359485381,-0.0139308389374856178566375,0.0581568879922135725801802,-0.096659020922098604078343,-0.0241079943393946657947957,1.69664916993574710346593,5.69773780926331774310256,1138.96355891818279815197,1113.32308079235917830374,1115.20623569170993505395,1115.4405116677621663257,-80.8844941168486002425198,407.158552713072822371032,-214.774658612877090035909,159.009104685956629054999,153.2496200305001821107
45.5050000000000025579538,-0.124064859992639317520791,0.833643870863080005406687,-0.236689288572425965417878,0.0402673876083051301977278,0.00191986899024098678703809,0.0249940973319029910437727,0.00458550967358169105775323,-0.00380590716929485230884955,0.0336067906446314151880372,0.99941717960308240620293,0.00958380993332905856130211,-0.0284526798747680303991459,9.4976901329938350215798,-0.0139595801455936873586294,0.0581784918584939414465396,-0.0974315211815752896251652,-0.0241517561889081876225216,1.69679385308581687219487,5.69749470758521692204113,1138.83115751194304721139,1114.26692508353835364687,1114.80909670095525143552,1115.75934898763989622239,-9.39698126907816444486343,275.35825185222631716897,-60.5928410905252476936766,82.3775541543033398284024,153.250614942106153648638
45.5075000000000002842171,-0.271668089295833248275613,0.714903294083563900507272,-0.191157330801070196590885,0.0409455215010996118052411,0.00418525073888398064375638,0.024933423817431330654637,0.00464070321980947740614365,-0.00380774562084741207551586,0.0336555335501770164219337,0.999415299618655827984526,0.0102273063118192980569532,-0.0298397846762459284519764,9.4987875039744515959228,-0.0139796129508388284473641,0.0581958157625970598503251,-0.0982001047679800648237958,-0.0241963244600936766559585,1.69693795879236941637203,5.69724939293501364545591,1138.91657401183738329564,1114.69987205162101417955,1114.90327148625715381058,1115.85239943853389377182,72.553497179999382638016,100.43563861963815497802,131.141759144094208977549,11.978494946753906802428,153.251403664094624446079
45.5099999999999980104803,-0.433222708397323907902887,0.580914779782390922058255,-0.136670651752869909412169,0.041120029131862377569373,0.00614923854323291742968172,0.0245433907574888129921042,0.0046916000157832858999396,-0.00380416689999483548581538,0.033703792708415350465323,0.999413469842052037961366,0.0105769503148751761734125,-0.0315724447316834827548249,9.499844910792278440681,-0.0139912675157951825466451,0.0582067950931122873869938,-0.0989658122582838806202687,-0.0242420804206100216904307,1.69708171866710832986769,5.69700247311160623553405,1139.19392499784271421959,1114.76910327663608768489,1115.46480549667512605083,1115.81924146237361128442,135.764119016333665967977,-22.9638674575536079203175,292.854741725737085289438,-25.9817783058091542613965,153.252143510536654957832
45.5125000000000028421709,-0.588504077678170034459981,0.439667712366411389535159,-0.0713757901347497475397219,0.0402236666825220509635663,0.00763278268390407948346121,0.0238188385409100512879466,0.00473861411262306662234289,-0.00379658630805048162223936,0.0337480472976013495811642,0.999411800659321114537192,0.0106399598407630954777225,-0.0336148070318190023142435,9.50087780086400712775685,-0.0139958479218981919622866,0.0582091658762808883409434,-0.0997298625925845672046677,-0.0242890352751920883533909,1.69722560813972966897722,5.69675458637245135662397,1139.59539460691939893877,1114.58505271433318739582,1116.36754519488658843329,1115.722490547004781547,177.18210210910032742504,-113.436374169929138133739,414.666349334508367974195,-45.2134738657828805230565,153.252837792476753975279
45.5150000000000005684342,-0.704399213297217441365206,0.301439018192165675280592,0.00739900998233886109112234,0.0378156092447142766488355,0.00881631800234591520015748,0.0229327939982994499779068,0.00478342890935581389888487,-0.00378929092046779818214741,0.033787308768013862847468,0.999410300095965764555217,0.0104834460585022867795679,-0.0359015597128339303267808,9.50190330722793241591262,-0.0139954961361513693235414,0.0582003320810732180379254,-0.100493677253301563756516,-0.0243362703636266948514777,1.69737048540644508420883,5.69650603814820755133042,1140.07983550838866904087,1114.20192140578615180857,1117.5381372433487285889,1115.59317409304458124097,209.551934780265185054304,-180.812541255255212035991,522.903333560200621832337,-55.2758080030846699060021,153.253471248696797601951
45.5174999999999982946974,-0.763497593587416423233094,0.159814929083921503094601,0.104883184231782972117841,0.0341230816019192639831914,0.00976028282194011352623786,0.0224061403003106840436942,0.00482765328478489911395721,-0.00378474827131958235781894,0.0338238843256830484795827,0.99940887211332429806987,0.0101453232753613079020205,-0.0383609422845102437937825,9.50294072958163305031576,-0.0139922608217424738336065,0.058177705354268013926422,-0.101258713063609354088079,-0.0243828267735618081646365,1.69751676514917804183824,5.69625696638613554512176,1140.64315428081977188413,1113.6809900080577335757,1118.98206186268521378224,1115.44611150698960955197,183.826486437871238877051,-177.80410547302381019108,492.534831359328507005557,-46.8712920961239731809655,153.254153741541017552663
45.520000000000003126388,-0.7364581500080822351606,0.0812816727389700094397185,0.169258894941804571843136,0.0311859036364234530613881,0.00952041454097805016354439,0.022974002681780528178912,0.00487152223401174800515578,-0.00378287902491209002825423,0.033860660006314532988192,0.999407418235869204892197,0.00962014520929826283390796,-0.0409395564897320346497978,9.50401130007434602475769,-0.0139882096754557812973152,0.0581390567183978773657671,-0.10202613594192695700702,-0.0244284092121143624198876,1.69766387717201872042949,5.69600737885344265976073,1140.99896794057849547244,1113.31290087842057801026,1120.00081140014663105831,1115.35881763256384147098,93.8227384908234114391234,-113.512901555292188504609,325.157401171843162046571,-20.7586891760350447100336,153.254652609273733787631
45.5225000000000008526513,-0.639657591157352878319386,0.0642296204138161075380964,0.19020166707862368182802,0.0288772762203287763904669,0.00811003323787008040257618,0.0245125810284617176582067,0.0049156584005757650995827,-0.00378342794701317080424685,0.0338997780271225318537986,0.999405864862686232896749,0.00890567456176461630379393,-0.0435713903962027943039814,9.50513693164683104441792,-0.0139859343467988658793466,0.0580823049111331909943878,-0.102796739588933302989027,-0.0244728176218178133938252,1.69781135709768848940371,5.69575702226233904212904,1141.11226797327412896266,1113.11342550028098230541,1120.60784886854526121169,1115.34231806110938123311,-12.2888306026764340117552,-44.2704435670241522871038,154.151671963522090891274,9.96845827972717302145611,153.255073004388293611555
45.5249999999999985789145,-0.503899598792059255636389,0.100638920556131841732572,0.16375380489275556672446,0.0272708693659753816096458,0.00653408479643649824780693,0.0261892850559805219490261,0.00496412220880089981311922,-0.0037876159828550966073013,0.0339443922795399782854631,0.999404082070335375576065,0.00803649914872429232959306,-0.0461223078113458945237468,9.50633879071266107985139,-0.0139885278136100878881853,0.0580050488879825382193545,-0.103571060108037404923209,-0.0245153037364475440140765,1.69795973455490667447521,5.69550506708620041251834,1140.93752378756516918656,1113.09154866058565858111,1120.7715697599635404913,1115.40865992396243200346,-154.995986000415371108829,36.3401321806846340223274,-47.1851727919997401272667,49.6926839744192392345212,153.255424050375012257064
45.5275000000000034106051,-0.350768229374176232493454,0.178894164147968631750629,0.084349909184119178928718,0.0266155461572440132922424,0.00583364696673259203879569,0.0272932353586681913926171,0.00502261496703721929679709,-0.00379856441940280061680957,0.033995859236864545138701,0.999401985087456701251085,0.00709067081942364035862525,-0.0484258857725516911330033,9.50763662624911454201992,-0.013999745650437845148617,0.0579049583228809575108365,-0.104349053103928446351034,-0.0245550912768149227904946,1.69810971603446025923745,5.69525023357459225792354,1140.33728804327165562427,1113.29512616118449841451,1120.37192300458514182537,1115.59078148098160454538,-370.48259465381454447197,140.388707285384072065426,-291.913011575557732157904,104.49922156603062717295,153.255686624717725408118
45.5300000000000011368684,-0.182878911421861023445246,0.26488672288376663432885,-0.0468125737982092310351945,0.0267807775113868690164409,0.00649854715874190018432,0.0275498390186772156018602,0.00509312785724043773361025,-0.00381807257157237671385541,0.034052886151110198231784,0.999399600820682465496247,0.00612448162162904791161466,-0.0503847991096989245018989,9.50904886117996284156106,-0.0140230459811470364872577,0.0577810234772358904953293,-0.105129633345529757693093,-0.0245925273000286020996796,1.69826093724555349240291,5.6949916281171102383496,1139.08511081429514888441,1113.79349219701293804974,1119.3120047020850051922,1115.93115603179285244551,-542.520298888978231843794,222.968536209439633921647,-463.741244906999554586946,137.72241729101344276387,153.25589412171581216171
45.5324999999999988631316,-0.0741615095348788083695624,0.281513046800805410985191,-0.160510644058931589706063,0.0272843587005339206774668,0.00824502455719668819744683,0.0269080788389852026964988,0.00517231889249901086169636,-0.00384329824509413268962543,0.0341146512768628340506183,0.999396983522939041932887,0.00510742245080082063468652,-0.0520016507421940804567484,9.51059218761417923815316,-0.0140601133122871813085908,0.0576341918116626966694938,-0.105910809098771332981137,-0.0246286639088369209427132,1.69841236744563106597639,5.694729032650895916845,1137.62468654882923146943,1114.40996884223068263964,1118.05321678005225294328,1116.27939356743604548683,-650.56797619857570680324,284.233325488903687983111,-548.020999153542788917548,137.273387076923228278247,153.255974385876470478252
45.5350000000000036948222,-0.00541425791158747435338761,0.192888277011806080762923,-0.250503194700063658295619,0.0277408557124091993684178,0.0108195008507061644908998,0.0257573681629216892641221,0.00525312042426075674617092,-0.00386868892394867961923022,0.0341800109938258864228366,0.999394228306187737409516,0.0039585280273076797752374,-0.0533516980941044147157548,9.51228038485245974698046,-0.0141110501867618576971042,0.0574671793265405586592642,-0.106690103937804689482327,-0.0246647641096355216272507,1.6985628525637666008663,5.69446283590733326462896,1135.83227093330060597509,1115.21465882445818351698,1116.57189970631588948891,1116.61752296717781973712,-826.096341158686641392705,386.714278090751122363145,-660.242516139968415700423,121.976084114914002043406,153.255955985886515691163
45.5375000000000014210855,0.0368058702549762944977729,-0.0574798123399168636726841,-0.30957352913274549521816,0.0281253505464839487215656,0.013746646673854279185889,0.0243072632257932200183781,0.00532887922068673962339158,-0.00388955468176267141894309,0.0342470210094436636194537,0.999391453381775374253948,0.00261545195098832755631335,-0.0545084484239093461366288,9.51412299103504999209235,-0.0141750993409437784503746,0.057283601598525378528759,-0.107465200079330927551702,-0.0247021657458663182471703,1.69871124390939964854397,5.69419392153967951486493,1133.49420484303368539258,1116.34354023268542732694,1114.7520041993507220468,1116.88927398801092749636,-851.596362281999631704821,425.464653639324239975394,-643.331810111424942988378,58.1281341832055886698072,153.255818297596164256902
45.5399999999999991473487,0.0486604925279790420655779,-0.37165054754137466508368,-0.310764548789933814365583,0.0282777636085284611588975,0.0151713670339471470155379,0.0230954013421772012815136,0.00539723229048588021283805,-0.00390375218306454000588568,0.0343135378966849119430904,0.999388752628902032881797,0.00106751061326492563408053,-0.0554728491616587535140148,9.51612452745152737065837,-0.0142510607276218823069591,0.0570869920290021024000815,-0.108234509145242019378941,-0.0247414181927398668658924,1.69885710331279460305609,5.69392317295313965530568,1131.57428912189448055869,1117.3419820926528700511,1113.35524065576169050473,1116.90816363809358335857,-713.418796956374308138038,381.89966618682336729762,-501.566164289277253374166,-54.192592727321894585657,153.255606986171954986276
45.5425000000000039790393,0.0512583378477142817541967,-0.742527830869980087769022,-0.261896607907106337975733,0.0282667749969311710156461,0.0145988268167057538837739,0.021935047820458467709992,0.005458693434066249662584,-0.00391128584225089882125959,0.0343763192332956282748491,0.999386235277525125653142,-0.000654198108479851769825331,-0.0562013187765715571675429,9.51828474402062774117894,-0.0143375457073521769824076,0.0568807817915423508114969,-0.108997071668947703715347,-0.0247825202015669043831281,1.69900055643507519320679,5.69365119256497553834606,1129.92711085824998917815,1118.25303856362052101758,1112.24417337790305282397,1116.61831102437417939655,-579.28849106262907753262,322.574892480287019225216,-380.098491774684760002856,-173.870468578436145890009,153.255296222052180610262
45.5450000000000017053026,0.0569289526020816602502883,-1.10279618828804681918143,-0.177403484249755605262067,0.028146614965106991207433,0.0119911023226120603407674,0.0210200291355105185753249,0.00551423402805865416065334,-0.00391301853130468155206323,0.0344307365716232730012969,0.999384053755565493482038,-0.00250405295386189191697568,-0.0566519924019230347589371,9.52059915233323650340935,-0.0144330041556450516804233,0.0566684999764366717500685,-0.109752261777428264388767,-0.024825690873906691019668,1.69914170216633642063186,5.69337839019185842914794,1128.6778466665798532631,1118.95485655505513022945,1111.45474819688729439804,1116.03881129520095782937,-373.055650539093278439395,198.323005483233202994597,-230.647937864869760460351,-297.942059888735400363657,153.254904364027169094697
45.5474999999999994315658,0.0762807603002973455552649,-1.3778906802094266215164,-0.0635854947414706828112685,0.0279057681877167909623161,0.00718783984235165686327296,0.0205857117747137233210175,0.0055659616438109849045901,-0.0039104303956159465818776,0.0344731403649179424242277,0.999382319292401177790452,-0.00442692160517794974783357,-0.0567723427034833791338109,9.52305916406267805029984,-0.0145357088347969256453274,0.0564534151965008432205728,-0.110499734873021504544255,-0.0248711118420629762049145,1.6992809922077560802478,5.69310490974600114100213,1128.06183260555621927779,1119.24465359103578521172,1111.09093368857975292485,1115.12860072493185725762,-107.253735942994964602804,3.00589649059321262214439,-70.2135451726558130758349,-457.306581614641572741675,153.254417271420436463814
45.5500000000000042632564,0.121498161171746735242927,-1.54008195663843849843033,0.0843642196975579322648642,0.0277278769087559266715015,0.000123034211134105263447946,0.0206946546160743996556342,0.00561551792193528895302812,-0.00390455404446203753476841,0.0345054880159102739245469,0.999380954323406123229745,-0.0063800178411653335475151,-0.0565291823278389338192085,9.52565257136901699652753,-0.0146433011593422191670699,0.0562387912352335997412389,-0.111239111250291136667734,-0.0249185403660290988314685,1.69941914810366290211618,5.69283045313852209545757,1128.14157798686460409954,1118.96988603750810398196,1111.10368047102383570746,1113.7522783871265801281,160.886640107000403077109,-212.185557701269004837741,62.2572107685436790802669,-528.879258839926933433162,153.253726820381530160375
45.5525000000000019895197,0.176320677476783677084526,-1.51460489939727271924141,0.200085672753266080592383,0.0279363278332301241679847,-0.00587451237376058251621336,0.0212873431253358079418003,0.00566162098594288117764384,-0.00389642625133837430112527,0.0345327137665904088104085,0.999379793192474386032131,-0.0083260945881930836787177,-0.0559554295664482573280374,9.52836399725399374460721,-0.0147534747754135102393303,0.0560282409218438581799404,-0.111969529696502714810613,-0.024967300770412943072829,1.69955646368279378322086,5.6925545747894394921218,1128.86626580609163283953,1118.18372580252889747499,1111.40221974242263058841,1112.48420443073086971708,403.834018295086764283042,-419.678387702715269824694,151.905652733968878465021,-497.411859168821536059113,153.253066726377056738784
45.5549999999999997157829,0.243035243644902004822583,-1.33778310085996698930444,0.290516226512032349482695,0.0286373155421892344740797,-0.0108721481968534587625452,0.0222686050184974573817875,0.00570187735682920610047475,-0.00388837178784503644662918,0.0345576912251999851521944,0.999378740312972246861989,-0.0102076017065566571062618,-0.0551158616450410573928131,9.53117490046142279425112,-0.0148650755740570746088469,0.0558251376465853238473258,-0.112689707355799875743152,-0.0250165848156079576036781,1.69969276770458943559561,5.69227674022657836871986,1130.16074807833820159431,1116.87149409899643615063,1111.86320873469298931013,1111.26521909128473453165,587.522111238820343714906,-588.92639142481027647591,191.852176815647766261463,-450.250751029489265420125,153.252323572241493820911
45.5574999999999974420462,0.315296757231095348128491,-1.07254611190514892449244,0.351010677868987819305602,0.029570923482687676980829,-0.0142249918893297428584832,0.0233752202448822520020055,0.0057368001138056014601152,-0.00388463661796154512140244,0.0345830945612677562173154,0.999377682221583074628768,-0.0119315100024761783226168,-0.054030149370566132871474,9.53406349467939051578469,-0.0149781794550290468792664,0.055631709917899681283604,-0.113398348747412128223466,-0.0250652760642456132189615,1.6998283347094969020219,5.69199586243975730326383,1131.80387636228306291741,1115.23909384540752398607,1112.36148062649999701534,1110.23295067558547088993,707.713960411776383807592,-685.568398023601162094565,192.90829203913881428889,-333.155371874784236752021,153.25151564671350001845
45.5600000000000022737368,0.392524963770693569031778,-0.760756980484749156801172,0.370149159102666602816356,0.0305209176187789185674681,-0.0153191469801137701567395,0.0245168560584271520708111,0.005771011033430096734409,-0.00389065028414678710025343,0.0346107291264681204978615,0.999376507770772803951331,-0.0133819733033544163713913,-0.0526482670899853996693274,9.53700516070242443333882,-0.015093979396888867680615,0.0554486678536604341016591,-0.114094408683944298354973,-0.0251122154611519085576354,1.69996390927650020685746,5.69171102294610875560466,1133.69931788039889397623,1113.44365210887667672068,1112.82775019488917678245,1109.59944223190996126505,849.309800653665888603427,-758.205832717770590534201,193.471970991041587240034,-149.526327080835386595936,153.250635152928509796766
45.5625,0.492075399992111361946456,-0.401569378721846392821249,0.344530060884753519534485,0.0314014160655640556241153,-0.014637976692193587630042,0.0259451236255636361049959,0.00581029764672333099567725,-0.00390865788082127123270748,0.0346410873223815043986384,0.999375157079443576790823,-0.0145049816094123470988642,-0.0509023446267817258892308,9.53997367771779281042654,-0.0152136089227144465085839,0.0552758000529724249916264,-0.114777166589466142476716,-0.025157153256916059413939,1.70009980591709752850704,5.69142238043288806181863,1136.0504253655535649159,1111.44806468181673153595,1113.32884048145569977351,1109.48531904018091154285,846.109801302642267728515,-655.508032309494865330635,181.569804725524193145247,81.573714302550413890458,153.249502548160876358452
45.5649999999999977262632,0.579928273096508295481044,-0.142779091393113538588366,0.286420723469170024344521,0.0319082090115700156562895,-0.01342332296564250661286,0.0270716801839210492730547,0.00585859660026087809836515,-0.00393659740302562503877493,0.0346746621191636392178559,0.999373597624399367944648,-0.0153314105083014531882846,-0.0487620544500637978502233,9.54294239312260650365261,-0.0153373722560748056154001,0.0551127534270823490891722,-0.115446256124153545652433,-0.0252004706609736672806577,1.70023627601994231639537,5.69113063254194528894914,1137.92986688690825758385,1110.16611194733218326292,1113.73559921851597209752,1110.00731080342234236014,706.647695376843785197707,-388.444616028511063632322,176.12148327998596641919,335.085703948663194751134,153.248501646490723260285
45.5675000000000025579538,0.662638837389476931249988,0.0736582816174513044238381,0.200403629399809463107474,0.0330431829375130298176444,-0.0129156954558150779965864,0.0278509736915442777938079,0.00591657038593555034688976,-0.00397090137726607058515915,0.0347106824993288348712994,0.999371865911467427423531,-0.0159243444432369402052885,-0.0462622810694119993013551,9.54588517929145119467194,-0.0154651747677011525833324,0.0549594703417975588566335,-0.116101687509970505352008,-0.0252428252265762750883304,1.70037361097516059871282,5.69083677995915948599759,1139.58366384243959146261,1109.50584160167318259482,1114.2094478978560800897,1111.16074755992508471536,651.991962847690274429624,-123.61055154117863708052,239.638454359387850445273,621.820481346321912496933,153.247449561971194498255
45.5700000000000002842171,0.732302714766795315171066,0.310410006388649517550249,0.0827645613897572129946667,0.0359803221196022399164249,-0.0133537147013786956090131,0.0282554570520455947124638,0.00598046821323806529480116,-0.00400647128150829427012392,0.034747912763077010156465,0.999370046535195344361568,-0.0163802142149819668359711,-0.043523568530202144666319,9.54877772497445498345314,-0.0155961674662947902963994,0.0548166428650896167540374,-0.116743875869869950800961,-0.0252855688957486363088734,1.70051133142973021072919,5.69054206004692986198279,1141.18982670114837674191,1109.548059189625973886,1114.93379149031352426391,1113.11641321015554240148,516.008660574349050875753,149.62158257235353175929,295.534762183020177417347,773.351734439005099375208,153.246137439658440371204
45.5724999999999980104803,0.751511902332003933757676,0.505454734834202779047985,-0.0128884230232067017313247,0.0390904391915230312037899,-0.0138174021278840916671093,0.0282887295008633320170244,0.00604492310146601333209482,-0.00403755537382235497878558,0.0347867282395814617079743,0.999368180429276886655998,-0.0168101290804826136726646,-0.0406980795707068826461139,9.55159827075793543826876,-0.0157286482008889595685108,0.0546852859370545660300245,-0.117373905214920165596126,-0.0253300097098524135130759,1.70064862314016984612408,5.69024725165891798184248,1142.16370714530899022066,1110.2539495145342698379,1115.68712170876983691414,1115.02750623211659330991,311.017504365077058992028,393.819174708622540492797,325.579391540274514227349,767.705511963475260017731,153.245009470204621493394
45.5750000000000028421709,0.731491480518155379186851,0.698830804020677986976295,-0.0895151352174935188710236,0.0414314837380133429989293,-0.0133014949876279677670743,0.0281554407274321322196542,0.00610676911727260369328052,-0.00406074782746463410626481,0.0348297126847845056607511,0.999366209273033545557041,-0.0172799859596583990639651,-0.0378974576792380224432577,9.5543278359994570081426,-0.0158608346004650811733594,0.0545659476924498926253548,-0.117993674482752067267377,-0.0253765486920595854936078,1.70078505360662202150479,5.6899526273230200956732,1142.74491422297455756052,1111.51715506317009385384,1116.56168844801572959113,1116.95494076997488264169,171.656688806573072270112,566.503245898621912601811,356.61020679894994600545,733.782085984318882765365,153.243853561753098802001
45.5775000000000005684342,0.692345783896017974434756,0.875683613010264871867605,-0.138404111319115480371877,0.0429016555870235585801176,-0.0114965257342186950167973,0.0277465580609263275102538,0.00616489548204836312894628,-0.00407542969962130380290333,0.0348811104096763552329108,0.999363993046967769018352,-0.0178019609126932598641702,-0.0351946591806671787994176,9.55695081148177827401469,-0.0159912771025735138408219,0.0544586921473919280400899,-0.118605613875014712088607,-0.0254249374446495444990202,1.70092043503912337953921,5.68965824716684842599079,1143.02199058934229469742,1113.08646574402882833965,1117.47017274276549869683,1118.69641666204006469343,50.3347300289081758251086,659.282950430596656588023,347.751932958497263825848,614.011017381893907440826,153.242680223685425744407
45.5799999999999982946974,0.648848287485772168281528,1.00641012635963611465684,-0.140612096968578403899386,0.0436806166862986067211949,-0.00839724135107699706792594,0.0268899124744931099229017,0.00621940041095979563590124,-0.00408201789014648892123249,0.0349428374085543336224902,0.999361461397362038638903,-0.0183684247075144996275142,-0.0326378390886378350055352,9.55945547124188088616847,-0.0161191465632593428081165,0.0543630725170574854998584,-0.119212374284777725130802,-0.0254745586134916442155873,1.70105492679497105612541,5.68936407905867369549924,1142.9965878731188695383,1114.81356981532007921487,1118.30044811280663452635,1120.02499585688156003016,-54.6624120901644801051589,743.148658916181375388987,310.458575948473821881635,462.680414022169998133904,153.241492614801927629742
45.582500000000003126388,0.604155425531742951150704,1.08464337546207412188437,-0.079231825440934669502191,0.0441161650986455350365034,-0.00431421047740432501982344,0.0255802342335743095047551,0.00627209224844277411087257,-0.00408049416685166838059118,0.0350154557800023691349622,0.999358582998427058541324,-0.0189795093362138470038936,-0.0302386861260014322416723,9.56183391737767429674477,-0.0162439730373934408669268,0.0542779341058059333624541,-0.119816658639210399384112,-0.0255244859088231655641632,1.70118926649293533692742,5.68906998349471137998989,1142.74867852889133246208,1116.80220903861163606052,1119.0224656225086619088,1121.00981873215209816408,-101.3611938924377540161,679.967277861958336870885,191.285935253920257537175,259.296053878783027357713,153.240059459470501224132
45.5850000000000008526513,0.567980908908908066479171,1.07805271983446160355413,0.0229684233732663119209594,0.0445043549642954242018256,-0.00118949494114637776935595,0.0247492708502209772525315,0.00632445455454244426923838,-0.00407150205104779214226873,0.0350982613019161365786047,0.999355369773613722017558,-0.0196232951265665166162844,-0.0280110192022150483737164,9.56408192610030205571547,-0.0163659481108675078364634,0.054201870666999413250764,-0.12042070717118681655311,-0.0255738699658199161723893,1.70132403047597335898899,5.68877566456113292758801,1142.48978190365642149118,1118.21340620463161030784,1119.25687778907672509376,1121.32147612627613852965,-79.2735870012432144449122,478.747892941308919034782,-10.0720543602711334330024,39.4313587642404215216629,153.238864487067786512853
45.5874999999999985789145,0.508070650501411980037858,1.00153784083185448672282,0.16200657217505270990543,0.0454811787490938534972429,0.00154443703585258073664177,0.0247788276225914469441669,0.00637693581892327145121957,-0.00405769798953879191893979,0.0351860202166562330283739,0.999351988694163639870283,-0.0202503872530659725925695,-0.0259844576492668372091899,9.56619832570983419373079,-0.016486540872981084171478,0.054133344458203697113774,-0.121025949992212389361157,-0.0256222220597327916824515,1.70145919337584761166227,5.68848077393985462890669,1142.35231059388547691924,1119.19594850331600355275,1118.97210535070735204499,1121.20697552597312096623,-9.90823273363678325154069,304.245799396793586311105,-210.753811594378419158602,-90.6693066773177633876912,153.237675698032830950979
45.5900000000000034106051,0.400741203832942316509502,0.875562645230792413464371,0.313057328431680048641539,0.0472131279182898197510632,0.0040345997937011037967614,0.025568753983022728809571,0.00642870757861564636609364,-0.00404225119430012911486694,0.0352735648161415504819871,0.999348610088659050632032,-0.0208024113505103358523485,-0.0242071957043466928771736,9.56818424593171812375658,-0.0166074691155117526442098,0.0540709534920127202206608,-0.121632874607127808297413,-0.0256693979329209454043337,1.70159458776488947684413,5.68818452693497444982995,1142.44024073998821222631,1119.7346352016163564258,1118.20310873110429383814,1120.86812959288931779156,110.34342002661827564225,100.884486791340577838128,-418.259595630447392977658,-154.092493723613472411671,153.236496683977094335205
45.5925000000000011368684,0.205233207132328038246882,0.703862240634069769029679,0.456341204215637175067855,0.0495802737110067198722518,0.00615556304570309339996292,0.0268572948104061348661986,0.00647774038611308687618529,-0.00402781739808226891402798,0.0353577767188265751352461,0.99934534293048615793964,-0.021231400176845584282237,-0.022743164761292747333421,9.57004215481929954023599,-0.0167300215712707922577351,0.0540135324423944851446322,-0.122241002463154876944706,-0.0257157614043142038195988,1.70172995576911501025563,5.68788578801084909741803,1142.90402769401885052503,1119.70037093727296451107,1116.88080737255404528696,1120.43651305735465939506,297.462246046004509025806,-136.112602036733846944117,-672.763708024306424704264,-169.925964604426496862288,153.235334161085546611503
45.5949999999999988631316,-0.147211587367383156532696,0.467463121573784334827906,0.59659324979932448762554,0.0522085722577077873673979,0.00812425568774455784948341,0.0285168244957335788314357,0.00652441238940289301023734,-0.00401608015152650574958182,0.0354355259590551155413074,0.999342286437263416232213,-0.0215062249557393010690465,-0.0216022089721838589371217,9.57177423571466867713298,-0.0168550118493959663612536,0.0539592235525388833061733,-0.122849354572102845151171,-0.0257623090338107291197289,1.70186482974595953976404,5.6875840250729385871864,1143.92755197021688218229,1119.05407219143330621591,1114.83929019098582102743,1120.01849976986795809353,440.284912725567039615271,-313.864734176489434958057,-778.003363024401892289461,-115.268309948428537836662,153.233963060749772466806
45.5975000000000036948222,-0.523599808568168012534727,0.264864215102904976273379,0.673779987231986954299146,0.0534645798323646406768894,0.00939707079129597881717029,0.0299631221615098176924707,0.00657178498435005871425307,-0.00400756022380934114057727,0.0355032055872289628584149,0.999339546980440140977464,-0.0216161419554392261743736,-0.0207342663351707534591384,9.5733814252880087281028,-0.0169826942717121558146243,0.0539053490298654555679114,-0.123456669149024048093288,-0.0258101401572863667355229,1.70199911961171990171238,5.68727913905344273359788,1145.10545225764781207545,1118.13104726638971442298,1112.99079055743004573742,1119.86017150761222183064,503.624629658376477436832,-405.82922812666015488503,-700.487327974275103770196,-14.7179168978179593096911,153.232843093237505627258
