t,ang acc x,ang acc y,ang acc z,ang vel x,ang vel y,ang vel z,quat x,quat y,quat z,quat w,acc x,acc y,acc z,vel x,vel y,vel z,pos x,pos y,pos z,mot 1,mot 2,mot 3,mot 4,dmot 1,dmot 2,dmot 3,dmot 4,vbat
9.38000000000000078159701,0.156409966263421185139748,0.0022314541433002439696498,0.245963639213981677400511,-0.0370540836762301775686446,-0.00235768891402783360017326,0.0109205163121441038709403,0.00517606574997067289678476,-0.00365240483206017091735718,0.0791060887245545740764641,0.996845410640791018686002,0.121171839627091770807965,0.0282495112449272223198449,9.83457235800687534776898,-0.00566243034254771196445155,-0.0339267476260204300930745,0.00648336433599965272084331,-3.99244708413076976327716,1.25905473157165670450297,1.24382254992455298925336,1133.6276030370549960935,1136.33864727135596695007,1120.09119372026043492951,1155.19215186717588039755,375.685125225150329697499,-603.071405011811634722108,-25.594774571614472336023,-136.53174399216962342507,162.511032686183085615994
9.38250000000000028421709,0.286379448460276686549975,0.0665104765584974416681163,0.296466586656989716797028,-0.0376008919685267561927589,-0.00207521813635416210383489,0.0104229844138704359074454,0.00517315455120831262092462,-0.00364764650183606190317342,0.0791394751032745980001692,0.996842956499930932245945,0.124140156142190150045934,0.0287958983188775913264479,9.8303804134100332134949,-0.0054353189333443876346541,-0.0338559101112768309760348,0.00646327334556811173432722,-3.99245024346185539698695,1.25896883124082514804343,1.24383589892009038813114,1134.86309545130802689528,1134.99431256267212120292,1120.32257617485879563901,1154.8646165092836781696,629.479271684101831851876,-424.353080754320046708017,228.370262214457369509546,-114.311684345625508285593,162.511089541692854254507
9.38499999999999978683718,0.414633987625560640477573,0.111133059026388411605346,0.372646936404352313587651,-0.0369142919814958239688174,-0.00188737958279768685589117,0.0106279165453674294405939,0.00516872664541088207984521,-0.00363747975774398159612422,0.0791762779994571730401987,0.996840231879305593842844,0.126042929480984305934399,0.0293138239315898219139456,9.8266914049272280351488,-0.00518598984396833034143937,-0.0337775157605564244067686,0.00642625154251971839741708,-3.99245401344764561102352,1.25888334943464297310811,1.24385110696458700552114,1136.77499939547487883829,1134.21688186758478877891,1121.2330450313324945455,1154.62059344544786654296,954.050564862642204388976,-179.524288874398877169369,518.725235491829948841769,-82.3329425981554265945306,162.511215923441085351442
9.3875000000000010658141,0.522168968613227812980426,0.154496318945557542523517,0.459932481972310180928787,-0.0343743444579872325927994,-0.0014902618376986358217362,0.0124279743425228725306475,0.00516183696988348292983284,-0.00361451437588230584455062,0.0792180473566029275112044,0.996837132223594490909591,0.126677399147884034436018,0.0297803452540822133354226,9.82354279644298067353247,-0.0049211202846203552438431,-0.0336934604892005495901941,0.0063747330709647024790665,-3.99245749083806256152229,1.25879815384674520473141,1.24386831276462195283727,1139.63334827562198370288,1134.09669111829998655594,1122.9162023523183506768,1154.45295179629283666145,1093.46934876613158849068,101.124870046017008462513,670.29098822025366644084,-41.4365858936824906777474,162.511445601985030862124
9.39000000000000056843419,0.546754604769450147649934,0.191198299610772309842233,0.504027368909747530700827,-0.0315434798761678181211465,-0.00107528132741182072540376,0.0147374706324915599048309,0.00515160442044619061585653,-0.00357692666671511130815908,0.0792658755685804045088005,0.996833572190327643625096,0.125976860715118404998591,0.030169449057466199426436,9.82095712700152567720124,-0.00464789977901026822582065,-0.0336055209399794899138847,0.00631137394467767322281393,-3.99246130185400804890605,1.2587124744608040316507,1.2438879253539623093161,1142.24234613930639170576,1134.72250621781495283358,1124.58449997243428697402,1154.41341051597942168883,1025.73760166071633648244,393.859568910316909295943,657.891036417953614545695,0.241255244736796853333161,162.51169990416690325219
9.39250000000000007105427,0.493974858667169780535033,0.239428362995351140529721,0.502553937987085808103416,-0.0290842592241596122060177,-0.000711995221927707428420662,0.0169027237063195251431935,0.00513384965621998916318613,-0.00353019886658350896119218,0.0793163929558728664215295,0.996829812319818042709585,0.124040221938509623300639,0.0303846403020379685067098,9.81894164331713348303765,-0.00437385497001109655595963,-0.0335154689658165097498888,0.00623915424456992270124678,-3.99246466224537810418838,1.25862664775219545987284,1.24390824098156693722217,1144.76203628392454447749,1136.06598896285117916705,1126.20565753440746448177,1154.45415807251652040577,1019.01926913853719725012,723.691415626042953590513,628.739047822898555750726,28.5183972645938759171713,162.512016509923057583364
9.39499999999999957367436,0.359014277899655676051793,0.321626166854465433964094,0.452108291028064546157594,-0.0271886320742429216101854,-0.000327860323207326213434259,0.0187972865684818864207006,0.00510307211089039685497637,-0.00348342110788604731805296,0.0793641812031107563019106,0.996826272046996475495462,0.121063632114348673773918,0.0303032435015054835147907,9.81748819173902376178376,-0.00410713854097023451511506,-0.0334250769228923161335842,0.00616172362341097911569987,-3.99246609177157152359428,1.2585412635776695999823,1.24392761761676151621714,1147.33744248499806417385,1138.34096329594444796385,1127.72819521154815447517,1154.55600250230236269999,830.500664288963207582128,905.439837053467613259272,445.126010185616451053647,38.2173140921562932703637,162.512464407872187166504
9.39750000000000085265128,0.212373635446481690003395,0.414835306263346303978778,0.382310097239955737347117,-0.0265402020644173557151202,3.52099105591001672300143e-05,0.0197500791514143708704765,0.00505533769938863557225073,-0.00344442754805126096287471,0.0794033455476199218070477,0.996823407954268936315145,0.117249913551717016568787,0.0298401124438862352938884,9.8165734857942510416251,-0.00385659397322573281596814,-0.033336098047973654334708,0.00608357951509589083699536,-3.99246322430272204684343,1.25845717008076674048311,1.24394413568838912986791,1148.91453960537000966724,1140.59318814811922493391,1128.43128758533589461877,1154.64524464297733175044,483.269427965084958032094,917.146626652668032875226,136.561179874094278829944,23.2349162958562445169264,162.512890946074776366004
9.40000000000000035527137,0.0646717723025209689780013,0.531767088212062088992127,0.302086414433657801659194,-0.0269335714886352675656589,0.000592085747409300039087454,0.0201952199076880362094144,0.00498939777034776259234672,-0.00341659305707545319155671,0.0794280506090023485921137,0.996821676713092963417751,0.112746695552145115293285,0.028974059363753801310537,9.81615978155794444148796,-0.00363142620960289329995474,-0.0332502277381947347612012,0.00600986875235811485174153,-3.99245413188568809559342,1.25837528276757804057695,1.24395631440021348090852,1149.75378962482386668853,1142.92669642920850492374,1128.41100111091873259284,1154.67217708378166207694,204.615878112776726993616,902.55044390282580479834,-127.010651842536191225008,-11.5421245109723944466396,162.5133683323259106146
9.40249999999999985789145,-0.0625668245233617775769019,0.660083885639104805953536,0.22453248397621183851669,-0.0281700167644963368751565,0.001416956319332570617478,0.0203664172111290807387629,0.00490755063772556777285105,-0.003401514865434517032039,0.0794370544854669791146051,0.99682116198891923541936,0.107698766195104558840434,0.0277594472895327654127229,9.81619494016103111277971,-0.00344075253312552597692586,-0.0331689804691177730910923,0.00594595513559930365088402,-3.99243921455622752247905,1.25829545321695013271324,1.24396499331968857227082,1149.93761899593368980277,1145.10594036763245640032,1127.79623432612333999714,1154.58753402042248126236,-81.4317509242007986358658,789.096800954823834217677,-363.167921414996669682296,-72.6833160519308023594931,162.513884246695170077146
9.40499999999999936051154,-0.154377886476302461637999,0.783096316049828988781201,0.157506424133115996433219,-0.0297291436265777336833693,0.00263965691438085466036245,0.0203658638464310065563367,0.00481317278597333166739736,-0.00339951507627514123988099,0.0794317391941282563427862,0.996821746203775949091153,0.10225046168885840169871,0.0262768322461649356247548,9.81661438025495769466033,-0.00329262081247686010446185,-0.0330936174247970921191708,0.00589670153528586236252318,-3.99242012904034160314382,1.25821736946139650648036,1.24397156260908392511055,1149.34663087020294369722,1146.87218043398183908721,1126.59516150384411048435,1154.3087605035220803984,-423.539728185894261969224,642.248230201575665887503,-606.450551689927806364722,-170.862324688660578431154,162.514442197180756011221
9.40750000000000063948846,-0.234661686476969610914978,0.889315443604876243455237,0.0896353582385253921938073,-0.0307131918759416117081784,0.00485649116112397104261245,0.0203165428717177048989484,0.00470907646772045652278083,-0.00340882172792965083135686,0.0794138012011659649713735,0.996823310104837823075741,0.0965223668392281297645496,0.0246016349474782736184153,9.81734358038193732909349,-0.00319313250004610868840182,-0.0330250515225560606347166,0.00586593875363072576184509,-3.99239802770779483864771,1.25814088424478476291313,1.24397675485237013681683,1147.81992035500388738001,1148.31718151864083665714,1124.7639815676732268912,1153.73322239697904478817,-679.560565340610310158809,404.474865104958098527277,-685.081069264681218555779,-241.130813418393302072218,162.515155006909111534696
9.41000000000000014210855,-0.296364368586799320492986,0.91269967135930463175697,0.0382184801712113983440666,-0.0304177880486808487059402,0.00766145269313779717773594,0.0203028484449662739719233,0.00459985674119661302333695,-0.00342380794614492028893338,0.0793875287818002900452896,0.996825549059241367011452,0.0905755831943377970327802,0.0228516654437711796976629,9.81830015378463372144324,-0.00314607196699246381699222,-0.0329636612363384332025085,0.00585634169105933143767428,-3.99237453765611460809737,1.25806609906652533403815,1.24398042234258188187823,1145.9488280434993612289,1148.89455475950694562925,1123.16975615752016892657,1153.1031064364299254521,-849.494851364748569721996,102.40821045697194335844,-592.64317846162123260001,-257.516733405105981091765,162.515781503027000098882
9.41249999999999964472863,-0.3713279371477260504264,0.836095087367675904310715,-0.0184952222507695114572801,-0.0296181140994623143258835,0.0113039917824354248232499,0.0203540907739521159669493,0.0044942601339986532407722,-0.00343350966344290386630944,0.0793635487134924794139224,0.996827670840498392124118,0.0843810915964242902465031,0.0212345929010109846224452,9.81939614606778476968429,-0.00315286356733307385549758,-0.0329090773338138464776392,0.00586937655001126303011549,-3.99235340651786962951064,1.25799134021142489103795,1.24398440997408621377929,1143.57244609818098979304,1148.82922257092559448211,1121.80076567536571019446,1152.44563872995377096231,-1132.77387358148666862689,-159.262189512285317505302,-500.923729213276487826079,-257.76012361803230987789,162.516437836980799147568
9.41500000000000092370556,-0.471481801389178556416226,0.614412647247151832985423,-0.106473238669358899466388,-0.029243451090178618212434,0.015479722767629454371896,0.0204778382379444158500892,0.00440271773327335219638812,-0.00343094383387535905444166,0.0793551534069736469456657,0.996828673056892045067912,0.0779918393828431255609956,0.019984600547021655336799,9.8205402712759095606998,-0.00321232786551070527078511,-0.0328601415736730281813571,0.00590507762357885164494764,-3.99233808685142577132865,1.25791396050777581905322,1.24399105274172461221838,1140.2849586755910422653,1148.09824381194539455464,1120.66513751145339483628,1151.81430581833956239279,-1255.25551654266951118188,-356.854977958654387748538,-316.385522888591026458016,-181.782105071414434860344,162.517255897495232375149
9.41750000000000042632564,-0.538878447572695318257274,0.334572596768514862741739,-0.204452070696694687690353,-0.0300004881258113115238828,0.0179253253963101849555173,0.020581166192686562582681,0.00433087341016724115816405,-0.00341663090812284074224148,0.0793693484704507401517048,0.996828075277380820651274,0.0715947840353643866206923,0.019229613160874250987753,9.82164220215802075131251,-0.00332067159282591149033204,-0.032815140047362800768127,0.00596183468588851444430743,-3.99232887339658182312974,1.25783325243570631712942,1.2440011167934668101509,1137.29616851546666111972,1147.04494768113204372639,1120.21883806092250779329,1151.53672820459655667946,-1217.86563404072376215481,-485.726892933149656528258,-82.9993492046634457892651,-47.2243499788513219073138,162.517960361778932565358
9.41999999999999992894573,-0.545466291139799608345129,-0.0030785033732092237368505,-0.331595467239601426889806,-0.0323851318092803971970817,0.0187967185531831906808442,0.0205589043882357311310294,0.00427887510851463360311842,-0.00339596383435768721381631,0.0794059951663484281381145,0.996825976968228499863756,0.0654530582681468187100648,0.0189800175829732825638629,9.82261610372696125637049,-0.00347236191183838320897803,-0.0327721081426499277755582,0.00603678710159768778381606,-3.99232450238550207188837,1.25774978564179962248204,1.24401453122360794445456,1134.19563050538863535621,1145.66960934728012944106,1120.2501407654301601724,1151.57818406844535275013,-1233.6134476241293214116,-581.463793741729432440479,68.4494251108526157167944,63.0078489757704858220677,162.518685654066416645946
9.42249999999999943156581,-0.471514426125532848388389,-0.346266279625007111775403,-0.478790791996598741331326,-0.0358634031543667783359375,0.0182461312500896560839792,0.0202818347847442681519681,0.0042422972633188440680363,-0.00337503740716436559377023,0.0794574057168858371991149,0.9968230133454966113149,0.0598211215549540320512989,0.0191518695155569046439936,9.82338341715179197422003,-0.0036609733685478542189462,-0.0327291583039486383421846,0.00612637466631110912118618,-3.99232193766689746894372,1.25766509479738686216876,1.24402992618639518518364,1131.12810127734724119364,1144.13762871242397523019,1120.56108518647670280188,1151.8517674494753464387,-1183.07171866935891557659,-623.13209227672166434786,151.78596347479825112714,140.809200610488744587201,162.519426383113824385873
9.42500000000000071054274,-0.289334916353567672686609,-0.642380825297288793329642,-0.635196574346682307776746,-0.0391544075353730813837672,0.0160200108646112761301428,0.0194512785755201408899318,0.00421158614189322093313006,-0.00335924344724687412230835,0.0795129900354121926797646,0.996819977828899084215664,0.0549130454065434453481132,0.0195571617564165578517787,9.82387508856848157279273,-0.00387999387351230717521644,-0.032684706874559966982563,0.00622667833248674498086705,-3.99231860462116250332087,1.25758045742638890907017,1.24404579671701664977945,1128.28027191204091650434,1142.55394888589603397122,1121.00907058280427008867,1152.28223007149790646508,-1150.23416777403531341406,-673.327128888953893692815,176.505128794696844352075,183.580068498320940761914,162.520183620278146463534
9.42750000000000021316282,0.0229764164269125707729113,-0.886754609585609032684772,-0.802735784828791709699658,-0.0409646666103208254017254,0.011810132759506505525926,0.0174764953015554974635748,0.00417907029805666789534779,-0.00335174040518305179497949,0.0795673383015845503418717,0.996817238025203611329061,0.0508813155355344048924593,0.0200431553530218548031527,9.82403162434916232825799,-0.00412341427126995674345977,-0.0326374376784261746586857,0.00633404262023200097242448,-3.99231346534891162747272,1.25749655847350849668942,1.24406110249212153995302,1125.37693043847616536368,1140.77099306797867939167,1121.44361083045032501104,1152.76966779196709467215,-941.523899629652078147046,-609.883997874688589035941,112.385197115622375463317,145.020150973352173195963,162.521108605984835548952
9.42999999999999971578291,0.313094805583953916805484,-0.975761017448783518624111,-0.898848370456638456893472,-0.0402858727990622889070238,0.00776856949371285739752713,0.0148562340268992097019884,0.00414370521202198950627693,-0.00335392007667542711019104,0.0796184960803615893176755,0.996814850394930562771378,0.0478306316218462534983757,0.0205848967303919883065078,9.82380306084044541137246,-0.0043853543675751128702589,-0.0325862433495849382336651,0.00644535648785537779864585,-3.99230709764046043375174,1.25741364718419457169318,1.24407593453535247896014,1123.57265241389359289315,1139.50452889652319754532,1121.57099656838227019762,1153.00733082636452309089,-559.386816016016268804378,-437.413722639371201239555,-15.7189765790893023478247,37.1797556325360432083471,162.521890914707540787276
9.43250000000000099475983,0.569507505612956044238615,-0.948791110665992865058627,-0.922395155661543064695707,-0.037853023001204709474532,0.00432222454408606390763303,0.0113819337671667714095847,0.00410723722336130917659469,-0.00336622506652884930303249,0.0796646004043184002840761,0.996812820221860018676807,0.0458255803962312607824359,0.0212090886682534951468426,9.8231504849091155762153,-0.00465951673093373004014284,-0.0325302260277379115538388,0.00655770032815312150370479,-3.99230040119014129018638,1.25733136811316903447278,1.24409144934865034670679,1122.57999635839564689377,1138.58392445478148147231,1121.3650159475548662158,1152.95556657012980394938,-233.248592670643034807654,-309.143134929169605129573,-162.7711663131067609811,-97.6325909441431747382012,162.522682563238333841582
9.43500000000000049737992,0.780747182786248661301443,-0.817104404163964237461926,-0.854997809058744673293972,-0.0339317611345731490191113,0.00147457601966287485568963,0.00718792331747994568680316,0.0040690419704779781651105,-0.00339037255710327237179236,0.0797007590478447103254922,0.996811338818180403542613,0.0449243863769075574277068,0.02188975081733311733867,9.82204751673137543832581,-0.0049387216819926672839447,-0.0324687120138622276055429,0.00666798384873791647603491,-3.99229393238995600157182,1.25724983371458076675253,1.24410777751767165355545,1122.40640945054019539384,1137.95881322187710793514,1120.75714073681660920556,1152.51916787164373090491,96.6971176803973833102646,-147.007680338385540608215,-264.036217086739043224952,-217.765519559950575967378,162.523640234029045359421
9.4375,0.855765227772223635582804,-0.659732455936501205329137,-0.729449361993023237538125,-0.0305588445832532147605765,0.000129238229061035057691764,0.00452872865297799988976157,0.00403216160124999101893595,-0.00342220049333752688799914,0.0797261699025082620773119,0.996810188104921168772421,0.0450487006061984079918759,0.0226780248641269555065492,9.82047947382959485196352,-0.00521533496366193612819862,-0.032401008010039311635353,0.00677336703624270564105814,-3.99228919118556646594698,1.25716914578300986704562,1.24412512326498236880923,1123.06348194679753760283,1137.84888605308969999896,1120.04483486212143361627,1151.86673897233026764297,394.533057465138256247883,33.4653951003995828727966,-293.758752841326213456341,-308.906625762226724418724,162.524442363730400984423
9.43999999999999950262008,0.827276277517438707320707,-0.492978926643965642551137,-0.562024677268934680363088,-0.0276359421971983966470621,-0.000443502038269573135419871,0.00308028720083152211459132,0.00400204727450133475319394,-0.00345443716633965936663175,0.079743212940941554656149,0.996808791996774634647238,0.046036079550511824209913,0.0236735753200751075642216,9.81844339862844783795026,-0.0054812173419086880274409,-0.0323262966359000730731665,0.00687127126297854169678647,-3.99228800461459343296156,1.25708875106541451138753,1.24414346111057905197583,1124.37907473786549417127,1138.12614019737907256058,1119.28834697261027031345,1150.97463474283290452149,597.107316670505838374083,162.85556756954247248359,-283.036537395720529275422,-387.42717574972033389713,162.525245836968139201417
9.44250000000000078159701,0.729070262797020363088052,-0.340789173880435114494247,-0.387220147273716730484949,-0.0253959973992289485267282,-0.000630660068664982021574561,0.0024020260074636454010466,0.00398308386031854914921535,-0.00348201978270559547520846,0.0797536657444934127259017,0.99680673233916883280159,0.0477393103621781972334404,0.024948516747933635606671,9.81594827503285571879132,-0.00572770176250462104833305,-0.0322436094336788284242523,0.00695928641402521284270444,-3.99229214432569179393795,1.25700755997209934200498,1.2441625726741845081591,1126.04901853015053347917,1138.66316389093753969064,1118.62965217514260984899,1149.92960309358136328228,702.654713921610209581559,257.568907215641729635536,-213.816025047947960047168,-447.715330785034041127801,162.526048257831661203454
9.44500000000000028421709,0.575891686427436377826439,-0.22078772660650800019333,-0.23247008506397276450528,-0.0242053303013410360533531,-0.000613073913073551124246208,0.0022358797675970619456276,0.0039733513073888964209357,-0.0035105301093253061736621,0.0797590332567957582821094,0.996804229070166636361705,0.0501853807984792843477351,0.0264321561099175039721842,9.81301517237694653772451,-0.00594607138351127290781806,-0.0321518764642713603119084,0.00703498872478600014573891,-3.99230208888512905218704,1.25692442525889558346819,1.24418174383867130572412,1127.89234830747409432661,1139.41398473345748243446,1118.21926684737036339357,1148.73605808890738444461,793.026854670209559117211,351.444695033684979534883,-104.066966857338016438916,-554.351708693430964558502,162.526847133580275794884
9.44749999999999978683718,0.365101677556133874524846,-0.118275355780822113982431,-0.0969893981051619946676112,-0.0237056138302730659561668,-0.000594809366140341966300298,0.0023695819669318947398029,0.00397126179367139359871475,-0.00354146331317911969294165,0.0797590582163462680220789,0.996801685733510800524471,0.053300450663195816924933,0.028064733418132647990717,9.80967561145829591850998,-0.00612841788155738236704151,-0.0320499412587846033151351,0.00709632400759370538662063,-3.99231713753264161326229,1.25683902719448870044516,1.24420014486275065657139,1130.01415280350079228811,1140.42038736610561500129,1118.10931734085602329287,1147.15784455011475984065,731.607449638817570303218,366.412792364541928691324,25.927744444011789681781,-597.902183184939758575638,162.52779957160669255245
9.4500000000000010658141,0.185914723318213154223955,-0.0627887330039226809752506,-0.0381353454337706662680141,-0.02372348529703879535524,-0.000685901481881622324121572,0.00259160273844438173926341,0.00396919858382635895588386,-0.00357408712291633736193863,0.0797506301692552516113821,0.996799631875569192018816,0.0569403574543481671987877,0.0296710403535253297579999,9.80597203137718587129257,-0.00626833184229224141259529,-0.0319368714189251709512085,0.00714112464954366060743141,-3.99233520393375895807253,1.25675240333727367136873,1.24421721684775477001494,1131.55038555566875402292,1141.24604869528047856875,1118.34890556959044261021,1145.74654717298221839883,544.792632458762795977236,306.648778828637034621352,156.71593188160210274873,-570.194849415749558829702,162.528587174970198248047
9.45250000000000056843419,0.0135976935959244288332215,-0.0283199550461260725342516,-0.0423999884682476207986568,-0.0239409688586228325268834,-0.000927315445072973872087108,0.00297095894192830108776482,0.0039607566193012267927176,-0.00360421735798776643813768,0.0797340246344766800934423,0.996798293389491663063495,0.0608841307899201378273091,0.0311050308774873801587191,9.80195516282650913808538,-0.00636189345543585263453856,-0.0318119757575518538605941,0.00716740487771593860755193,-3.99235422803494088839216,1.25666528781798492175881,1.24423323510118466472818,1132.7381159657950320252,1141.95363126024903976941,1118.89289700026415630418,1144.3068703030355663941,435.644530056556789077149,266.179505572479911279515,293.41781412141625651202,-609.992697680111973568273,162.529368095019634665732
9.45500000000000007105427,-0.185179245262128422400139,0.000265879697559871092105155,-0.119405011018385021070998,-0.024304028085344233506282,-0.00131241949241729205337392,0.003559481308159784338635,0.00394148869387171609662834,-0.00362429843150154215244974,0.0797119992535621907370214,0.996797715903846692775403,0.064842419928595323996845,0.0322652818180667461112066,9.79768269089372800806359,-0.00640789212313185377323244,-0.0316749314610827517602054,0.00717322589476689174287083,-3.99237275014564296782282,1.25657822168604771384537,1.24424895251431388842889,1133.72860820595110453723,1142.57694622314261323481,1119.81599464019723200181,1142.69658368458226505027,295.278734752004822894378,183.480443334829146806442,370.85898663179352752195,-543.35883297664520341641,162.530297984275279077337
9.45749999999999957367436,-0.347965103314096246833742,0.0187498655212249634716137,-0.234557739208288179577622,-0.0245256911639827775151179,-0.00154539746734422972496148,0.00379570365285562469348513,0.0039120260620904038703638,-0.00362833509102621076802819,0.0796895373829963893363981,0.996797791852410575152987,0.0685647208771391486470392,0.0331492753386210536881151,9.79321669897231572576857,-0.00640775380732858980403766,-0.0315258270143076516078828,0.00715683460800580623084599,-3.99239011686962408376189,1.2564915245867136484037,1.24426567239034668865827,1134.21450963955476254341,1142.87103347692300303606,1120.747191933422755028,1141.59007613815288095793,135.4773223891031364019,68.9680057835067970017917,392.458840092724642545363,-363.209718496534662790509,162.531067862623473274652
9.46000000000000085265128,-0.509702837785326767772176,0.0334055280885732774898145,-0.380944746651438903572995,-0.0246106109536138109583625,-0.00143572859428238008144829,0.00325860668962482799212999,0.003874718055381579616403,-0.00361921381369154906634811,0.0796715344373379180664685,0.996798466333609134437665,0.0719824133417053396710727,0.0337774753208006373039751,9.78862205378285388235327,-0.00636516086528534589389361,-0.0313653028212048864964423,0.007116572185246116885593,-3.99240647928588332504773,1.25640470615185950720161,1.24428534414647562478251,1134.40599481789672609011,1142.92178625206020115002,1121.77828884066116188478,1140.88053509209930780344,38.2706270803222849963277,-17.6454246054590555559116,419.859974677163165779348,-203.584553010900890512858,162.531834411906118020852
9.46250000000000035527137,-0.663780378202335596959927,0.0446087783423478947963936,-0.531390483959291004545378,-0.0248990686465178807929011,-0.00110757422719586873065267,0.00216434483663105773840196,0.00382778154231765924825348,-0.00360648476132413142031252,0.0796568062727501385866802,0.996800002491732173304229,0.0751603869417484110604377,0.0340842132350511889393729,9.78396602091585343430324,-0.00628553409439235565014936,-0.0311947769042871178579723,0.00705077447066445889972686,-3.99242034968274728257143,1.25631815549879521931587,1.24430775478577571035999,1134.40586277495640388224,1142.78280635389569397375,1122.84649180680889912765,1140.5721533730982173438,-33.421711518674158014619,-96.6927457366374767389061,425.337462555165132016555,-25.2207676988796407613336,162.532600117060042066441
9.46499999999999985789145,-0.784763818390991296780612,0.0533871745598939392851712,-0.658774290652746952190455,-0.0260039226874452487903167,-0.000752872552473416323942645,0.000599567151034752156453511,0.00377354934171154942149085,-0.00359370386817859429479105,0.0796430303125875288516866,0.99680214503094333178268,0.0780684241770628895018547,0.0340995504404272009590926,9.77931545736787732892026,-0.00617624243170016365422903,-0.0310163237005594248640872,0.00695861150830267508743399,-3.99243058818440754720314,1.25623294270390228888346,1.24433175850326427358539,1134.23888626030338855344,1142.43832252337710997381,1123.90497615343656434561,1140.75443125360493468179,-96.3963408846403524421476,-192.40017747091960131911,449.391155233341407893022,174.066940719911201540526,162.533367543798192400573
9.46749999999999936051154,-0.844405322898550636523396,0.0680159092509119017622155,-0.750554706883953426377332,-0.0289686157932503782208578,-0.000454161395675084240530078,-0.00185371120938248906857837,0.00371399359143699580101949,-0.00357919201282029400892903,0.0796287846507651025929064,0.996804590499042353357595,0.0805934115956170454841967,0.033861413521961591932552,9.77473591400122998607003,-0.00604626003821343970673352,-0.0308327191609157821861054,0.00684015227430119065327174,-3.992435997699270711081,1.25615025910290811772541,1.24435619207298864274946,1133.9238810705332980433,1141.82080546654128738737,1125.09344758297515909362,1141.44248807669760026329,-124.366722018820496487024,-253.727722312720629815885,412.562410831132240218722,304.275231112567496438714,162.534294322707012270257
9.47000000000000063948846,-0.787277507965124523359179,0.0910889772384232548896321,-0.754402580635564867783671,-0.0332666000496831051891355,-0.00034443563081263777999122,-0.00444734285973677218734013,0.00365116036672444863389608,-0.0035587460114945975928058,0.079613588727794518118408,0.99680708580789523232113,0.0825957185044442765420314,0.0334203876207000982745399,9.77028913820799438383347,-0.00590548050639602261496774,-0.0306473190748899580737596,0.00669660530470060199464966,-3.99243653023011546565613,1.2560706681461588640758,1.24438025601126311947553,1133.61705265020918886876,1141.1696839118133084412,1125.96778820759254813311,1142.27580740916801005369,-121.858890311913512505271,-275.313609108345815457142,315.510710641497780670761,349.998996962030901158869,162.535074569376604358695
9.47250000000000014210855,-0.600882496068343874284778,0.134596209273957351237883,-0.66661168400844883485945,-0.0385539450557170759736891,-0.000355735160478359369387591,-0.00744837168712100382989005,0.00358305985089398936621619,-0.00353522269819062616436067,0.079594524780931694141195,0.99680965380272434916975,0.0840902517127072035574287,0.0327451734939159383452889,9.76603080369700293772439,-0.00576363736291323792981789,-0.0304639274568879493687579,0.00653017161519013449033633,-3.9924323997785817752515,1.25599480824648024324119,1.24440278986618446666057,1133.31458661897363526805,1140.44423742099934315775,1126.67100113618289469741,1143.19248306150802818593,-124.821480084008101130166,-312.136964195468181060278,259.937371240091010804463,384.244809663263424681645,162.535866934793631344291
9.47499999999999964472863,-0.269463005551052070529749,0.217156287136841874563231,-0.458780323126849243209335,-0.0424883691431634305524234,-0.000418098429066701975272136,-0.0106648230243407728112803,0.00351247094119194400163586,-0.00350835730537926585373421,0.0795733468059814791351059,0.996812022811043307868317,0.0850628886181974686042651,0.0319091824937652313032288,9.76200752665584836620383,-0.00563012318306174708304468,-0.0302862580306721036749185,0.00634441546485980251146586,-3.99242505381359968907873,1.25592244523534390943098,1.24442299676743717284921,1132.99294524978927256598,1139.60899909083627790096,1127.26747506379274454957,1144.19703145748394490511,-110.318140146847369464922,-279.381799145587137900293,172.615857258661293371915,335.412899696022918760718,162.536836626482852352638
9.47750000000000092370556,0.0243447084346891280681735,0.310810177687387001466135,-0.221449005516469205057106,-0.0420877491082032803570989,-0.000402325867413474470585949,-0.012317552324138567390599,0.00344501068211331687093923,-0.00347518903088187610522786,0.0795541276464294400128097,0.996813812138963473152842,0.0854740757177611110151361,0.0310513911797807712344976,9.75825581182818879710794,-0.00551320705928835027437307,-0.0301176264013091436744229,0.00614390677480478562821897,-3.99241573522858361755539,1.25585315845657530253732,1.24444048374506088805447,1132.76299591823931223189,1139.04732842527118918952,1127.53408042247633602528,1144.86954755998840482789,-89.5296092294616840945309,-174.624663656431948766112,58.0285017016103878972899,233.080448011296482491161,162.537664165414327044346
9.48000000000000042632564,0.237825361096987486497767,0.420658287782291973044835,0.0390706452431040657247152,-0.0384290059313684428943247,-0.000131956675954882096408333,-0.0126448683625254108126024,0.00338753568954036198696,-0.00343344045145730801180117,0.0795411820829688281930814,0.996814687306329161309293,0.0853192492969943316882819,0.0303387428129088809747316,9.75480098231916414874831,-0.00541942128851087903673722,-0.0299606397178449022911106,0.00593381274099538929406306,-3.99240462680862639999191,1.25578644563090158214891,1.24445450716885019915026,1132.54529720364189415704,1138.73587577255398173293,1127.55761757230084185721,1145.36243369754060950072,-92.6086219960054819466677,-74.4297906289068862406566,-27.5314074983780514571663,179.522840856397380093767,162.538516636132840176288
9.48249999999999992894573,0.334643077510256514717213,0.529043969651436740697648,0.279912358220999468727541,-0.0335362282325669114335653,0.000524292581529456846144155,-0.0116698318877193497195011,0.00334468624510464093702033,-0.00338120564629799729913784,0.0795384773700322234013527,0.996814391522256260103063,0.0846138161503175445510294,0.029897755164988992770958,9.75165756918493542571014,-0.00535321935500653045547637,-0.0298169289853053680328099,0.00571927767717950608777899,-3.99239250261114841933363,1.25572151971564061057052,1.24446493362401344739965,1132.29995280825937697955,1138.67517947212672879687,1127.39642338498447315942,1145.76716176427021309792,-114.079249546762142131229,31.3759428825113566574601,-102.862158512809855892556,165.628599652505926087542,162.539393455720556858068
9.48499999999999943156581,0.287304914099359320900362,0.609436464547981504580321,0.453895800495405177255037,-0.0296914534076996861067244,0.00186662472524405068270703,-0.00920778619358496655533663,0.00331566452230916148408157,-0.00331990184847240485041531,0.0795445036970421348598848,0.996813100893036097005506,0.0834405265035376986215709,0.029745754133257293339021,9.74882983776396017105981,-0.00531643725972580361016639,-0.029687009957604083149052,0.00550480155029106025393881,-3.9923810916213735566771,1.25565658196924379019777,1.24447297113484900421554,1131.97490095590819692006,1138.89275548696650730562,1127.0433067797368948959,1146.19057669580297442735,-168.108517420088077187756,134.60149223117412020656,-194.32594548335745798795,224.104349970695210458871,162.540303919307177693554
9.48750000000000071054274,0.129652560868260491311332,0.635420945420157368133118,0.55234707332125609902107,-0.0288373129240412882923206,0.00444135518525423048791234,-0.00564268654392229181138152,0.00329592853367710819992298,-0.0032589980026493056176895,0.0795565825751623073580632,0.996811143748522865415396,0.0820402173823362446114515,0.0298140375289518144708012,9.74631156402214138267937,-0.00530849968469002207044349,-0.0295701334308510303816586,0.00529400068634285937696493,-3.99237141445764587288636,1.25559072727033904648408,1.2444791618420616430285,1131.4594102211588051432,1139.34818693328270455822,1126.42479365756753395544,1146.88768351412386437005,-209.050158802814678438153,172.833141556266383531693,-259.373352677771833896259,304.157565199236842090613,162.541440295991833409062
9.49000000000000021316282,-0.0145249855058605294860774,0.574896617345389771003283,0.542007009361747726927661,-0.0309281137639294094465736,0.00727277088370619634316583,-0.00308908146034878950195179,0.00328252240983608299662588,-0.0032064137411467515809127,0.0795755018243154976786968,0.996808653323970617066152,0.0806297478721220428621308,0.0300638121856993539848801,9.74408728295727399881798,-0.00532701934653840875749653,-0.0294642553543030018270432,0.00508962671966858588162852,-3.9923653500673075278371,1.25552245849277777089981,1.24448440080982258848508,1130.92965016189396010304,1139.75692119474797436851,1125.74644001634783307964,1147.7113645217993962433,-225.172769482878038616036,140.141467679296198411976,-309.735856134482446577749,383.363214980985389956913,162.542426881492502843685
9.49249999999999971578291,-0.104595437332038743161178,0.418186234247559962540208,0.460584582535406628078789,-0.0337408406255311765775673,0.0100936820163686838403017,-0.00146143053913004757060623,0.0032698262951493970926431,-0.00316937123779908493104163,0.079598678737132930183229,0.996806095264038627412617,0.079406675840641788299834,0.0304007173387508128348244,9.74213491611456205987452,-0.00536782313223855070405399,-0.0293663873920484326529579,0.00489318276396227044150455,-3.99236270664814663078346,1.25545159530059824426473,1.24448887815996034333921,1130.33354637374463891319,1140.0488942716790461418,1124.87611437689542981389,1148.80449958902840990049,-263.600766437097888683638,82.8631320204620038794019,-433.894819982174738015601,522.944361674817741914012,162.543457646312077713446
9.49500000000000099475983,-0.123580136726190864537855,0.138125628222537044642593,0.327251102370959556786545,-0.0359226662774784349929647,0.0120399535257762445306096,-0.000581586568881286951337994,0.00325408348748169179431855,-0.00315359041288017704837698,0.0796236953721996820743101,0.99680405860167908826952,0.0785376968412469511626739,0.0307620828305059101914765,9.74042664644228395331993,-0.00542572463073856970511288,-0.0292728401302499857683515,0.00470514686811690074214054,-3.99236279515999115119484,1.25537818213875929096446,1.24449380360199235440177,1129.61164632970826460223,1140.17123685485034911835,1123.57696591643662031856,1150.32608633017389365705,-254.563180777410025257268,7.07270707393834907605878,-521.006177190802645782242,565.365924571417849620047,162.544748420741541394818
9.49750000000000049737992,-0.0755135325212247382475894,-0.139571415493546485686593,0.221940962596538615692054,-0.0365066372830827323703318,0.0118885144584960026487019,-0.000569321910865279705998843,0.00323441786463749339497475,-0.00315910438534402777249754,0.0796497577885788982099413,0.996802885705918684244864,0.0780764218691719358300674,0.0311418783941388860325716,9.73893107807401747777476,-0.00549516219419821788649827,-0.0291795593596675673087049,0.00452508054482812088759047,-3.99236518154525343859973,1.25530208578387392215348,1.24450084733937060832432,1129.06073046985738983494,1140.08425780704874341609,1122.27108349094100958609,1151.63132921188594082196,-198.281098967839511715283,-60.2709337426524029979191,-565.947876873336781500257,491.435508639876843517413,162.545870455080319061381
9.5,0.0107818457478768559010263,-0.418324414920970888420726,0.157477921198962145243883,-0.0361689246292062685506075,0.0102115214759298331831383,-0.00100138195768128255604135,0.00321373258531592372738706,-0.00317714009843653166775823,0.0796771205628633988338194,0.996802186790533562010808,0.0779022017004592504108018,0.031612431609284216693645,9.73761522197101747622128,-0.00557062943483434876851268,-0.0290824937036463400386044,0.00435192452654358744729146,-3.99237068176280285314306,1.25522398212862529298661,1.24451061767578452510463,1128.62024083486926429032,1139.86988218613714707317,1120.74722653207049916091,1152.78326387337278902123,-160.851196488497578229726,-100.612622044693139855553,-710.953271371140999690397,432.44652073130475855578,162.547041817438241650962
9.50249999999999950262008,0.126441892646588754933745,-0.714270638648419220473329,0.151396455942554353235607,-0.0353937323436279357991019,0.00724736964915817256233099,-0.00156829338890949630466731,0.00319382605973650597619429,-0.00319796162428994529269843,0.0797081810623708753027472,0.996801415422646330810608,0.0778638710171687953298658,0.0322172842681586468760457,9.73644654590467872878889,-0.00564711693274018173421824,-0.0289779561068864675854595,0.00418417796939057028138276,-3.99237962271234536615339,1.25514424999020013373752,1.24452271779324608047546,1128.25647448741506195802,1139.58119469682537783228,1118.71631713408601171977,1153.79356181554203431006,-106.20841528596588432265,-97.1245958852553599172097,-767.498476724420584105246,289.157336347898592521233,162.54850500897271103895
9.50500000000000078159701,0.215892185428788546674994,-0.914650433106222404688879,0.211101731026153177639415,-0.0346848865937422548566538,0.00457613439588879736957816,-0.00171434927316861836221751,0.0031744306017907125347377,-0.00321568163763871978436115,0.0797437834880809770510268,0.996800271027382889243995,0.0778705839877035649321257,0.0329458343423256055926274,9.73539417666099637926891,-0.0057203573801285489963675,-0.0288629156873849157527445,0.00402031477572810901077727,-3.99239121243153549656313,1.25506324795199608601592,1.24453581303267957203218,1128.08919875843935187731,1139.38425920671079438762,1116.90973414844779654231,1154.22905055511250793643,-45.8144298430780736453016,-63.8391512156331657479313,-729.963185553128369065234,79.8875041801113781048116,162.549771974376454863886
9.50750000000000028421709,0.284726070705949574346505,-1.06597740529003193188373,0.332592937942367328219007,-0.0337189496403235144939003,0.00216684090640587717624399,-0.00141397743648613506868561,0.00315024448872186588893607,-0.00323086364430314994591886,0.079779640452370931269499,0.996798955193614832914761,0.0779373051281171402848713,0.0336729179703757902641925,9.73443057213508566860583,-0.00578705141243231104691835,-0.0287352443527441533954736,0.00385894398168981894031715,-3.99240324739547247645532,1.25498206644770116113818,1.24454807601169692432563,1128.02740233819963577844,1139.26199894074716212344,1115.06650120631979916652,1154.19299933644265365729,-16.0199458012389222005822,-42.1456869623482077713561,-728.877680179093204060337,-90.7927595727595502239637,162.551086972088910442835
9.50999999999999978683718,0.330716292399539868451797,-1.18122262906468766807677,0.495272583147143674597856,-0.032567422794634780236489,-9.2563703314029019582343e-05,-0.000781441385914956256238117,0.00311459176832697441292264,-0.00324357235855121791776035,0.0798107213419983196889262,0.996797806858168766730444,0.0780571983054826890047195,0.0342417182632010486109664,9.73353235447853926132211,-0.00584539566376104241518519,-0.0285937380656401327061467,0.00369906240004325495562831,-3.99241376196468156223318,1.25490194085376094434992,1.24455806191576989760961,1128.00909902943317320023,1139.17353077189909527078,1113.26534574755305584404,1153.77508675724880049529,-8.12085457941848609664248,-43.7735619065210599387683,-689.698010184230497543467,-248.888685911749433898876,162.552439950110994004717
9.5125000000000010658141,0.348148650690900562931773,-1.25560886479264510739995,0.690142824116551478752513,-0.031529731889813353284957,-0.00252614798839849268030644,0.000350686132017444512215532,0.00306401771659049705284761,-0.00325608512450281358321935,0.0798316281737305732946197,0.996797228096220955251283,0.0782626352490921051163753,0.0345502927764430312063126,9.73267960570934853592462,-0.00589497227383668429001595,-0.0284380739444219932110514,0.00354017839086388612368506,-3.99242101608602606432896,1.25482403074506065898674,1.24456526323646787801636,1127.98679806530253699748,1139.04313113121452261112,1111.61801115539810780319,1152.94855590688371194119,-20.4184039254837372823204,-92.5153502891899677251786,-658.709458594318448376725,-440.208207197587682912854,162.553835519744779958273
9.51500000000000056843419,0.340774626450382867037803,-1.29198536876487146685122,0.932526880235702848587209,-0.0306317820323722990460968,-0.0060562542384165439501853,0.00251303217073184283897325,0.0029982548246116577130016,-0.00327261114410244821279483,0.0798402870061602765172637,0.99679737179692329274161,0.0786216785691093711374577,0.0345527797169260797449653,9.7318565322112728921411,-0.00593654894919783560763848,-0.0282686391640508856426539,0.00338198592936870753855594,-3.99242385438932467778272,1.25474909294645975421645,1.2445695629182558228365,1127.90700700980573856214,1138.71095402045307309891,1109.97179845458094860078,1151.57404572126051789382,-38.090258229984407023494,-165.742237307937330115237,-525.258126556141064611438,-554.457041599899866923806,162.55555405916220479412
9.51750000000000007105427,0.315467883891584699451727,-1.26977443509441756397393,1.11762410119038269051828,-0.0301578772025734610784387,-0.00950930139600231726093593,0.00508645084661618011173667,0.00292037923890147484845548,-0.00329389793190512690859717,0.0798381010248751799007749,0.996798129855934411658325,0.0791349235497628422653094,0.0342724704956488268603465,9.73105259808277978095248,-0.00597148062238522965572418,-0.0280863028496761632513135,0.0032239626371493509959798,-3.99242285055970880236487,1.25467665765233937769096,1.24457220208936059080429,1127.79634677415265286982,1138.21441994467500080646,1108.99172052261792487116,1150.17627069888476398773,-42.646910288985353076896,-249.122654537636208260665,-286.866112736300010510604,-596.499648355102635832736,162.557017897383587978766
9.51999999999999957367436,0.272118767229305280608287,-1.18522996313113937461026,1.25664198341759925092731,-0.0298533544355183699803291,-0.0130983052166111363368017,0.00832164089756645339313046,0.00283583018364424966836768,-0.00332102293569718582874617,0.0798291442304737419721761,0.996799178447655420676199,0.0798084100953334873995715,0.0337785056440315645254202,9.73026284418000919629321,-0.00600094647496274193748667,-0.0278922006800704051776574,0.00306505113114990176276242,-3.99241925269854824875893,1.2546059640637889920356,1.24457457182990416377777,1127.69377245836085421615,1137.46534074776513989491,1108.53746789089973390219,1148.59154747948559815995,-18.8452294118603838057879,-372.000660236914029610489,-62.3729001477288704791135,-722.791142434812854844495,162.558507835698350163511
9.52250000000000085265128,0.193787505280239386040719,-1.01353499205625174894863,1.34268243955862542904356,-0.0295165173793922874789786,-0.0168148394319687297104871,0.0127346560801459805778446,0.00275201920072125046437539,-0.0033514473757613118427845,0.0798201735457299138554177,0.996799984166620411940585,0.0805772643124268439507318,0.0331858322209615530518079,9.7294887859836709509409,-0.00602543680250887045413144,-0.0276875724486411664559959,0.00290350518307403836909542,-3.99241583940414113129691,1.25453543716728921353365,1.24457787815906306683189,1127.70212062709333622479,1136.35441664349013990432,1108.67985602187923177553,1146.56231498671013468993,46.4095865226154487004351,-417.613022703315664330148,168.123448325260227420586,-750.568916717948923178483,162.560316703718314101934
9.52500000000000035527137,0.097732442409331321542254,-0.821160817659293496006967,1.33361766906082657158095,-0.0291564259635581808638438,-0.0191003185861196578265719,0.016639607197442573410795,0.00267587095816100009257332,-0.00337747518580800831083932,0.0798175379389598621537871,0.996800059353378009596724,0.081272109994645430619542,0.0326113431128377123657813,9.72873930876502512887782,-0.00604437767117941594785524,-0.0274737754366767075731026,0.00273683928605251720195257,-3.99241528467054429540894,1.25446396666978787770574,1.24458317385955408163056,1127.92582039097396773286,1135.37727563424823529203,1109.3780851325261664897,1144.83870289589526691998,156.474978427908553157977,-364.242422085480654914136,388.672524838725621521007,-674.852084425899761299661,162.561834251065903345079
9.52749999999999985789145,-0.0432383560053469576112128,-0.593042976346783379248961,1.235315230034194522446,-0.0286564250251556858206659,-0.0206016512167541479549904,0.020392715911135027295753,0.00260955149974437250470771,-0.00339490229255619670525879,0.0798256521962475013021177,0.996799068393002363208666,0.0817806772865674047601203,0.0320788017623541421574629,9.72803038627263205739837,-0.00605619909383426149873664,-0.0272524058056031158459032,0.0025619444070556869272326,-3.9924182462631385703844,1.25439219974603877183483,1.24459134092317813546913,1128.48449551923272338172,1134.53320453306309900654,1110.62321864607247334789,1143.18805456458130720421,286.8962404227320348582,-291.621227859935800097446,571.669713650294397666585,-629.268656522742844572349,162.563353625112284817078
9.52999999999999936051154,-0.228706798072205869098994,-0.346331678237214946047828,1.06770469786930721767249,-0.0280837034526684597990354,-0.021618872522810941155802,0.0239078792257268503418377,0.00255479186436718443131699,-0.003402582720889518567986,0.0798475440516528967016541,0.996796779186027381847168,0.0820471399155512370882093,0.031604292937511838101905,9.72738317580460432054679,-0.00605883672468241277209167,-0.0270253478979049915897903,0.00237576931123953481034272,-3.99242511257429644189187,1.25432057804297136804905,1.24460259583851073905691,1129.36030159308734255319,1133.9191694949488464772,1112.23643370077707004384,1141.69235961328217854316,420.379248273891562348581,-178.138733454460975735856,703.710911730130646901671,-536.145663128770934235945,162.564868139959884274504
9.53250000000000063948846,-0.466415452246796979896004,-0.0883252083348613770130697,0.833182936382033001443403,-0.0276446445269627055774109,-0.0221877201630555007105805,0.0269554032325592003715986,0.0025124407925298706222017,-0.0034034577491274804576793,0.0798831079368066410140159,0.996793207324354058052052,0.0820922909729084882002326,0.0311867864201727240658357,9.72682265904103893205956,-0.00605019643924461364425937,-0.0267948082955568427088178,0.00217582000652203223084458,-3.99243557230366086230333,1.25424946607204912396583,1.24461608697000114531761,1130.58639176060250974842,1133.64251086579065486148,1114.14177320472367682669,1140.50732624893703359703,590.519141631647016765783,-57.0740036910503363287717,858.34666266437352533103,-419.646292336281362622685,162.566369251195197875859
9.53500000000000014210855,-0.788373940519293658901745,0.220323689844018316685847,0.510901009169200670534394,-0.0278531013421978897171005,-0.022282833232799070105612,0.0293457794850956708854195,0.00248117472829341130860503,-0.00339882675087462829063845,0.0799284242795161165018314,0.996788703844706414081145,0.0819019120093647384761582,0.0307925268034473925693462,9.72637686754812236245016,-0.00602869561740389855314382,-0.0265632661705240379068638,0.00196051104673067473627146,-3.99244800555005507902706,1.25417991284899388304552,1.24462987105379152552587,1132.31289730124603920558,1133.63379947649355017347,1116.52816701409960842284,1139.59412815160044374352,640.998549832957223770791,23.3498838497372247502426,856.09151683642016905651,-233.779881095325549722475,162.568145542388606372697
9.53749999999999964472863,-1.05131518574788729303293,0.464260420376711169243578,0.243311532970762467442682,-0.0292588551798431163730729,-0.0216031877381366414769825,0.0296416736525366049381791,0.0024581528947584252442482,-0.00338785318310745901457248,0.079977837546350738495704,0.996783781263761214930241,0.0814205519302424601812973,0.0303685244701196455086034,9.72607465458988151851827,-0.00599376629803324238038309,-0.0263332978719148340374101,0.00172947357184836773835723,-3.99246057795279885027639,1.25411277485521210905972,1.24464268511502540448532,1133.79138450976665808412,1133.75926028503931775049,1118.42223078890492615756,1139.338426843460638338,551.366929155260777406511,36.2834388182307208126076,702.753348166269688590546,9.99250210079324752143748,162.5695980852922559734
9.54000000000000092370556,-1.24817496855812803957519,0.676624562980434274273023,0.0163349337149272522129451,-0.0324291290078851240918922,-0.0198146295365226945972559,0.0283225321368801886967592,0.00243959429885067359891626,-0.00337004945181040068552525,0.0800280082114012136784709,0.996778756627893725017486,0.080603507287483999732558,0.0298494418311202047711106,9.72594294265963554835253,-0.00594620312982228720055655,-0.0261072986005781090823596,0.00148366579400214127631985,-3.99247299076906170256507,1.25404737861994997061288,1.24465456283149222826978,1135.06973194702277396573,1133.81521667058473212819,1120.04193375493150597322,1139.64409066210441778821,465.914980449879237767163,-32.4773693859191681099219,625.263438191079785610782,253.648321636006954804543,162.571013884297428830905
9.54250000000000042632564,-1.33406265992614248006021,0.877463886424354355675348,-0.186936398754905058749998,-0.037972150390119488450047,-0.0167469929115356061521958,0.0261888110599549951695852,0.00242216254977222541361348,-0.00334683114449288443559283,0.0800773480834879314294028,0.996773828789862981203385,0.0794511132153868371297278,0.0291816036737079509411075,9.72600391439922518088679,-0.00588811159114475089759733,-0.0258872691944614721770712,0.00122541317427141615778452,-3.99248504524038239082984,1.25398297315823481490327,1.2446653412844139729998,1136.12095941201641835505,1133.59687343810969650804,1121.54854797986081393901,1140.60666845164087135345,281.605299835165737931675,-143.166187849175287283288,474.535470558206554869685,432.08466461418947801576,162.572661276182742540186
9.54499999999999992894573,-1.23991403925189191959078,0.994869128706137750839389,-0.305134232773987157383289,-0.0433893588012396400066528,-0.0139918921189636381169352,0.0247381005444453627717394,0.00239744732309244519205538,-0.00332187378847180339938583,0.0801198716710635472360025,0.996769565993677830739728,0.0780078428425785286304261,0.0282151095579781796551799,9.72627426583908416546365,-0.00582252789860595362098072,-0.0256747775124372482058455,0.000958035569226833405402644,-3.99249555792896426709149,1.25391941943847218254859,1.24467356432102360663805,1136.47775844619832241733,1133.09938573133899808454,1122.41461110772206666297,1141.80451398517493544205,29.0941328319662382284605,-260.330808211535384089075,270.997006192200615259935,526.430647904330839992326,162.573984525577998283552
9.54749999999999943156581,-0.957981271854436933210764,1.06490552304525287752313,-0.398409331108810826904687,-0.0485644614812400510217572,-0.0112908113748350115435048,0.0240591237011200907713881,0.0023614984346901090640769,-0.00330372749353149801343488,0.0801527930044876740778292,0.99676633112072565712225,0.076430955387681076551587,0.0268831526881736782019772,9.72676095184740319155026,-0.00575367057790314960497025,-0.0254708037944971939225969,0.000686175076348879931995017,-3.9925043090762231123847,1.25385631855494428243958,1.24467854580977732581459,1136.26643007617622060934,1132.29521939705227850936,1122.90353301082154757751,1143.23882169116200202552,-167.208818374839438547497,-352.879392929380060195399,141.509258292285892366635,583.05713601384900357516,162.575248235788365036569
9.55000000000000071054274,-0.539231585865226570319919,1.10398321912343622130948,-0.49732993144578596655947,-0.0527810366887332127472376,-0.00860348106008392531085516,0.0239861303884206893133335,0.00231439266854575843510022,-0.00329974523977794942722341,0.080175941650758197898341,0.996764385317924661578104,0.0748731252793925494692928,0.0252021066161386003701139,9.72746098591327523763539,-0.00568668203768453797697369,-0.0252757833598394321406033,0.000415370402173345708123076,-3.99251026013947996062825,1.25379371024148245084007,1.24467928046400899688706,1135.64171435432399448473,1131.33498876669182209298,1123.12215739918360668526,1144.71979966524463634414,-322.405826028211379252753,-383.661871930629843063798,32.8919431149136869407812,569.295288773675679294684,162.576456325007342229583
9.55250000000000021316282,-0.0160079837623676446423104,1.11836005837094654147279,-0.625996371677230767360811,-0.0548463184194749528432844,-0.00596799975556192453113313,0.0241066173051440457708594,0.00225680187561921310676616,-0.00331429348916447222284098,0.0801889099472423289016731,0.99676393249814876362791,0.07344235497197654227719,0.0232069119880729118898799,9.72836210616934238260001,-0.00562713124341063502392712,-0.0250897174856059175518386,0.000151377469628498887875209,-3.99251212166797930791518,1.25373159655594590411454,1.24467495346135215150696,1134.65440094603491161251,1130.37691003739882944501,1123.06799272639614173386,1146.08529813503082550596,-477.561622875422870038165,-366.949999579565201202058,-75.0932642190640962098769,539.703223594977316679433,162.577589516294324312184
9.55499999999999971578291,0.61863406333914461310286,1.12377998628640374256804,-0.819518423491522374213503,-0.0531637716675457949744299,-0.00309857100683662593440526,0.0234596642127050981907477,0.00219448083513003062289259,-0.0033439028367949763520528,0.0801910105739717243844566,0.996764738830584917650413,0.0721146646207731500943794,0.0210446601204417882424735,9.72944263163997113963433,-0.00558050772857642332636097,-0.0249122660885810094655302,-0.00010023399700136517449095,-3.9925103028162336471496,1.2536699379388536179647,1.24466671172262732802949,1133.2539062399473550613,1129.50023876879436102172,1122.74669107808836088225,1147.41831578321898632566,-522.904683439092082153365,-243.536182345822595607387,-151.963984975212838435255,423.630625932380269205169,162.578852299077027510066
9.55750000000000099475983,1.06460525355785784462626,1.12840469743658178281009,-0.997889103344343442181241,-0.0482884230651211207585582,-0.00103939742795562195878945,0.0218174955124938868555873,0.0021304049251848417370625,-0.00338752141270848034643182,0.0801812221648739581469911,0.996766607355676459434335,0.070919565991526739567874,0.0188051154838776990452232,9.7306733789920407673435,-0.00555164466666044006948333,-0.0247428530307256845655051,-0.000334982350888005119861346,-3.99250520679623344122433,1.25360876032482537745238,1.24465589591554337545176,1132.03987752883904249757,1129.15922912566952618363,1122.30817280151995873894,1148.20345126469305796491,-473.706484643770238562865,-37.0105929790439773796606,-197.028951645021265903779,244.301930763329437468201,162.5798158622467042278
9.56000000000000049737992,1.34945971918980878179184,1.13719924965658902848986,-1.16121572237931713900139,-0.0418617642545889012684057,0.000968176247749075440801603,0.0189905472565155726549779,0.00206644008587045019051387,-0.00344292676794398511130879,0.0801602273014777738646686,0.996769316705048868954009,0.069871643256797705268113,0.0165576739686268126217072,9.73201945880382091047522,-0.00554429976149576567850952,-0.0245807266982632222074301,-0.000549818806998402984619057,-3.99249773084841219628061,1.25354777894726066023168,1.24464403502174847382378,1130.88537381672813353362,1129.31518580389911221573,1121.76154631986310050706,1148.63982543703582450689,-484.857281574573846683052,172.048229012296019391215,-241.770919259263678213756,125.144044611695221647096,162.580677587290864494207
9.5625,1.48571809589496517389762,1.14319255923793683393797,-1.2987907143862238434906,-0.0348093640049738570207971,0.00383874530982934551726071,0.0144365621793668009315015,0.00200723344219106564212396,-0.00350343902766755760022632,0.0801326719122430752850761,0.99677242220354678181593,0.0689107982093473681040052,0.0144310997087537667971091,9.73344206720088678252978,-0.00556083871867232328034536,-0.0244250213676015341668357,-0.000743150223169531829944812,-3.992489438903176868223,1.25348702471300454952541,1.24463252950257907691878,1129.61559112096665558056,1130.01947027073083518189,1121.09931820522388079553,1148.82917148775140958605,-449.210238009253089330741,315.33031308155750593869,-222.702573032755680060291,30.1788352933786896414858,162.581582316334731785901
9.56499999999999950262008,1.45618139050428374581259,1.13016473344189205540999,-1.34246125185271458768455,-0.0302938032251866724842149,0.00686032481411481820376963,0.0100274765684619220768026,0.0019582350279774888256179,-0.00356173722689870743754459,0.0801056581945331913630071,0.996775353718983070372417,0.0679700532919595562519888,0.0125686376231569085781814,9.73490118962813966163594,-0.00560192582503752679878861,-0.0242748368513690526704352,-0.000914893781159179181675101,-3.99248259368901337040825,1.25342642501023426859774,1.24462256493291767434073,1128.63932262668231487623,1130.89183736930658596975,1120.64803345469954365399,1148.79071961350268793467,-384.375755550658084302995,357.706868242429209203692,-136.207537607903390153297,-35.3341996994403686471742,162.582220163880066365891
9.56750000000000078159701,1.34072844151245118560212,1.08120667258600744453645,-1.30360200366697931428916,-0.0274189906754264203780913,0.0103287253012000809077042,0.00586044753523203183764867,0.00192488097211807669857653,-0.00360807392929015594701392,0.0800857594023772906277614,0.996777618190055503255564,0.066936128895014226913851,0.0111145099648547324155956,9.73635863595219497312883,-0.00566641235293863058941621,-0.0241292913097351895135301,-0.00106632776313616141165841,-3.99247881420306383049024,1.25336575915558423588436,1.24461439906423287915516,1127.69371234321306474158,1131.80800461194326089753,1120.41828051718425740546,1148.65250048925418013823,-382.087025757104413514753,333.983775012386672642606,-45.3277718112460306087996,-59.2094597371577222588712,162.582728666588963051254
9.57000000000000028421709,1.20519789653227826775606,0.996369592239323975668697,-1.20414218399844985540881,-0.025823393989676261123245,0.0136439917262929349267564,0.00243151443000750016459888,0.00190490979266890337467943,-0.00363204960002577867048124,0.080073339291321113386779,0.996779203133207003517668,0.0656680943919856624502174,0.0100616738337199196351435,9.73778195331520812771942,-0.00575137471119516532902516,-0.0239875610710832964933559,-0.00120014975470007952129681,-3.99247856056960248594123,1.2533049176061585860964,1.24460768963005974363512,1126.72888749789649409649,1132.56175624436878024426,1120.42139459564327808039,1148.49467231481685303152,-395.532914507554323790828,227.077970648633424843865,52.623634345501621112362,-59.5551613410980564822239,162.58312432720990159396
9.57249999999999978683718,1.09245276929025214585067,0.873392705463120977427138,-1.05185644281501344821095,-0.0252160139715624648237835,0.0163620088259763749038989,-7.52270571752633064252502e-05,0.00189616889942458358153665,-0.00362433786688096505959611,0.0800695330847184805200811,0.996780047008940295327761,0.0640416446143275697178154,0.00939988961266619016399204,9.73914483779048545386559,-0.00585294269784706472359304,-0.0238488104071500825464902,-0.00131976188819696738790954,-3.99248298106107624150241,1.25324331941837852077981,1.24460262439745061868734,1125.71604777067568647908,1132.94339446518620206916,1120.68139868891171317955,1148.35472468254874911509,-450.629691881224573535292,69.3940357567390293525023,143.436437733931001048404,-57.4244163276399675055472,162.583378416875035554767
9.5750000000000010658141,1.00780331216956642315097,0.700832181633023632016943,-0.835723777670175360654525,-0.0244862925157440132484243,0.0186546659132893373478357,-0.00235612780841685728883128,0.001896112901670522462097,-0.00358455121286844254763215,0.0800739223784855680410288,0.996780198696918029455105,0.0620985545954722828465577,0.00909348569157956976294344,9.74042842343504844393465,-0.00596681838042964485246955,-0.0237122413421977998315704,-0.0014289234848241178302275,-3.99249220178286901017373,1.25318087393621624414664,1.24459964920971133395255,1124.47573903849001908384,1132.90872642315252960543,1121.13857678431304520927,1148.20755023317860832321,-446.172034184267715772876,-75.1602954606706390450199,155.90328813329799118037,-56.336149403378222189076,162.58351414808186063965
9.57750000000000056843419,0.9684301877369222433245,0.553853633709486925518206,-0.644121956924055272253327,-0.0231334512492759707125156,0.0197673489327404999782445,-0.00388351628298335077929537,0.0018986906795969028111104,-0.00352206143598600505267848,0.080081123010478982848781,0.996780083681055972810725,0.0600557014594751276126416,0.00901944303434745742187317,9.7416233711850441778779,-0.00608878755116297291916094,-0.0235771709868952093758221,-0.00153155672302141021047517,-3.99250381601536474818204,1.25311880269355513384255,1.24459752058198902524566,1123.48518759975399916584,1132.56759298788279011205,1121.46091512957832492248,1148.07304393553181398602,-367.539050777013812876248,-147.710680999109456479346,67.8926303997876345874829,-63.5907318000717296513358,162.583483406541830618153
9.58000000000000007105427,0.923605255387632162467071,0.4213549312639062738306,-0.45466392483892009712676,-0.0206861509931024305231073,0.0202722529140035162553701,-0.00501945690978605925380851,0.00189843372637261173334344,-0.00344601544560776355125009,0.080086662884444451138144,0.996780059381289218478628,0.0581174401439243787370614,0.00906197591574095517863441,9.742730875614551422359,-0.00621545932512688244914179,-0.0234429734960628737006072,-0.00163136615969923385108253,-3.99251554720357448857726,1.25305775299249400056567,1.24459476951118830356791,1122.63804378460531552264,1132.17017301815712926327,1121.47803993631191588065,1147.88959657417831294879,-319.119472387928738044138,-105.252907696306493789962,-111.77886276657268638246,-92.5578081567621211434016,162.583301285754714626819
9.58249999999999957367436,0.81099164323679318044924,0.288552540616944463991445,-0.241548982083916674579172,-0.0166761776351161440656856,0.0204933792657966407091408,-0.00587403541595533495306425,0.00189554894355414881371158,-0.00336720480301582435200825,0.0800877715386184158008476,0.996780331683438047818413,0.0565192478782119561708797,0.00920847084986566033482092,9.74376183582359800539052,-0.00634445160396559897086899,-0.0233090140799376878411042,-0.00173150273237249034165297,-3.99252606711125412886076,1.25299781490803696648584,1.24459154015928397107871,1121.88959023781467294612,1132.0413284494013623771,1120.9020208157455726905,1147.61025489474809546664,-220.308963720037468192459,68.0235980490927545361046,-331.947083827201765870996,-105.255320650287018224844,162.582907036975655046263
9.58500000000000085265128,0.640144459430109336040005,0.197300414746869628990211,-0.0823490863932690303483852,-0.0129522478037169767178804,0.020560449573730089217749,-0.00647967316974869516482682,0.00189244755079533361410982,-0.00329521106848832193159105,0.0800815384604922075872935,0.996781118467820803630275,0.05546611761161779341478,0.00948659834770447518703662,9.74473754872592934361819,-0.00647414817958830504651679,-0.0231745743411202048678277,-0.00183478303794651332291055,-3.99253410200259706286374,1.25293884367258767653652,1.24458817929374809807541,1121.53649896600495594612,1132.51029100840264618455,1119.81830451717564756109,1147.36331997092679557682,-81.8195790423814628411492,351.76957009138237708612,-559.884541892919287420227,-87.1627432709237979224781,162.582432594537635850429
9.58750000000000035527137,0.383327481427836846972212,0.113303141319215663895825,0.0492796675865236691316262,-0.0100266342644975726960954,0.0206833194830036773415038,-0.00698689531760665876597427,0.00189131445830930137660952,-0.00323515040101278851872313,0.0800678395039841894753607,0.996782427119409564220121,0.0550656815736052102083775,0.00992216980160276484923543,9.74568965648204788010389,-0.00660346896160957964883043,-0.0230387490766859638624542,-0.00194385156325454252872198,-3.99253899925939226278615,1.25288057162717558767895,1.24458468626368556897432,1121.48049234260270168306,1133.80017629985854910046,1118.10259810628053855908,1147.17444117839340833598,23.8511957592938586003584,657.589445392017182712152,-771.355762990577886739629,-54.582591758627984290797,162.581808324457853132117
9.58999999999999985789145,0.0742715812890913235078116,0.0206298587311446145198257,0.147497754885550697023788,-0.00865759438830374788986788,0.0209266489780223358119216,-0.00690411408415744689420768,0.00189441510623520638356698,-0.00318640185958534794333219,0.0800520809932249027829343,0.996783833905011129594698,0.0553041684019283941164957,0.010547117380207665648939,9.74665896722045133060419,-0.00673150812344539429404877,-0.0229003958794278018873403,-0.00206117188702662759366979,-3.99254180334073849323318,1.25282294490732959424406,1.2445811314053041307659,1121.65575494480140150699,1135.79823823536207783036,1115.96152570222352551355,1147.09040701213370994083,117.71066829317146584799,939.482743421381655934965,-912.484116579207352515368,-0.455489625892459670808421,162.581061706857724402653
9.59249999999999936051154,-0.25575537761268118952529,-0.101498324027714234563113,0.188119976719349435434481,-0.00938526436745289877050524,0.0213168599309322345791706,-0.00583133780760885025995499,0.00190012478816879238144311,-0.00315219347149477135960893,0.0800371477510108120245746,0.996785109173860872644468,0.0562249500588778289289493,0.0113076816502053340007805,9.74769404941733341729559,-0.00685674391971614113211464,-0.0227582309262017896955843,-0.00218909850673316931299328,-3.99254338795976826403944,1.25276563704246512997997,1.24457763082567307577619,1122.06904568406844191486,1138.49759001696452287433,1113.5401775233854095859,1147.1721637302639464906,224.718006825252246017044,1273.47652867350097949384,-1052.19323635043951981061,71.1465090471281342843213,162.580170691353913525745
9.59500000000000063948846,-0.620474664801040409756183,-0.300411865916372144980073,0.153870271903495059451217,-0.0121569832643160947310834,0.021800792243857527313855,-0.00421547348417293781669413,0.00190372113634782575385118,-0.00313850040310631028112054,0.0800246541711429892895779,0.996786119378239909849526,0.057908499584486794464766,0.0120817607102926272144572,9.74884924392816465399392,-0.00697678621179389970435869,-0.0226108405305106528737635,-0.00232979324218734670792763,-3.99254508505065563994663,1.25270809521026560418022,1.24457460942896136479874,1122.77934497892783838324,1142.16562087873057862453,1110.70055952047050595866,1147.44613955736940624774,289.256461663763104752434,1347.40981380656967303366,-970.96669083869812766352,117.354261970994983244054,162.57893966343968372712
9.59750000000000014210855,-0.870200486318103982874561,-0.513373806794814702136875,0.0554275802092992972425201,-0.015249072541165554009468,0.0219496802241324617810392,-0.00315968599740333935810277,0.0019019093411391096038604,-0.0031456771997882123845236,0.0800171844061828979599582,0.996786665755106993103141,0.0603172813466886087452323,0.0127802823776255736198948,9.75018207415411097827018,-0.00708832000661475860464611,-0.0224567322053867077236156,-0.00248501119723055574964321,-3.99254874099917245189317,1.25265000846796592526289,1.2445718516570780654007,1123.51532799238748339121,1145.23463908599842397962,1108.68534406919116008794,1147.75893504011901313788,320.677602808309643478424,1150.77210566291955728957,-673.893950876388203141687,119.239085655568558763662,162.577783483480658333065
9.59999999999999964472863,-1.05227737674361288000568,-0.762928086129983640262253,-0.101923600985035806010259,-0.0184087086365073149263338,0.0212899748828974562375738,-0.00260366866861995970017229,0.00189517326168444082308551,-0.00316905565925480617664456,0.0800172522615704845394546,0.996786562453272573236518,0.0633112002750377822479777,0.013392634711818701687136,9.75175020921095558890102,-0.00718718475102792225123194,-0.022294453989961326989544,-0.00265587822567101526638478,-3.99255635492507421346886,1.25259077154220199723511,1.24457013355279189070757,1124.38273299296906770905,1147.91948140704403158452,1107.33108976608923512686,1148.04233498564713045198,411.792448504028698152979,1021.48077293929816278251,-402.556464198988408043078,86.7042766352234082205541,162.576498345856805372023
9.60250000000000092370556,-1.20251693754916422207657,-1.06934529114464926813355,-0.327991525918214843482446,-0.02212898845481875778618,0.0189474572161220308763596,-0.00279776131900718455502997,0.0018862653831045917036946,-0.00320209860412963955370036,0.0800265602473971687791376,0.996785687814372045600919,0.0667072187476993039290107,0.0139533068000378956963203,9.7536087863194431690772,-0.00726877703742882363274758,-0.0221227256152318196846807,-0.00284274823782973591612677,-3.99256920664857206659804,1.25252970898451798653639,1.24457098892330875195,1125.57429023490794861573,1150.34204295069571344357,1106.6725617481959034194,1148.19245642329519796476,460.796858591830471141293,723.024043892770123420632,-74.0374993217640451348416,2.85140520527375862513964,162.57481557819349404781
9.60500000000000042632564,-1.28688765369793789439257,-1.29671864319457630365662,-0.517981597685115424667401,-0.0252220379041358626348579,0.0156049329787130517527283,-0.00391123992872748852539511,0.00187370330805318062103448,-0.00324096682389021740686164,0.0800406282630783671994124,0.996784412377654027714868,0.0703584638630529723979379,0.0144096660865867393086504,9.75580838939217009908589,-0.00732849593683382576764229,-0.0219406538794266990632931,-0.00304511146966983912987015,-3.99258586149727445757662,1.25246724016890520481127,1.24457404521788328466414,1126.68671728592858016782,1151.53460162650844722521,1106.960902269480357063,1148.05659201167350147443,461.933571454393188560061,292.36569754890655303825,270.999537728411496573244,-125.151948968211740975676,162.573302843757431901395
9.60749999999999992894573,-1.35227057776278813960857,-1.45747153058029699224107,-0.672709267363955421004107,-0.0281609406950589780116445,0.0110508916152118209091926,-0.00594825916208384201933068,0.00185417273860444481795029,-0.00328115955581145465891346,0.0800544794166176965077852,0.996783151218129881421248,0.0740956196897290392255897,0.0146749647172655095506144,9.75839172045634661856184,-0.00736264813852749271105846,-0.0217478517631214916805416,-0.00326110305911732128655856,-3.99260473189503972690773,1.25240410515807276681244,1.24457772999432769722716,1127.88395809217945497949,1151.80387143843995545467,1108.02755943683769146446,1147.56669667845426374697,479.81057721381597502841,-37.5337849648605796915035,528.153770475469627854181,-258.490687832733385675965,162.571683316355972692691
9.60999999999999943156581,-1.41899631154587524406452,-1.5456540294480805020072,-0.77483784025983626353451,-0.0307254653330441655778582,0.00600750920714929539934168,-0.00853039396881535502692451,0.0018240309184010109790075,-0.00332384336504255601535407,0.0800647512280273504492456,0.996782171102612024604639,0.0778553234814347017156422,0.014648862926680605855978,9.76138952793753311709679,-0.00736905417069505432742238,-0.0215445586610615753830889,-0.0034870783040562721398492,-3.99262486000551453102503,1.25234100757078437027303,1.24457996096520195905555,1129.08577017199718284246,1151.34693270168418166577,1109.60167112185717996908,1146.76413857251009176252,456.951079945221351863438,-331.423929456143980587512,711.193415509094620574615,-388.090594650323794212454,162.569980545481172384825
9.61250000000000071054274,-1.50029213522581894579844,-1.545877563815266420022,-0.796401325885440214413791,-0.0327074049349099643668737,0.00125876508246923392991823,-0.0113623826099395579258822,0.00178064627759755332928049,-0.00336601458269255617017368,0.0800704609950132900619835,0.996781560892529561179742,0.0814940066524270367853688,0.0142600847191019508564125,9.7648185410496175506978,-0.00734729042933737318959997,-0.0213317175725813538977871,-0.00371764869248908738641468,-3.99264548052723489135474,1.25227889201683750819427,1.24457843130214018678714,1130.16871349190591899969,1150.14675179115897662996,1111.58352651438372049597,1145.62624370520234151627,410.971287612282480949943,-654.128972518526666135585,916.618331037936968641588,-548.972844276345881553425,162.568183136860682225233
9.61500000000000021316282,-1.60805766250546122719811,-1.46786632179440301726459,-0.724760888889333765305878,-0.034847038599135425618325,-0.00312895368665680548986296,-0.0142424141999055661744755,0.0017236772761211234267914,-0.00340180271081711544864379,0.0800701316000264062822112,0.996781454821950574363143,0.0848177804482520281137425,0.0134907383277500514395797,9.7686789633814985478466,-0.00729867854546043404867506,-0.0211110127100500276353667,-0.00394592379100192330171337,-3.99266498887873977352569,1.25221835463074793182159,1.2445717060115717433888,1131.14062661005891641253,1148.07628783909103731276,1114.18476277704758103937,1144.01927435112793318694,276.473217255179861240322,-829.551343437089144572383,963.089221323717197265069,-595.293824674972938737483,162.565923390780199042638
9.61749999999999971578291,-1.67683461684896983889814,-1.36242634435341325449542,-0.591318659029770210544541,-0.0373753974903769381477048,-0.00543749782461486197426836,-0.0158916283646837568077625,0.00165673136903864539129505,-0.00343295503889041184533704,0.0800611233282146755874109,0.996782047436356788416845,0.087792150876726926522764,0.0123935082753286046619579,9.77295138061072776736182,-0.00722627313309037126037859,-0.0208848045178036088864726,-0.00416390186761283163929814,-3.9926822741093088708908,1.25215910889502857195055,1.24456024699833300850571,1131.55107957818154318375,1145.99899507397435627354,1116.39897262100134867069,1142.64977458182806913101,63.8788448092227767460827,-867.122225430240177956875,875.250061000906157460122,-502.946452365507468584838,162.563958720670058255564
9.62000000000000099475983,-1.66047466980490399102166,-1.23575132471052251403876,-0.395561786031779993866309,-0.041957232512286272985147,-0.00719547880758291975161756,-0.0170593735520751244028048,0.00158134445219828504575199,-0.00346085054997832992917939,0.0800411303498267251432807,0.996783517376572336665674,0.0903803185463905589536182,0.0109877249000810972567876,9.77759850808890540463381,-0.00713460043205442918240466,-0.0206559733751147875380205,-0.00436348940855908230818105,-3.99269567174737050052613,1.25210207185581756661463,1.24454459949705298349443,1131.46002083410508021188,1143.74067671193915884942,1118.561013082052795653,1141.50454208930000277178,-150.871394698309870818775,-1000.08866578707795724767,930.368227066528675095469,-391.283973892934909599717,162.561913651079606779604
9.62250000000000049737992,-1.46095236510880455149675,-1.05774180052535737850405,-0.105942585786715781637213,-0.0497163298701988332073398,-0.00995443117798861312750525,-0.0182977861214212861318273,0.00149789292600666893058581,-0.00348381066801422200826521,0.0800093694139553390787256,0.996785941149747278799964,0.0924946628340203719220725,0.00928168951226891747463554,9.7825660360748116772811,-0.00702918730806342990924396,-0.0204277808528781114338901,-0.00453711495456876525572687,-3.99270348840466038353725,1.25204903164674585802629,1.24452454961752212447834,1130.79672260468987587956,1140.99855174503818489029,1121.05081375633471907349,1140.69335471236308876541,-313.465798399573543520091,-988.150813624512124988541,894.569734899910713465943,-167.673054755356758960261,162.559370651003661123468
9.625,-1.10890610889179397346993,-0.874006151978070966457324,0.165239545626140404976923,-0.0564626720790542338535012,-0.0129628881776539060105558,-0.0188840918614580459411467,0.00141036091548752393932953,-0.00349435505471417219916508,0.0799719294926010543234085,0.996788863926644896906737,0.0939530404508404914931674,0.00736952714117529439352694,9.78778381226717009155891,-0.0069160026937973790098213,-0.020203565696712527666179,-0.00467816583502925556481422,-3.99270594948862056483563,1.25200122976730732204942,1.24449998393054928058632,1129.89269184210752428044,1138.79992264381758104719,1123.03386175655145962082,1140.66617681552338581241,-391.496621760130096845387,-835.780238200807502835232,774.516737627226916629297,146.644396313315240831798,162.557179865604297219761
9.62749999999999950262008,-0.574895669371246920142937,-0.639022761006273087858176,0.439729411435367589788825,-0.0610066974001720815912186,-0.0159139001989906034295608,-0.0185148733321907170423781,0.00132426745006014221460455,-0.00349209536351952976387936,0.079936122153428226799754,0.996791716532486549162684,0.0947268620581963594062813,0.00537087134079716754797573,9.79316708895376208943162,-0.00680047442461525087492591,-0.0199863460403036236057162,-0.00478156002314660856511441,-3.99270508023915615680721,1.251957676260822216463,1.24447236519645021424196,1128.83923949588961477275,1136.81965055403497899533,1124.92339744447008342831,1141.4265766939295190241,-440.461870629200632265565,-792.65894969486339505238,807.813768159404503421683,511.300160535767759029113,162.554917598512474796735
9.63000000000000078159701,0.198252810409077440123582,-0.300267258122755231752876,0.73036165998465396587136,-0.0624647057726505500196978,-0.0183893631036518082066955,-0.0166071047741069843795003,0.00124578211435688113520315,-0.00348462269420909400916009,0.0799070193160927311204489,0.9967940922851995511067,0.0949570732352007784715653,0.00341192695224384889840508,9.79861991973878687645083,-0.00668667250901220679148995,-0.0197783619230153945300898,-0.00484429288346597403114302,-3.99270394245861615090121,1.25191585145125205968952,1.24444428229166192956257,1127.69038248896117693221,1134.83662789534264447866,1127.07293059734911366832,1143.22267761820262421679,-364.944689922356019451399,-644.527947976429686605115,764.629585912388051838207,782.285285447701880912064,162.552123742689616392454
9.63250000000000028421709,0.872370753503965867814429,0.0126770095343304491780634,0.90777456173431458896772,-0.0603472091209666106070841,-0.0192259929778292766588965,-0.0137345865852879136376208,0.00118119938063358928190261,-0.00347247013198572710562795,0.0798900675007060828702876,0.996795594960667719064418,0.0946600442232509442508359,0.00163748492467702400077201,9.80404149590008877623859,-0.00657696669297000088838523,-0.0195807166016711657607896,-0.00486585397114342073365822,-3.99270440781951485575973,1.25187405144165331272177,1.24441728366680082196183,1127.01451604627754932153,1133.59701081415232692962,1128.74654537403262111184,1145.33800312116864006384,-182.282688939303511688195,-397.911441116627486280777,638.524688926863404958567,931.415693113425504634506,162.549732294196445536727
9.63499999999999978683718,1.4832347944216508484061,0.325852330794394129398484,0.988680440466281895695033,-0.055590659873801337442778,-0.018647757473625105328896,-0.00992483598237784217510615,0.00113617982528380350067121,-0.00344980017009288621870899,0.0798898963582928695048579,0.996795917092796024405743,0.0937387244024401045106032,0.000193840676185497162720139,9.80933035600575564671999,-0.00647208432634596275007111,-0.0193932937892992568462702,-0.00484819011491755946091642,-3.9927080073780421010099,1.25183095188984006007615,1.24439241853908555413,1126.77896904426484070427,1132.84707068975990296167,1130.26555404198279575212,1147.87975608376882519224,-12.367801632351870466664,-216.965903597031427807451,576.847095331505329340871,1051.22616168175159145903,162.547278636465165391201
9.6375000000000010658141,1.98823076705142187670106,0.613155162105874507183501,0.98279876202046823063796,-0.0494213270372756696691141,-0.0168989671565219039262029,-0.00610704082402791295636213,0.00111386095025654504632462,-0.00341387327639322774378017,0.0799067846280291788074734,0.996795057479964996538513,0.092163514925977768621479,-0.000824072486453344965617873,9.81438724974693421643224,-0.00637150004185529049427483,-0.0192148897338615919083704,-0.00479540150943693482821217,-3.99271727501087614342623,1.2517844367195589683206,1.24437252978742640685539,1126.95267703811578030582,1132.51218129616700025508,1131.63078085069059852685,1150.59413392957821997697,164.196313376143535833762,-39.1150525834230151644988,503.038496589818862503307,1086.54267264984196117439,162.544776102175092091784
9.64000000000000056843419,2.33116479480228910858841,0.843919503420724304021405,0.886640353871104291982874,-0.0422720487213590623287729,-0.0139855274920440714875314,-0.00313062330950260401390972,0.00110656480618851783825907,-0.00337422349833494316859173,0.079935153130138617005862,0.996793451016663500929837,0.0901384297231820619256126,-0.00155075823013799130034585,9.8191188799792019636925,-0.00627421684386074950123824,-0.0190434561276828957787632,-0.00471342812540807495902406,-3.99273197216580078006132,1.25173435949063716066121,1.24435819102507516653588,1127.59995061114568670746,1132.65149542684275729698,1132.78074652493228313688,1153.31246944701888423879,375.357916140894417367235,158.610246720022303179576,447.773224530417735422816,1153.39170481174937776814,162.542218103250377225777
9.64250000000000007105427,2.55011991190198816781276,1.04095693189244675735949,0.706112062660274819592132,-0.0335912675294654794466709,-0.0102026357906927888502535,-0.000839711560252902051819379,0.00110262820336701271133062,-0.00334522022772705887594391,0.0799676648359197578264101,0.996791670367963900112329,0.0879671186306675151334034,-0.00220677827824894423613955,9.82344077616963851085075,-0.00617976903311461250173364,-0.0188765690396854521337922,-0.00460908611551985678694843,-3.99275029501689937561082,1.2516812409942177364286,1.24434852933320616585888,1128.82946661881987893139,1133.30523252976695403049,1133.86964697334224183578,1156.36109245363581976562,505.800024151185994014668,309.947494805026337871823,343.023591432734122008696,1058.47022662117660729564,162.539089121802220461177
9.64499999999999957367436,2.59191644849581948051309,1.14251976567712909549357,0.535222004285249353117138,-0.0270675527826296224986891,-0.00762148745314189610816635,0.000138003716803086057523381,0.00109393349262556388058754,-0.00334031743813100433226904,0.0799970045198768464622674,0.996790288121231049522919,0.0859524166245136111985659,-0.00294319714115262587306177,9.82727897379131398736263,-0.0060890083988915776752604,-0.0187119423265565895664331,-0.00448907709475203017812639,-3.99276917113011986515403,1.25162605390019221474063,1.24434259213912423724935,1130.12895073190111361328,1134.20123290086758061079,1134.49586448209561240219,1158.60482058012371453515,548.440243089367641005083,417.618704860186198857264,180.531193051700910245927,817.962942793164415888896,162.536435672310915379057
9.64750000000000085265128,2.52592440383558347605231,1.19111914386503814355933,0.378799665521205974894059,-0.0215568547728108086958265,-0.00555210523664100875917971,0.000457674019362324063613101,0.0010769579386911379715458,-0.00336610546418609048527348,0.0800182610840625696546624,0.996789691822635881557346,0.0842817194755838827724403,-0.00381193137573346274571406,9.83057187719113123591796,-0.00600454036297344128508824,-0.018547807913281279951212,-0.00435939715018401202639708,-3.99278560404991678112196,1.25157032239532384210179,1.24433879036214278812622,1131.57166783426714573579,1135.393326054068211306,1134.7723029386008875008,1160.45090716760228133353,635.20152989084715500212,576.572788071371974183421,26.6808659792745075378662,713.646595821798996439611,162.533738355550951837358
9.65000000000000035527137,2.3638479710930768717958,1.19441162505923159642407,0.23553025471069882756936,-0.0156167281136891898662977,-0.00263759289588701021159189,0.000438031452058374154000936,0.00105480088870241769764824,-0.0034218266967529723660002,0.0800293120515808142911851,0.99679003681901701128254,0.0830203165138561627323099,-0.00472497093449761318417757,9.83327032005639978251565,-0.00593068692717537045144827,-0.0183832111982689325180296,-0.00422484717195688135038534,-3.99279861993217410898183,1.25151489632269186103031,1.24433674107511715867247,1133.30495838135584563133,1137.08409684122489125002,1134.62926881199200579431,1162.17305355923326715128,615.522944646940800339507,650.808508678157863869274,-138.802938207964302819164,552.85552686225025809108,162.530454593173487864988
9.65249999999999985789145,2.17921369784053764462328,1.14752853756747819069517,0.16269297862051101954961,-0.0107417152570947731921036,0.000349615395523767335736465,0.000298215040449526002167002,0.00103109247558502269831449,-0.00350106869166604255799724,0.0800310386665230577563079,0.996791213455829216982806,0.0821342419552581470831853,-0.00557604137779779684969128,9.83533820915820200525559,-0.00587312464435459872375001,-0.018218104248604771039366,-0.00408898871756800154353417,-3.99280755061341041667333,1.25146101171296408871569,1.24433556377803600234699,1134.64928255750123753387,1138.64736859745835317881,1134.07828824756120411621,1163.21518480191298294812,499.01020935686500479278,641.323791949971791837015,-310.722020278233685530722,345.52831292505794635872,162.527681208409518376357
9.65499999999999936051154,1.95358575260755751301645,1.04236954960274674775178,0.1379899318573455935244,-0.0058088964128508143239249,0.00332117182176174235291866,0.000224489201787737152615776,0.00100824336599097822211868,-0.00359028577271811814158875,0.080024034857982692670042,0.996793094829311221438672,0.0814566711349520022888981,-0.00627212532901019748088345,9.83675239683101487742078,-0.00583817681331230253077846,-0.0180533753654766350449368,-0.00395409025836209338661265,-3.99281110327007171534319,1.25141050568425793443339,1.24433331959718573855866,1135.80000942813967412803,1140.29071580097411242605,1133.07565871060114659485,1163.90069512385821326461,419.262841666048132083233,657.46600405349181528436,-469.018620337073457449151,223.156927051342478307561,162.524871608461012328917
9.65750000000000063948846,1.69765943245221340163198,0.886970404513495513931787,0.146289249591808140360527,-0.00106929843405466720208941,0.00582864091576876328787415,0.000317462983195803489979564,0.000989187509809690435763629,-0.00367033604225087918201953,0.0800103370909868161220402,0.996795367414931132721279,0.0807189312390742680358713,-0.00670177967025575860304798,9.83750137547012215577524,-0.00583213195393000958383078,-0.0178906432885900662510537,-0.00382113392489665405077348,-3.99280882107215839837977,1.25136479053738414179975,1.24432823878827569785699,1136.7455967658318058966,1141.93469861772632611974,1131.73319514587547018891,1164.33096943716986970685,321.799904228050479559897,640.198575251079091685824,-601.755629414261989040824,116.770431375589339495491,162.522033133604423937868
9.66000000000000014210855,1.41227257222602942121625,0.672715758233927596521085,0.180941829332254527917812,0.00311580053773072643275022,0.00780572377913987380110283,0.000714900628070612529502137,0.000972686846042017535206303,-0.00372467137386002034374344,0.0799908635211391549901805,0.996797687103225582561095,0.0797003970093668467900017,-0.00684013863435863067596898,9.83758427834596815841905,-0.00586029030254350390832796,-0.0177318337393429191484184,-0.00369028338164345288269219,-3.9928012681371627401461,1.25132443495997769389305,1.2443188021959206146505,1137.40900894928017805796,1143.49170867723000810656,1130.06688056352936655458,1164.48454728073625119578,221.083547174246973554546,641.373866508811488529318,-776.963590881969139445573,5.57286961006977321630984,162.519160749287465250745
9.66249999999999964472863,1.0533646548792079400414,0.352765264403739287057959,0.233729058829376695749502,0.00712434629243907137363667,0.00975943036681027435708113,0.00161401379843429228569396,0.000956105762462277838920066,-0.00374793232652240659516507,0.0799664542254123617004424,0.99679978951874403936273,0.0783977271010317250388155,-0.00670861888959499441664747,9.8370087668305536965363,-0.00592613258504479968602485,-0.0175786429964290696892348,-0.00356130423916297886299809,-3.99279131467275849587395,1.2512875658180753202231,1.24430552911265857041201,1137.85101450170282078034,1145.14156795026974577922,1127.84837719146639756218,1164.3588337852202130307,101.609162593679258179691,552.429778889295448607299,-823.264515150375245866599,-99.9179749086877819763686,162.515675254329380550189
9.66500000000000092370556,0.759818664413400290946754,0.0412852976302652552309524,0.27491141543550817738506,0.00930246718617117919480908,0.0108684736682058066814527,0.00267325420466670319805114,0.000938710354338159118185725,-0.00374511702251993953624587,0.0799395559657569837463953,0.99680180592969191977204,0.0770092309299257454791032,-0.00630978861764860954330914,9.83579039101992336213698,-0.00603065538671807704895755,-0.0174320475764853863309689,-0.00343411738489198198678864,-3.99277957498803504066132,1.25125256575963827998521,1.24428945830107262615627,1137.91705476224865378754,1146.25385757167691735958,1125.95055798777684685774,1163.98495740619273419725,-33.5065558020180489506856,375.117933429860840988113,-736.519815727773107028042,-210.107046829138084831357,162.512738496865182469264
9.66750000000000042632564,0.498185817310097256438439,-0.299451818735147590189172,0.30476754740140221677791,0.0102693813113100378131559,0.0109902657275899127281571,0.00379045774709508903263511,0.000927425555766519344944032,-0.00372154856912001747587526,0.0799166184163202508727863,0.996803549390955612174992,0.0757422469892751193398794,-0.00549990829628721478172793,9.83395289028701391487175,-0.00617195355586927767860272,-0.0172920158898355984244954,-0.00330922835463944367551115,-3.99276805540435120178699,1.25121742908407918015712,1.24427311734859658010066,1137.68348172269270435208,1147.01715761741934329621,1124.16577811282695620321,1163.30829855107435832906,-160.758569498089087801418,243.44294617904165534128,-724.649413932373590796487,-370.876710581052179804828,162.509768088536930008559
9.66999999999999992894573,0.245931924165213033894872,-0.710924280881206516191639,0.327020581947795152544245,0.0105136559236401281453022,0.00973379599164405501232622,0.0048218218726937440987701,0.000927508951090748974196987,-0.00368232943372669499493277,0.0799023763887511812020747,0.996804827432532736253279,0.0747815527689754261375654,-0.00417201218458518319209816,9.83153001536056336817637,-0.00634486130381504628839018,-0.0171574408056601040994948,-0.00318833485558294663780865,-3.99275988728501518565395,1.25118052388076272940509,1.24425919442247567836546,1137.11326191475836822065,1147.47107230257188348332,1122.32731091811569967831,1162.13057385328784221201,-242.962412467707650876036,84.1995785240382446090734,-603.560769770258048083633,-488.91475250052911860621,162.506164297918274996846
9.67249999999999943156581,0.0968971753985763406546994,-1.02869003036355177727046,0.337585750786469074302687,0.0103246085395005664925305,0.00742085396061536051864893,0.00561388161038797132290634,0.000935242776292035836102623,-0.00364098516399144435037871,0.0798971975915328536110849,0.996805617274174049491364,0.0744418548179951872212357,-0.00241393687206513385401507,9.82856602895637720962441,-0.00654115668901402314699967,-0.017026255905953236596817,-0.00307438499575413397985058,-3.99275731263519295666242,1.25114198100174078831515,1.24424859740338811242566,1136.46866966035440782434,1147.43815551003945074626,1121.14797426397626622929,1160.86372478857219903148,-269.155671681577359777293,-100.871037641611707158518,-383.44126563414113206818,-549.768381065410267183324,162.503128065475749508551
9.67500000000000071054274,0.0121693144969186213544265,-1.28869811238062492719791,0.344631090225642366942083,0.0100770397382397552260569,0.0041664157879303612835864,0.00654002145772583122484978,0.000946572144208866544587422,-0.00360904737919443994662028,0.0799006005764228560694917,0.996805820323946822902883,0.0749733711765943888760688,-0.000323876582541293700501228,9.82511540605266908698923,-0.00675025244790109207188022,-0.0168956509482833042157246,-0.0029709829835897916955334,-3.99276150094522996880642,1.25110178465914678724857,1.24424128154047841654517,1135.76748355635027110111,1146.96671711436374607729,1120.41010458994469445315,1159.38173194796036113985,-269.446388436202767024952,-258.635829816972147909837,-218.54923383881435938747,-607.914761285788245004369,162.500057092154094107173
9.67750000000000021316282,-0.0249281922667017458161709,-1.48153415347551065117671,0.352968583197002139240084,0.00982953866903279321887155,0.000452171195330353201547596,0.0072555378273564292979092,0.000961221191321347495466199,-0.00358837720430548292108175,0.0799123744103890226719855,0.996805193807099754188528,0.0764151854810853625732392,0.00208133284133035778573628,9.82124254064379620388081,-0.0069600846514812231974334,-0.016762248015062698042188,-0.00288187968385223737544099,-3.9927726656720681219781,1.2510596012975145896462,1.24423618085840170799372,1135.12143771817318338435,1146.14497636095438792836,1120.05522809478202361788,1157.82415098214278259547,-222.863256415620298866997,-401.775793034255798374943,-56.2162726821609766147958,-611.542725384637151364586,162.49695699240024282517
9.67999999999999971578291,-0.0160818953544002475608554,-1.57672288448726116705245,0.36761153135315965956309,0.0095013112419636523708899,-0.00376174815859744906404449,0.00740308694144003413134536,0.00097888795189614188733962,-0.00357556146846063757291367,0.0799295086463646109464776,0.996803588115410255099391,0.078673681111057575110479,0.00478434918977610479373652,9.81702126470572800087666,-0.00715804701363516749507143,-0.0166222925696027680475542,-0.00281069434667374036182497,-3.99279049817972042646375,1.25101464363626124765005,1.24423227360679367059504,1134.65316727427239129611,1144.95783814919286669465,1120.12902322653394548979,1156.32401832103778360761,-147.658500051579380851763,-580.65939551670476248546,109.825964916382076808077,-612.52818120660299427982,162.493821387222453722643
9.68250000000000099475983,0.0278369450336971580028944,-1.56616403538209203460951,0.389786262574660313795505,0.00911514214160997690572508,-0.00933320070911040564065608,0.00769036501399429899689109,0.000999870007123588753691901,-0.00356452499328579770071501,0.0799481063933399765941701,0.996801054846609746462605,0.0815753008297618320554534,0.00777533762302642927899399,9.81253349034145827545217,-0.0073320978316270225480511,-0.0164718915133151774798925,-0.00276062071503255885771,-3.99281463449696882861417,1.25096608417033872129309,1.24422957414818924348765,1134.38314521791517108795,1143.24167938337041050545,1120.60435791936401983548,1154.76151007610928900249,-49.9581812922691952394416,-652.583890028461496513046,215.741624668556056576563,-516.748197099933463505295,162.49001713715327355203
9.68500000000000049737992,0.0734822045389684902483296,-1.45470534409446261570054,0.400243402416487314976479,0.00907479177619051509406933,-0.0139426980449384452231953,0.00861365242673350385571585,0.00102268564994608432243417,-0.00356034307243756429489645,0.0799647782490788827658434,0.996798185654548030143474,0.0851350385141688981160968,0.0109841452142420969995129,9.80786661868695830435172,-0.00747185092941743487365835,-0.0163073425515224065818209,-0.00273417082646516687929883,-3.99284254516672953982948,1.25091478783672682695283,1.24422735644578752456368,1134.40337636781100627559,1141.69491869905004932662,1121.20773134987689445552,1153.74027733553771213337,44.6072763506524623267069,-610.576535042886121118499,254.02002483015672851252,-343.111858422821626390942,162.486812002177686053983
9.6875,0.102264276164567763371949,-1.25377296765368151376663,0.38230673213252241993132,0.00991448959314239833262583,-0.0176558845254813218117462,0.0100317976291373796293716,0.00104665563170506137509463,-0.00356983114433072432764016,0.0799779067293745898892254,0.996795414513808486489665,0.0893796639158740552355553,0.0143464686609775377013065,9.80311224344256437746026,-0.00756932098492663421596127,-0.0161255281617916877701102,-0.00273307248091884252838568,-3.99287173726873900747592,1.25086213838784532370596,1.2442253358257540085674,1134.60618159966838902619,1140.188796708156587556,1121.87445804351455080905,1153.04595078399552221526,102.649951148553057578283,-620.649942977784803588293,277.802571283255701928283,-237.02109545120205780222,162.483570271392181894043
9.68999999999999950262008,0.0921382388882112240979794,-0.944344262556532698660305,0.309360708461836553251345,0.011615275433306043381676,-0.0206141768534168247362093,0.0115227802350129481662178,0.00106944015572850523870807,-0.0035984150748466633626399,0.0799870094893896654841825,0.996792969998462119463056,0.0942870897879847236211504,0.0177620013524982661712315,9.79836499867574239885926,-0.00761927725302707133797631,-0.0159242128264746561627785,-0.00275834706975021902441991,-3.9929001524789740074084,1.25080982924453776305995,1.24422288028860394959452,1134.91662612355366945849,1138.5916689841617426282,1122.59674420629289670615,1152.55517185828193760244,103.255278158196460935869,-534.482834106900668302842,237.904304242200964836229,-137.219331467191665296923,162.479637560857071321152
9.69250000000000078159701,0.0411116457337363169766142,-0.657349587871697060847964,0.198373714295012243402638,0.0127299590758273017954139,-0.0219031505882828596287748,0.0126373102507721657428164,0.00108906677693851772388556,-0.00364597824449327135437615,0.0799937900037725052593274,0.996790833128085806968954,0.0997141822291635893105166,0.0211421765603937023003667,9.79372063410218096635163,-0.00761928172022425121562295,-0.0157021751805434435500519,-0.00281032137276811732826132,-3.99292629806781462775689,1.25075942558110231317414,1.24421940074089398819979,1135.12245799045945204853,1137.51638253762166641536,1123.06397956472574151121,1152.35985412665945659683,52.9403475809803225615724,-369.685228903596396321518,153.904850018555919177743,-60.5062400757466107847904,162.476324597145094230655
9.69500000000000028421709,-0.042406889179965719105514,-0.366032243662368306225119,0.0341451089441921484812781,0.0129499844760567767859571,-0.0223006610225997305152479,0.0138991837543551190192748,0.00110332874977824707540819,-0.00371083715542724987962453,0.0799984650246556294739264,0.996789043749657155402133,0.105478873686088991945553,0.0243943973563384847169644,9.78927347409239700937178,-0.00756932933461632821009468,-0.0154592145102510937493268,-0.00288869723328237168469279,-3.99294941207384912473799,1.25071137120390440955475,1.24421492004031741807069,1135.18132786145861246041,1136.74324283964347159781,1123.36626845638579652586,1152.2526406579031572619,-5.36870249275232236385591,-261.844629887634482656722,97.4492660479621122249227,-53.7793007320594966813587,162.472974448034904071392
9.69749999999999978683718,-0.136170392424357605820617,-0.0813281556660347543230571,-0.165950971039993150357716,0.0125735949336781369783944,-0.0222293754068920712541058,0.0147700085563005397565339,0.00111003957054971701123858,-0.00379524316349981330823149,0.079999308516520886702672,0.99678773891794858474924,0.111473858762026950541824,0.0274205295951796546027879,9.78511317266667290937221,-0.00747144680426806758605229,-0.0151960040056606914687931,-0.00299258281013501130016219,-3.99297068090846751786671,1.25066493728553251862934,1.24421107750573090022783,1135.0956144779956957791,1136.20715938818375434494,1123.55122589496545515431,1152.09095762299921261729,-63.1828209722599609676763,-167.187803275211308573489,56.5207405100775659434476,-111.312500551258267478261,162.469593444354444500277
9.7000000000000010658141,-0.221495224695109904633483,0.194009524467409100179083,-0.384295297827679460667127,0.0118290926052918871774766,-0.0218824266399671764349311,0.0143153256856749719339028,0.00110744744277608934968082,-0.00389954855194751554697818,0.0799938754519317340996309,0.996787094595529721274829,0.117559426906401809365121,0.0301360289967688571577398,9.7813232210078560058264,-0.00732931260917522864328788,-0.0149139267812848867050812,-0.00312054551431252893967105,-3.99299058289446495706443,1.25062015256888847680727,1.24420839723927700859463,1134.86541375659726327285,1135.90730382326728431508,1123.64887215893622851581,1151.69607815514677895408,-117.611032138374667965763,-93.0339074717576437478783,40.2955354458691274999182,-266.370878742649608739157,162.466175317131813926608
9.70250000000000056843419,-0.292276987373709995488014,0.519280792412709191196996,-0.624160459052072402741373,0.0106729312785292951987204,-0.0212248745072984544568495,0.0118912245919155137169332,0.00109488538932057391170338,-0.00401858480486569358269833,0.079981026091436729918982,0.996787189334386369843344,0.123499904797762655173088,0.0324898211557207161614969,9.77797939797036974596267,-0.00714802476424816410349727,-0.0146149341002917224074942,-0.00327047235756573176010398,-3.99300912510380756614836,1.25057701692402978288499,1.2442070460962997291432,1134.50755931730373049504,1135.74198985082489343768,1123.75270357219483230438,1150.75910322928575624246,-130.728339624673566277124,-37.7037154782631205307553,48.4012609138158822474907,-439.208585380352872107323,162.462030905697702110047
9.70500000000000007105427,-0.313606510031609941879793,0.78932967168744472274966,-0.778291758549396583966029,0.00940846316671351858007544,-0.0203223848284237278150055,0.00873532145306355443936663,0.00107462738451040472689724,-0.00414040263286819931048965,0.0799617417727413043460061,0.996787952020122935969937,0.128947308185031750404903,0.0345037955987773231614213,9.77514775946456282440522,-0.00693389276853712422515885,-0.0143014457480584670362456,-0.00343928841708121112857865,-3.99302583138945221818972,1.25053534206707084308619,1.24420665879060954317481,1134.21177205847402547079,1135.71878524587600622908,1123.89087846350525978778,1149.50003522824545143521,-104.431985630683669796781,9.75017113523984590983673,77.3450064948673770004461,-605.881907096438681037398,162.458542011896810208782
9.70749999999999957367436,-0.289907544210071421719732,1.05425236224029927889489,-0.871923079061171280024212,0.00777709664382974369400969,-0.0187031088897383658553597,0.00552862270604793058781379,0.00104969259159858117717856,-0.00425114239256322960780476,0.0799384433561091817255218,0.996789209389574937247858,0.133536961591599723231383,0.0362236621670895819757874,9.77288253056746292202206,-0.00669421294391996622719088,-0.0139762692815114091676731,-0.00362273731935119436622927,-3.99304063526593866484404,1.25049513922798682941107,1.24420614199729850923859,1133.98539938915041602741,1135.79074070650108296832,1124.1394286046690922376,1147.72969369380416537751,-75.5405266053794690606082,57.6259617978758740264311,141.394859022671596449072,-872.800936800013005267829,162.45501741989716038006
9.71000000000000085265128,-0.21796596425492523185774,1.34834803633243760501159,-0.927893839497721639730798,0.00612445633516940472762524,-0.0154988907915582681262823,0.00247821233928684821895549,0.00102198955399638137866991,-0.00433756194467575448281416,0.0799149608818246204311464,0.996790685889301308897359,0.136937060068630572784443,0.0376798435462127045969538,9.77122446672825439861754,-0.00643703806889875298352655,-0.0136425299943698924431956,-0.00381529626943775653294399,-3.99305373325754731084203,1.25045659374709083877519,1.24420317221583331956936,1133.83406942544706907938,1136.00691505486543064762,1124.59785275861872833048,1145.13603054424470428785,-35.0849012333983125699888,107.184552963900912914141,195.84491658844521566607,-995.348517108985902268614,162.450748768115346365448
9.71250000000000035527137,-0.139997503722425614691716,1.55467861024420828108816,-0.948793668425424563395154,0.00582674945290644411000081,-0.0116469153198509589586251,0.000643809801309338180196062,0.000994982244238512385237083,-0.00438901464850027442365921,0.0798960016508010184566047,0.996792037215473381017716,0.138893417564453808266123,0.0389371277223306277992521,9.77019847500865701306338,-0.00617095310009607191104042,-0.0133036307021430679625729,-0.00401022669069684041531776,-3.99306521443398887427634,1.25041987357809825098798,1.24419544057505548906306,1133.80997488298339703761,1136.32666347132067130588,1125.11865318761147136684,1142.75295110825845767977,5.68484245004696564507185,161.902072135749591552667,235.905468137345081913736,-946.645424701279921464447,162.447161364984737019768
9.71499999999999985789145,-0.0703842245826603735148197,1.6998641207367104488668,-0.967998211237233174841776,0.00677035172415049995436886,-0.00697099655611557907086695,-0.000778745717408534880027426,0.000972685310164224099620245,-0.00440036348024268504641743,0.0798844740680378501140879,0.996793051667505092261479,0.139285154144122375052817,0.0400713513669306853337559,9.76981263679731704030473,-0.00590483801622135838493843,-0.0129631817323798120139555,-0.00420006684387212551878843,-3.9930752656079127049793,1.2503852474837442443345,1.24418152933090975231778,1133.86249363769729825435,1136.8164254155440175964,1125.77738009930521911883,1140.40280342073924657598,25.2383460139804078892212,221.686987606334241718287,284.178319230397562478174,-891.65900687803059554426,162.443546566425141008949
9.71749999999999936051154,-0.0202338600229714504763479,1.78582446999247834718005,-0.996740065133659203233663,0.00805451969064368590578429,-0.00221193664358820991922006,-0.00218710912313893569500212,0.00095385873012085930708337,-0.00437564213065309414590898,0.0798768840394110529734562,0.996794004680228495907102,0.138185941983799576160408,0.0410513262901895659151563,9.77005938068939627783038,-0.00564759388773773685077373,-0.0126248485199438702231145,-0.00437752988690604926541594,-3.99308149505108112009566,1.25035434385045562954986,1.24416088289459025872929,1133.93616661305327397713,1137.435098409352121962,1126.53954478376317638322,1138.29465607386919145938,21.1577173462923049385154,265.135370318061575289903,325.236243341072736257047,-735.351273464606151719636,162.439912793117372302731
9.72000000000000063948846,0.0106540462091035854907961,1.800308984602151829435,-1.03640332687675540412897,0.008570836108146559495502,0.00229603460366955636554054,-0.00388493971592122986496998,0.00093647703314831656946915,-0.00432760649717041367967596,0.0798696178179249399731177,0.996795153390590216169187,0.13586295960512292935185,0.0418248735147041250659328,9.77091601491777694832308,-0.00540796603007229030601888,-0.0122920504951034605112259,-0.0045363001316340492014012,-3.99308347370107385998494,1.25032721174900207650182,1.24413530239465597304616,1133.96828222442877631693,1138.14210226713453266711,1127.4035613160108368902,1136.72604705341564113041,-12.9236672170898412304041,302.344202743686821577285,394.2443143474813496141,-512.521908905329723893374,162.436261649089857428407
9.72250000000000014210855,0.0486954081049545128845324,1.7424551120958469141442,-1.07968227647575965022497,0.00787686471020653151964286,0.00739890921554876759141939,-0.00659919110591264054810345,0.000920102974303380386454643,-0.00427086768764200434139733,0.0798590165840103727301624,0.996796758040709329762308,0.132645168377160532768855,0.042374566458114687472758,9.77234833424800797274656,-0.00519393979694917143352662,-0.0119676673917902681720804,-0.00467185171793394696942991,-3.9930823199618212804296,1.25030286114224953308849,1.24410792527516256278375,1133.87154827696781467239,1138.94681942307079225429,1128.51076635550089122262,1135.73204652934214209381,-68.2462475723831829554911,262.724917081511648575542,407.667572886011100763426,-190.666793234269533741099,162.431868581749569102612
9.72499999999999964472863,0.0971386882849773619641454,1.63846586858638332273586,-1.09256649414101292272505,0.00694280772045459838165415,0.0115367056226669123519812,-0.00968248191626736899595418,0.000904376146003805212771065,-0.00421361070255726454653056,0.0798429649396365237468132,0.996798984428253653788943,0.128757342877759306531971,0.0426994285336116663476247,9.77431604913321194771925,-0.00501214882603798119603544,-0.0116537411372857439839645,-0.00478202734507236857514068,-3.99307811120697442319738,1.25028086845049601905089,1.24408058684636135815538,1133.62705098656692825898,1139.45572685254182943027,1129.44189918044048681622,1135.77271308724448317662,-139.292308322752489857521,144.828325052390113114598,358.519306076221596413234,206.599461545933536399389,162.428204945773728695713
9.72750000000000092370556,0.166988140937099377447694,1.48536483715652223303039,-1.05985132425470895967123,0.00659316530684029514924882,0.0153206846180744503393978,-0.0132731739969053665062493,0.000891580612393047511853028,-0.00415611012913389733791636,0.0798228522590830325000866,0.99680173726864218508581,0.124291971265046291561518,0.0428652808483323266575127,9.7767754926595031861325,-0.00486742062927545803691087,-0.0113512882950947031901467,-0.00486708746875674867077288,-3.99307124962778825505438,1.25026096046559365149164,1.24405458660190082476049,1133.17508673535394336795,1139.67096104833285608038,1130.30336288588227944274,1136.76504383707197121112,-249.180307318153779760905,15.0664207580097446737,341.315918824367429351696,636.746540274717062857235,162.42454728970389510323
9.73000000000000042632564,0.261590587872698066007615,1.25638028470786800028236,-0.958780485065432452884693,0.00724170728017907786022711,0.0190150451962582955900416,-0.0171682114231497227885281,0.000883589624372725559314778,-0.00410341702513392254936253,0.0797988516761141269961755,0.996804979419491643533036,0.119446213736281670048101,0.0429243227879156641346725,9.7796808524829117459376,-0.00476237057828084956595527,-0.0110601752784492309011899,-0.00492952979261374654024186,-3.99306336767853675695505,1.25024151869892463651013,1.24403185668432403332417,1132.38114944997596467147,1139.53105895633188993088,1131.14847877456259084283,1138.95644578861856643925,-330.558477470069476567005,-109.510600600673527083018,261.597181432677871271153,933.960510480941820787848,162.420174838232640013302
9.73249999999999992894573,0.334620098032414547972735,1.03509621124719974893935,-0.8294830616889260488378,0.00866145549555018268161888,0.0214430037984799648498324,-0.0196943240704312329258929,0.000882070712009478817734742,-0.00405563826325466836308919,0.0797724539625465633996271,0.996808560135417964787052,0.114328768394014096410061,0.0429320910222932283772934,9.78298884886248210079884,-0.00469712257259698260508651,-0.0107790859727855941468944,-0.00497376516379128240374907,-3.99305614808218445332955,1.25022064080797834506598,1.24401382919955616479513,1131.5222943480039248243,1139.12340804532959737116,1131.61134879304540845624,1141.43484638947575149359,-376.39892746531796774434,-193.420286941811639280786,115.2535598114129413716,1061.5121393052797884593,162.416551777344039919626
9.73499999999999943156581,0.39020575994353223769906,0.786186417524484149055297,-0.671193180547280165981761,0.0102242051791974937480223,0.0234332397508809076036584,-0.0214456146053048565813803,0.000891468214170920226005479,-0.00400721387044640324492928,0.0797484122233311637506503,0.99681204186482907925182,0.108946095196356312895247,0.0430049557095491252756148,9.78665978590253793356624,-0.00466936988857185025086904,-0.010505720899296954254365,-0.00500540753166949826946652,-3.99305219874581140970804,1.25019694649842683098484,1.24400220928520033325526,1130.49915481264974914666,1138.56395752162302414945,1131.72474657361954086809,1144.26400648514390923083,-427.007304192399374187517,-215.959373448061228373263,-25.4500719342519232668565,1131.2696567105881513271,162.412957607411726712598
9.73750000000000071054274,0.431707653326738549637298,0.514025751977844502782489,-0.504654119731447581287398,0.0110643652263595123480533,0.025115410562346601047734,-0.0226040246894677505917759,0.000915234082979617547676243,-0.00395230580065763972136272,0.0797304158872373242017417,0.996815004195250708995957,0.103296055985807863630832,0.0432375488296391774500904,9.79065847364359775895082,-0.00467470294150040908270904,-0.010237166388624624469017,-0.0050304477164589455132071,-3.99305341572190553023347,1.2501697594186047535203,1.24399722147723834630995,1129.38725782704159428249,1138.04361117808912240434,1131.48409843337412894471,1147.09119467302957673382,-452.138471915870752582123,-157.439286705878600969299,-191.360033524885807310056,1060.48720713126181180996,162.409392574924567043126
9.74000000000000021316282,0.460566517906708328133902,0.212838680298021221126703,-0.345006658012344702424201,0.0110254029633588285924661,0.0261809370589714159038852,-0.0231084639952672359075603,0.000949286371074815112786061,-0.00389600206542749455743135,0.0797159073542748342067199,0.996817391432999078126898,0.0975714285500799416439577,0.0435570713725953462258644,9.79495434031069756031229,-0.00470731024659652025343703,-0.00997032623263324410678443,-0.00505430951348010901180707,-3.99305973414820192246566,1.25014022873619023989988,1.24399709698455795958694,1128.2384624530700421019,1137.7767610880935080786,1130.76794640599496233335,1149.56644252080104706693,-494.873707688937656712369,-18.7214774066925144779816,-424.929625753195921333827,936.203152238071879764902,162.405868485245207466505
9.74249999999999971578291,0.472742653390251954537149,-0.180092872965898986858946,-0.175332280234079179725981,0.0112014177665834113034604,0.0265081420675701007194647,-0.0231986149570331291747127,0.000989688749258653670953789,-0.00384197222224945530641427,0.0797021236669913368810825,0.996819059755780445541973,0.0919298072109348829439313,0.0438910548928654609124322,9.79952067386578207219827,-0.00476081968465563807463292,-0.00970236521712997297683945,-0.00508088536287883921899189,-3.9930708519592363892059,1.25010918304554197177936,1.24399951481842507838849,1126.91288928859739826294,1137.95000379105567844817,1129.35945030460857196886,1151.77221043421900503745,-462.96501017383928910931,159.026411717488969088663,-595.660268115123130883148,651.164006430406629988283,162.401693847871570142161
9.74500000000000099475983,0.443558860026524781616786,-0.529133068337173662065709,-0.0549265592069998684343624,0.0124056134944871363640084,0.026092726340814397650858,-0.0231859041178097517732493,0.00103367296425513864599477,-0.0037890686597242036887101,0.079687561786066313240795,0.996819884882909512668903,0.0864271408565230186971107,0.0441926360738891244039905,9.80433292216405227748055,-0.00482908492892863364792655,-0.00943099301322609592790336,-0.00511195588574467948278501,-3.9930864748234475847255,1.25007746380380835304891,1.24400216577244648874512,1125.92363740220048384799,1138.57189314668107726902,1127.78964506541888113134,1152.82226255295358896547,-353.778627901910283526377,342.544734366484703969036,-678.980768730965110080433,250.639281467017013937948,162.398264888102090708344
9.74750000000000049737992,0.341457227111940597730211,-0.889798469014052129111292,0.0475823444756307140091067,0.0146716811420598038095964,0.0250091961061203460481295,-0.023310840425148415810952,0.00107555260484340714857709,-0.00373833216854096810066732,0.0796711486537642898930756,0.996820273889136854172932,0.0811468941708287649916542,0.0443504097331487989741561,9.80936642805170855297092,-0.00490692537243212888870003,-0.0091545782410297187742243,-0.00514698759217290229689423,-3.99310393802237006966038,1.25004659670002249427512,1.24400242300274888052058,1125.14399614908757030207,1139.66272746288836970052,1125.96454646095321550092,1153.02540684155428607482,-272.175004285881698251615,560.356036157939001896011,-808.01246847661491301551,-78.478698602854976229537,162.394893026010180392404
9.75,0.112569165481264193973132,-1.3124570108613498042871,0.156220238173210901333476,0.0174040507115638849733319,0.0224080094754037124904489,-0.0233815151078229747916293,0.00111107722736808836073996,-0.00369796183971293117645485,0.0796525033100943385955262,0.99682056172711197561398,0.0763041582983301075460147,0.0442665921956026109373994,9.81459232491978283974277,-0.00499063520344161532654725,-0.00887220965160590881171121,-0.00518313729681325278259019,-3.99312177504902043878587,1.25001671271289582776376,1.24399918853254565220823,1124.56276238077134621562,1141.37367332747021464456,1123.7495827230366103322,1152.42986905993939217296,-137.984037425694793910225,666.357691921890136654838,-771.180950971091760948184,-321.429094450168406638113,162.390918865432439588403
9.75249999999999950262008,-0.16122782248369479929373,-1.63100870482888660184528,0.236238072564134843345229,0.0186197729606857320661106,0.0187673122808787520843232,-0.0230904889530102741534989,0.00113979873284171702441103,-0.00367268215562412689637051,0.0796320015895513599879507,0.996820924919862627611167,0.0720420560588297675952418,0.0439211807166639822685994,9.81997593350796549316328,-0.00507802116954780315138951,-0.00858368805200113681175278,-0.0052157107954355986026429,-3.99313885389433709249829,1.24998753417521868414042,1.24399236623094666676081,1124.45407596195923360938,1142.99451592249715758953,1122.10864170609852408234,1151.41826136930376378587,49.5669499749887876305365,656.915021191604978412215,-564.038177184150299581233,-458.644046270838941836701,162.387671554615877766992
9.75500000000000078159701,-0.48956017027083287285194,-1.88189412347807483172346,0.302985064601916986859464,0.0179674865895201561760697,0.0137711468501926295737725,-0.0223803029562637881277887,0.00116412370513927290738287,-0.00366281234424247446879175,0.0796117369149255404980892,0.996821329120941568291414,0.0684129289335898976842643,0.0433562971591969770202013,9.82547509247082118122307,-0.00516832395296310410232055,-0.00828949201220426437619615,-0.00523872957143813131747345,-3.99315367492876482913289,1.24995936162962939519616,1.24398178302690376462181,1124.81059713064632887836,1144.6582484334287528327,1120.92939183711541772936,1150.13664882858483906602,270.220794789750982545229,717.010934314454743798706,-371.651804759618357820727,-566.272830951541095600987,162.384496486623532973681
