t,ang acc x,ang acc y,ang acc z,ang vel x,ang vel y,ang vel z,quat x,quat y,quat z,quat w,acc x,acc y,acc z,vel x,vel y,vel z,pos x,pos y,pos z,mot 1,mot 2,mot 3,mot 4,dmot 1,dmot 2,dmot 3,dmot 4,vbat
2.50749999999999984012788,0.402835214546135023105933,0.959122354531516174702688,0.204712668545572407108324,0.00523834666461674234444468,-0.00441514526512514458855829,-0.00290611711095415271161047,-0.00084632846504810834483562,0.0012413539644023326765504,-0.041558412768021163463672,0.999134812555071194495326,0.051121378526850738688303,-0.0128108351665197073288027,9.84406368578793156132178,-0.00153178401899366385674472,0.00540922639350371447369836,-0.0138236173147708273079015,-1.1786373873387312460892,0.273952708466223937566753,1.21448580596802058195749,1103.6654576796779565484,1110.54871687592230955488,1112.92916521203687807429,1113.75556963240046570718,600.343362213111959135858,450.797494019404041409871,-303.48949976185167543008,-365.900199848759086762584,163.060631399143744602043
2.51000000000000023092639,0.25155446105319739791284,1.078738272242057538719,0.201056138690230895571531,0.00375222662685464067658381,-0.0013764976307963246431737,-0.00223386396870545135204256,-0.000842960155230710792527427,0.00124518151545430417505289,-0.0415639347552641050254074,0.999134571020570350086132,0.0521201993310470151898883,-0.0124473400777474242639986,9.84848177658832391045962,-0.00126186131216107972653762,0.00547487125238927709036663,-0.0137103445982860588925334,-1.17863765303118972482821,0.273964136471848529463813,1.21444311840150853676334,1104.87734357070462465344,1111.73401491956565223518,1112.1662697604920140293,1113.01255643552872243163,399.730519334725897806493,507.41898713764595640896,-352.487338892091258912842,-236.895605752563284340795,163.059126102251099155183
2.51250000000000017763568,0.126820632775930142166487,1.14940065527783952248342,0.187052476418333418761719,0.00225174488928262580417217,0.00207014836280365252529911,-0.00210893063180507414969278,-0.000835260337189041332343897,0.0012530494826979907390524,-0.0415683717669425925600457,0.999134373061635328028274,0.052892850991600237620105,-0.0119518467683974449755624,9.85248940998430988713608,-0.000994047884877257261274086,0.00554715328688903767939689,-0.013564919689419344464576,-1.17863683355545934006159,0.273974126724206068494993,1.21440021802942532680447,1105.66411027635172104056,1113.08581181161071071983,1111.16672851757630269276,1112.57109160363756927836,236.748110919466455470683,546.444436742342759316671,-452.065864614551742306503,-111.756738194346894488262,163.05757603799412436274
2.51500000000000012434498,-0.00152117594412121137636973,1.16533740673356711603503,0.177443810205661134382638,0.002450879428246642566247,0.00558648053732107175567423,-0.00235099639603003228091604,-0.000822879074448303092850776,0.00126287105333115746118311,-0.0415710227730076223306988,0.999134252365045494315154,0.0534800287816259989348566,-0.0113315746405262748885967,9.85600663198271753628887,-0.000729089052526775286203198,0.00562816105584399133804352,-0.0133885869674367601056542,-1.17863517311453969149682,0.273983063527540759984902,1.21435776043558552039769,1106.06108412530193163548,1114.46623710327730805147,1109.90594043741930363467,1112.4537727445569998963,70.4201107316308991812548,532.691205316871219110908,-571.518059176072142690828,36.9147962112045817661965,163.055988053838831319808
2.51750000000000007105427,-0.179057261296248659832031,1.10985465864415200343274,0.181017003765677197968387,0.00501723527698134767749405,0.00892334307495276993216216,-0.00268494406330038954192063,-0.000807845639495305520468016,0.00126898756854386960193914,-0.0415743830350743248658318,0.999134111349476938812586,0.0539966993332511718817202,-0.0106406918150011402246502,9.85896154355231502108836,-0.000467391387064657450132327,0.00571938669975010326174125,-0.0131839190449450326114711,-1.17863275413787582657221,0.273991706696363135353778,1.2143164038694291839704,1106.01621083000986800471,1115.74926783819500997197,1108.30913822169600280176,1112.75566558469358824368,-101.601206328043531357253,509.512821188456598520133,-761.508166757101093935489,220.176004798218087898931,163.054353175356311567157
2.52000000000000001776357,-0.475580257635940695237764,0.967021802199521163245777,0.196360296430823394464582,0.00807308253842109295461693,0.0126236218148051970722179,-0.00265871270056801910219857,-0.000792317051446807273963613,0.00127007060373573055916951,-0.0415790752444012215449654,0.999133924955590946304085,0.0544741510456591138122917,-0.00994207091014160521114107,9.86129470185012380056833,-0.000208720751374893287574327,0.0058215611313690643346952,-0.012954799157255128538857,-1.17862979883253271573551,0.274000854587270692430678,1.2142766360026557848073,1105.55307809366172477894,1117.01380120921953675861,1106.09839960363387945108,1113.55465276854806688789,-218.719513039154776379291,397.317918168127391709277,-827.051595001257169315068,349.518607016587509406236,163.052335326366630852135
2.52249999999999996447286,-0.767878238394339329708771,0.797658615841676632562951,0.206807911522912585278178,0.00846042643669906585524032,0.0150986229001897707263646,-0.00212450008575797936322127,-0.000779531191606860776946442,0.0012704972819652640605298,-0.0415841196928599526883019,0.999133725593435606526782,0.0548328036666009960287127,-0.00932566657970101964281184,9.86296235286094002958635,4.78101466302351802133835e-05,0.00593465524970686331140968,-0.0127062696595287329126567,-1.1786270502826523554063,0.274010791136078846186308,1.21423881662455190877381,1104.92261326481411742861,1117.73585742903560458217,1104.17388024668980506249,1114.50325861977648855827,-279.915838179573768229602,203.56294031658288190556,-731.164435666975919048127,413.325915063805666704866,163.050605633342570399691
2.52499999999999991118216,-1.03414107632943785830548,0.599598623497320071251693,0.197855333873810712574937,0.00557831281512342902484392,0.0164292383002917312395663,-0.00119856829482117214873138,-0.000770599062997462456829634,0.00127011589613279258365042,-0.041591386051105370957881,0.999133433190869668649725,0.0550803562644969629813474,-0.00883453628649197991729025,9.8639371485441138531769,0.000303332629630058880822879,0.00605784267533354854606831,-0.0124443769620050173618786,-1.17862520771157486265679,0.27402207663226346712193,1.21420350821588907130888,1104.15349890276388578059,1118.03161591080242942553,1102.44257742529907773132,1115.62128234386705116776,-348.123761579434528812271,28.2546374068721561911843,-646.733990995530916734424,501.685033921932472367189,163.048823986284531883939
2.52749999999999985789145,-1.22681862068851210700871,0.356015803638669803277139,0.150224732924806564371423,-0.00076705064546535306480024,0.0167913955287066103683191,2.17450371081331786729529e-06,-0.000768186911667944607659542,0.00126631193554873613602019,-0.041601629588279155635977,0.999133016144296837168781,0.0552740364834895525625313,-0.00853831126047549515689639,9.86421049267749694422491,0.000559133195504795364738637,0.00618970639124819931725652,-0.0121758763081694868640747,-1.1786242454119921774236,0.274034299842628503718345,1.2141716853564785694175,1103.18199445691698201699,1117.87713061606996234332,1100.94021029171221925935,1117.0116837893860974873,-352.620438928601117822836,-131.923535059140903058506,-412.358756240673187676293,499.021339315925558821618,163.046623854847297252491
2.53000000000000024868996,-1.23446085614140188546628,0.159590314175751396552627,0.0764963942575440231097517,-0.00662673341997343113424224,0.0165344661139626147861037,0.000898477016088534540666499,-0.000771802371194015013333711,0.00126052847653919538294109,-0.0416160863572085371053788,0.999132420545718602511442,0.0553879616895252835373498,-0.00844401710407334527008771,9.86379452479738816350618,0.000816559636201663412678753,0.00632824015701102630948593,-0.0119079229007138468615645,-1.17862388159911990470619,0.274047443652333244656916,1.21414324976839194114575,1102.39039670812076110451,1117.37199823550668043026,1100.38078364409557252657,1118.11638904044684750261,-305.079071424577136895095,-257.382472211139315731998,-52.3129050510725548406299,412.491095206377735848946,163.044737742329147067721
2.53250000000000019539925,-1.07359877587288954359224,-0.0310509236178460566735193,-0.0263510036962892948975146,-0.0109548222084300140438673,0.0165539030002352510750896,0.00148008506279029630747779,-0.000779105282181378621005063,0.00125720391238427330743432,-0.0416328943175020907419004,0.999131719668890361241154,0.0553355227584400588547453,-0.0085206338875011174149865,9.86272234959739080295549,0.00107680255217282110601074,0.00647097545396857140587166,-0.0116476430660879797657214,-1.17862389305530301797376,0.274062026931524205242141,1.21411732771350533433008,1101.65659909979399344593,1116.59021825501417879423,1100.67864576645683882816,1119.07413926541812543292,-282.164079912178408449108,-337.93939820294139053658,259.475191950065038781759,348.409359363320788816054,163.042796936580742794831
2.53500000000000014210855,-0.795021711966884758737706,-0.224671607825751989961915,-0.141358828687544568758483,-0.0135297884985393756379635,0.0170248089563647710120708,0.00157069546934807124927147,-0.000788111745922440653198959,0.00125744470624742591541301,-0.0416477526521542920634467,0.99913109290668855599904,0.0550962425524613025329401,-0.00873649349261121366261307,9.86104662284077271294791,0.00134055024294622718641912,0.00661515158945524556904916,-0.0114017726945263176557832,-1.17862354491361775998826,0.274078311555038534041984,1.21409318500574125998526,1100.97957630855989918928,1115.68230124449200957315,1101.67815960384587015142,1119.85843583726341421425,-258.257211773712754165899,-371.065898597051898377686,538.884152113553341223451,263.354325001733911904012,163.04081156898337212624
2.53750000000000008881784,-0.415723187578618424975474,-0.42641390121648753419592,-0.250440924165653555633071,-0.0146874368112137297648356,0.0173121022808629676514869,0.00086493296538494972031802,-0.000795078307593204440181789,0.00126335692790717143974,-0.0416572572625043269223255,0.999130683893489579538993,0.0546289651528235609134754,-0.0090201565088942267656158,9.85883884731146409308167,0.00160793745160644542015194,0.0067578589374408517750914,-0.0111764369030023947432229,-1.17862220325454924996222,0.274096359041553050417406,1.21407049557069934841991,1100.36531304092545724416,1114.73488876202895880851,1103.37306652702454812243,1120.39091089042676685494,-258.952472030619958331954,-404.603653566809498443035,839.860373666096734268649,170.218438729356421390548,163.03877442505842054743
2.54000000000000003552714,0.103130770787198122739881,-0.66511116187878194239147,-0.348051701924032563795208,-0.0152252797653939717092975,0.0164950417947815064501071,-0.000713878239811164020875434,-0.000798493047467218252863375,0.00127821244978810642442535,-0.041659856613564832938934,0.999130556604296171663293,0.0538724394677266293918194,-0.00933903003331785011575938,9.85618750537046750537229,0.0018785032632788870900209,0.0068963464338605779194169,-0.010976930324135027172705,-1.17861964883273984128209,0.27411565341049803912199,1.21404905380799910119549,1099.68481394840682696667,1113.65928297665800528193,1105.87746147217626457859,1120.70952803091017813131,-242.402588928694683545473,-373.497008793364102530177,937.221819708222028566524,62.7804432711413653578347,163.036273809528609035624
2.54249999999999998223643,0.551470728076783767157565,-0.839632979438913573666525,-0.388221833993412090979547,-0.0147300745599172524386011,0.0144697784135104923208814,-0.00242344962105981885300277,-0.00080140816600001905066486,0.00129836414909665276082307,-0.0416574332674630037898211,0.999130635446399129051542,0.0529069768923534078375326,-0.00973870867103056661595595,9.85319412423407214873805,0.00215103617450623091356121,0.00702825685186382782820846,-0.0108075920405142841818069,-1.17861531521678308820356,0.274135803306721104188881,1.21402867864833341471353,1099.15330009628200969019,1112.86740371806217808626,1108.05917562556555822084,1120.70481310678246700263,-207.205103525079579185331,-284.972502493389299615956,822.807087271138925643754,-54.286964654694450871375,163.034146975788502231808
2.54499999999999992894573,0.969755209034451226557394,-0.959905002197586898482484,-0.38177139725066089326333,-0.0125501585638083112961283,0.0110996557822809968629763,-0.00419117779573505589568727,-0.000805201446816872635874052,0.0013147613326245414198945,-0.0416523342954879735589024,0.999130832698899240540413,0.0519200202009247185896967,-0.0102225837598047680776503,9.84996997109610461507145,0.00242377875150261200623558,0.00715161719805858849680069,-0.010671786473183300647527,-1.1786087217710798924486,0.274156683057570571548922,1.214009823384083919251,1098.64878843078145109757,1112.23442046419108919508,1109.99149690853187166795,1120.43809320763671166787,-217.078610037019728906671,-230.54697452844757776802,730.609205680018135353748,-166.580241287241648251438,163.031981051501190904673
2.54749999999999987565502,1.38417954957113620295672,-1.02333433546060570407121,-0.333380989147872064393141,-0.00785746704268367596180056,0.00643087914732626969582796,-0.00564948970303181825097782,-0.000807223808074857820601955,0.00132287228583247455301897,-0.0416441963652230823234035,0.999131169703494137479538,0.0510093530427633140567067,-0.0107153640499581120915096,9.84663375053455425245374,0.00269487670232621944615969,0.00726488982076241209678846,-0.0105717598782480489555402,-1.17859997370235247693415,0.27417842639772216362104,1.21399211463826062207261,1098.06790704609693420934,1111.7146688454199647822,1111.71222165396557102213,1119.87191190034627652494,-209.407615010818034306794,-143.046224509852777373453,506.431797435709484034305,-235.127608584146003067872,163.029344175000858285784
2.55000000000000026645353,1.62814225175027349479251,-1.0149241958271453256657,-0.277420885940020511828408,-0.0028584332033909838101382,0.00297824122190796505491028,-0.00582139023686194332501964,-0.000805679856631107420457394,0.00132402500465613132477061,-0.0416323019375907585337693,0.999131674030627747740141,0.0501608728505879147840929,-0.0111611506924415293529051,9.84330785134237018496606,0.002962575806553340452415,0.00736718835019301888922261,-0.0105084080205634974175544,-1.17858952693773089137608,0.27420084012101175741094,1.21397506436901037041309,1097.60175035572729029809,1111.51918934164177699131,1112.52365589571058990259,1119.26245516471590235597,-182.193062499606156734444,-22.9732542125914704911338,192.851673122446015895548,-252.477291083170030105975,163.027120843852742382296
2.55250000000000021316282,1.75410275766910683792332,-0.971638440228102973073021,-0.225184018580815326071587,0.00212584158156186447952152,0.000641207877076999327795037,-0.00519476730861031382735504,-0.000799799365471635503171965,0.0013200198411737822882378,-0.0416141644337015143007008,0.999132446667608586921006,0.0493548762720550093785477,-0.0115240335782420509624924,9.84011317220000769623311,0.00322530715907463037817049,0.00745835414543777764501131,-0.0104811904844609206366446,-1.17857767603921304022663,0.274223305803623362830734,1.21395838160582991704928,1097.15694173359884189267,1111.59980257435699968482,1112.67648001957786618732,1118.60952544493034110928,-171.886668055871297156045,78.8224226543678412326699,-32.6255292354296813073233,-254.709975857809666877074,163.024877069581975774781
2.55500000000000015987212,1.78775764847513940480894,-0.927845065617639463972921,-0.180004764748323609069303,0.00657604524978489934222692,-0.00071075478630050991073891,-0.00471576400948179545041805,-0.000788892338554895945421097,0.00131199419691649366535857,-0.0415900623319378562325888,0.999133475044445718005193,0.0485870206704535623210006,-0.011769255346049379423734,9.83716456323495158642345,0.00348173673682234318879636,0.00753899436785251866183222,-0.0104881007669313051217097,-1.17856440660830275035664,0.274245366075307139830386,1.21394114587547141681512,1096.74231701544795214431,1111.91330145491360781307,1112.36052824953344497771,1117.98890528542688116431,-151.069959988538840889305,178.23404677729212153281,-208.566837341963832841429,-231.169285658511768133394,163.022621075985540528563
2.55750000000000010658141,1.72528134791734255593099,-0.910425097302157704248771,-0.131667526963306552589827,0.010257526886436399427005,-0.00142575645259307394116521,-0.00508207900406544739457804,-0.000771010887266301370504551,0.00130305925021422571580265,-0.0415648288579131830466906,0.999134554774972483137674,0.0478147710159313593658581,-0.0118402400479379991959927,9.83456696756432080519517,0.00373091025020676463758162,0.007610438483930747656514,-0.0105256994275253184384367,-1.17855020360386708588862,0.274266970836918477782973,1.21392249417512476661329,1096.40159193365616374649,1112.49097280824344124994,1111.63364583286806919205,1117.4536790166378068534,-116.143553468830504016296,307.096009236927045549237,-372.127014066298897887464,-216.964307771472789454492,163.020355958320152467422
2.56000000000000005329071,1.55455282708065523067376,-0.93032686459975810766565,-0.0466500233345453485522825,0.0141117122569696835931996,-0.00252230473296952313611019,-0.00658235260433013245895406,-0.000746427143374496873153012,0.00129445684223295073497773,-0.0415432093639536495488507,0.999135485871695205872811,0.0470353957032139252669722,-0.0117259260701431770879122,9.83241112040414577677439,0.00397231685280206511801104,0.00767469877382033743157264,-0.010589235389042753535116,-1.17853592791173555909268,0.274287742705806747434139,1.21390205777058346470199,1096.16159924810381198768,1113.44878150109821035585,1110.49989317920199027867,1116.90408374656954038073,-43.485058829311142858387,387.509348607690355947852,-432.010160793843283499882,-195.640880411296706142821,163.01763438289782470747
2.5625,1.33455942070438404734034,-0.968694805077157106154573,0.05635342203810411731979,0.0174261683017913442117486,-0.00419244659053460977382599,-0.00817328701707602939263708,-0.000717401043794864542654799,0.00128324872798752233175879,-0.0415305241190038476606361,0.999136048265438336812849,0.0463302580183007350900226,-0.0114552229187112608599364,9.83076985958944860044539,0.00420582171746351329150171,0.00773434133421845807637718,-0.0106728943047407244526514,-1.17852199529051437920657,0.274307139568698454823448,1.21388019172136729650902,1096.18416663950961265073,1114.4285195512818518182,1109.47359502889889881772,1116.47547461458134421264,75.2813387172425478865989,418.581912623139771767455,-402.350127449480567065621,-181.689632851115902667516,163.015368643180437402407
2.56499999999999994670929,1.02850656226617021005154,-0.999205685702458934471792,0.182004998861676647869956,0.0210157364338988059127011,-0.00698166933501642109766161,-0.00886344182288084300735953,-0.00068734378813965063808461,0.00126617648216499384568323,-0.0415279557793583817271177,0.999136193619923451691989,0.0457876975096533495035445,-0.0110852388958097118620838,9.82969596025309577669304,0.00443172986329997201093711,0.00779223551606330992747029,-0.0107700011821574397063994,-1.17850842996683424779292,0.274324831430606930204874,1.2138572448012527882355,1096.53800594169001669798,1115.5416910642138645926,1108.48814254195463036012,1115.99563558231398019416,246.337122476239329671444,505.385396450321309202991,-403.242944295388440423267,-237.879048130621924883599,163.013111219994868861249
2.56749999999999989341859,0.5619997289302303133951,-0.989750502661449038654951,0.319428417689338384199971,0.0248831297200585895013081,-0.0112773615825382013400091,-0.00773822393957953984233722,-0.0006583703815530746444179,0.00124315448093448126243299,-0.0415329328160189345520159,0.999136026834207768843044,0.0454316180396206192870778,-0.0106563464239834634894599,9.82922058467362447231608,0.00465074010981518948942837,0.00785124190569792129723581,-0.010873197054355821303262,-1.17849509590050782747994,0.274340983466707988291944,1.21383283481571524475839,1097.415852251890783009,1116.95544653353340436297,1107.45738030742199953238,1115.28607937392825988354,394.86744801516510960937,517.732942856457270863757,-341.13954537256904586684,-284.332843050112103355787,163.010418591006299493529
2.56999999999999984012788,0.105632043545570916687204,-0.928206967480940559056535,0.389409307335412624428983,0.0269324956797153923504506,-0.0148330341636440602576252,-0.00560505772904089025199248,-0.000628953825294851359695159,0.00121734498801877094251167,-0.0415410974155909495930672,0.999135725924433892863874,0.0452172680744923755069564,-0.0101458330859247394806211,9.82935209592666581102094,0.00486381725354689126161745,0.00791390518197892210705557,-0.0109746432366731646451674,-1.17848139388101369462447,0.274356185638132521464883,1.21380629806305484486018,1098.51234318176580018189,1118.1303557784960958088,1106.78244481509182151058,1114.57397136706345008861,492.213479142777430297429,449.244232712696145881637,-221.897956293317776044205,-298.221670647424502931244,163.008192615607839570657
2.57250000000000023092639,-0.3817215514639987761214,-0.813644927266797157727751,0.387206505027992808898318,0.0270136632451468162996466,-0.017556839955512170553531,-0.00333901186742020317579915,-0.000596656946636165601630108,0.00119326747918887068368454,-0.0415489171481999569612853,0.999135434517924636566022,0.0450697638351478663265581,-0.00951918191996230234064313,9.83007576214780698364848,0.00507205817400931905508665,0.00798232198944448002875252,-0.0110662411806006968223448,-1.17846678367015766930592,0.274370933389874560592858,1.21377686612166968416204,1099.87691964760483642749,1119.20166769709703658009,1106.34789052595533576095,1113.79497102069103675603,560.779462306398613691272,394.57040407198354614593,-130.925750707629305225055,-304.931846710385229926032,163.005989454506959646096
2.57500000000000017763568,-0.854460601785582363199012,-0.669626665510482443899321,0.322288139759809133533253,0.0252172456828148421059677,-0.0194627537044914505903748,-0.00147591516741978935611801,-0.000559723070245066634149922,0.00117434660204265351769737,-0.0415571797041628110402911,0.999135117801846162066681,0.0449327205503883830850498,-0.00875798223908581113805738,9.83135435382977362905876,0.00527659897416778416595617,0.00805808558285198324455667,-0.0111399875538943041869411,-1.17845123774033067043376,0.274385675920843785657866,1.21374385629446068790571,1101.31624049329798253893,1120.10320779885614683735,1106.12781606155363078869,1113.04931213351142105239,549.268017901488633469853,301.29446580800237143194,-41.5988574426146229257029,-263.06521676015671573623,163.003807710744212045029
2.57750000000000012434498,-1.26027484981166026933863,-0.513582639058186907199399,0.196213374489106445741626,0.0212740334237514622239829,-0.0205515431332611783754594,-0.000295435411998948554285205,-0.000518284899765452289517598,0.00116153199087088592790507,-0.0415661091524908710148623,0.999134766647830629970883,0.0447961864073959242782408,-0.00788231693256458837426592,9.83312990203962300483909,0.00547870712700511582060603,0.00814221385923670493145465,-0.0111884337953454642000661,-1.17843544724469539985989,0.274400640239382265228585,1.21370730183264097234996,1102.62325973711222104612,1120.70814002613701632072,1106.13989623874226708722,1112.47964493689028131485,489.679848020033659850014,182.583015011236312830079,37.8636008242673511858811,-176.098092497253787769296,163.001654003046581919989
2.58000000000000007105427,-1.62465614549344716799339,-0.340231912413857640054005,0.00784368996071279495074791,0.0149509397561808244497827,-0.0212282201791214632236038,0.000317905143852919647509681,-0.000472895321327658360935353,0.00115667098098959147609022,-0.0415733563699671945790293,0.999134478103945067317682,0.0446290102824880158260967,-0.00692378044256949237711396,9.83532698213982747859063,0.00567989426979934996370103,0.0082350871526441684483677,-0.0112051881990535475569493,-1.17841985196388421286429,0.274415908122317808714996,1.2136674834941749701045,1103.76463973339809854224,1121.01612287391230893263,1106.31713406567496349453,1112.16882167102517087187,318.833093282780737354187,40.7378997982513766373813,68.2916522828250833754282,-33.3880512709136212379235,162.999103827631415697397
2.58250000000000001776357,-1.81580877975538435009639,-0.222176851125977181666826,-0.149566137156077666459097,0.00947178649103820428922784,-0.0214480899545171736775284,0.000189917534483923297746952,-0.000423731455868955702009221,0.00115804992659195482747336,-0.0415764098433007711630438,0.999134361337733145624895,0.0444655287285699862831478,-0.00590450352609371217904588,9.83785578767255408649817,0.00588170852005219860214602,0.00833645968789998095815896,-0.0111854850641858148685426,-1.17840448943672337911437,0.274431788715603419692712,1.21362519006825508860459,1104.21742520352609062684,1120.91182952512826886959,1106.48135450015638525656,1112.31270468053571676137,65.9910693825182050886724,-111.451165482278710783248,38.610204020552288284307,149.667120645247905486031,162.99700795918090534542
2.58499999999999996447286,-1.90472110133271188558979,-0.141346464135254534788544,-0.268756191868286364865526,0.00503690356939683319542622,-0.0214266838979434957879189,-0.000592567191896009506230092,-0.000373826222881036172515645,0.00115987607336413248333706,-0.041574753868705086046198,0.999134446495666406207192,0.0444183882366184223933203,-0.00489860738076465518364699,9.84061665840386368131476,0.00608557237132580954031003,0.0084455892639035256425073,-0.0111265710059218637245637,-1.17838938264028669777872,0.274448368129024511397063,1.21358194989035816924172,1104.09459508031068253331,1120.45886704650092724478,1106.5101850857777208148,1112.91715727425139448314,-169.850262803996855609512,-269.602663510573904659395,-43.7185687996143528266657,360.52846842945513117229,162.994942567915273912149
2.58749999999999991118216,-1.92405511603095757955373,-0.0890531370708770170230295,-0.325443488981145834237907,0.00094460813479413905952714,-0.0213359673761734820740532,-0.00228614295485091677251344,-0.000328623901518553820054469,0.00115282345369965540451962,-0.0415720079142834625374192,0.999134591733375265754091,0.0446676484190931255557899,-0.00402241021161899720004484,9.8435050298933912671373,0.00629264617915521740076912,0.00856131382990108630304249,-0.0110279709455691089098339,-1.17837386724052795017315,0.274465846001624769190386,1.21353959050253257245799,1103.36817388950612439658,1119.56381620757542805222,1106.26276165615831814648,1114.11534702268295404792,-333.318260319227022137056,-380.230927328792802200041,-143.162669956839948781635,495.868544791721092224179,162.992498634889557251881
2.58999999999999985789145,-1.88091139483912805907551,-0.0783188601693524527602719,-0.276749457233814832868291,-0.00239533723718536812122282,-0.0213588836849789680261136,-0.00423659212621299834794497,-0.00029318960160236033673023,0.00113451385590277700927964,-0.0415698153989568913724284,0.999134726779507320593154,0.0452532061658237894086199,-0.00338805918258120591923799,9.84641776745561969619303,0.00650409340669332210194131,0.00868200852957293038592024,-0.0108914259479756872495138,-1.17835782852221848671093,0.274484529237021046554901,1.2134994104565735018042,1102.42800377871458294976,1118.55771240985700387682,1105.79437173599353627651,1115.39649999820994707989,-399.101877292487529302889,-451.961515458803148703737,-232.317150353021816044929,534.380466727007274130301,162.990490138659168906088
2.59250000000000024868996,-1.77174722643401549859732,-0.092042182475733605451218,-0.116042837111923369253219,-0.00663793697576274370486527,-0.0215062701703633250838177,-0.00635634384024216965436427,-0.000271076677770659506521572,0.00110552010463743611255738,-0.0415688404251100193653734,0.999134819873644719478989,0.046152826065605973004935,-0.00307691616510957777208546,9.84925739943081168803474,0.00672093915352418511122146,0.00880568489382994347425271,-0.0107207635467768576387204,-1.17834165032935400674319,0.274504529279633258109783,1.21346244597386365704494,1101.37266450304355203116,1117.30400863028125968412,1105.10117590439313062234,1116.78724935631817061221,-405.512463618897413653031,-541.223762661875184676319,-298.79810079662803445899,544.845460322139388154028,162.9885100550379206652
2.59500000000000019539925,-1.59505011144911645892819,-0.117322135356147772000668,0.12892035182723218800227,-0.0117395455012393856025765,-0.0217586531936151857113959,-0.00815560058960804017125223,-0.000262702073255468443197663,0.00106562077116804563257924,-0.0415685941190389318666831,0.999134889613722543266761,0.0473551538194320886798749,-0.00310386878405293636928874,9.85193591021257475404127,0.00694394480957939621429409,0.00893009497529586096509213,-0.01052161086448048614439,-1.17832511427355424160623,0.27452564425946685000568,1.21342970966979213365278,1100.40044146061995888886,1115.85159359654744548607,1104.30038123201029520715,1118.12072729982082819333,-333.429070617974332435551,-626.887363326445438360679,-323.262260164444853671739,487.830679075169825864577,162.986552990102580906751
2.59750000000000014210855,-1.32852225054243300306211,-0.145655688691093521125453,0.438750237216956828767422,-0.0171352125681242771493284,-0.0222104669081314744227829,-0.0087715598730695801266144,-0.000266718515826369726318817,0.00101877445862128424708404,-0.0415670938142527757186429,0.999135012737619510048148,0.0487637107909866807098354,-0.00344808310104477433455372,9.85437927435932259356832,0.00717366158599929814448926,0.009052902274013858302526,-0.0103007977306632924480168,-1.17830799634427396682668,0.274547640519319013918675,1.21340133496186219907997,1099.70551914995371589612,1114.16957181364909956756,1103.48486460357094074425,1119.22640275169396772981,-214.341574824588889214283,-783.727569347700750768126,-335.381427467253047325357,405.56501794199857613421,162.984623071798409910116
2.60000000000000008881784,-0.924117520461255281816193,-0.170723115891770915730774,0.808419859020375719538265,-0.0218664648699223237993117,-0.0229161915682932343374389,-0.00669677693947669325919003,-0.000279660858072925799094888,0.000970637411548688463017176,-0.0415639767181828490016926,0.999135198651668221536681,0.0502460327848372190207016,-0.00404346311368691813115106,9.85652997367739303058443,0.00741028421136696955479062,0.00917183788911771213925306,-0.0100658250987066613668652,-1.17829012742416106007681,0.274570715155177447197588,1.21337646143246846719421,1099.32873358649703732226,1111.93295574980902529205,1102.62347409467406578187,1120.14855238953077787301,-58.3689903684456723453877,-840.173740948712065801374,-282.031229219279907738382,263.274097908612191076827,162.98233782615466225252
2.60250000000000003552714,-0.553277098640268860663127,-0.177569925392658450880035,1.05071291933911625804399,-0.0230256813042983114747653,-0.0235960066682541214078128,-0.00226104653932327533810698,-0.000297836591711269878853668,0.000925372229771698889821963,-0.0415597675745481495712674,0.999135422310439946791405,0.0516990007143942054135266,-0.00481367982404237032545424,9.85834848633053617561472,0.00765358803281435649823461,0.00928485712315265179772616,-0.00982436697398490071941879,-1.17827147497600281944585,0.274595367184778893498986,1.21335410863333503783679,1099.41367419811149375164,1109.96870310890562905115,1102.07470845747457133257,1120.5427732412370005477,101.879800436429277965544,-773.454157159920328012959,-175.217832481306771796881,88.8939238107487454954025,162.980458522834169343696
2.60499999999999998223643,-0.196132490250410601584363,-0.166055226960543006464732,1.1693312822291486163806,-0.0218900203079642856340836,-0.0244727319193084359716384,0.00336055900490322013302036,-0.000320694913954589475892087,0.0008833592916462312642778,-0.0415542437035539696799091,0.999135692172120615239805,0.0530977074630553380618636,-0.00573758583977373656792587,9.85981385248143560318113,0.00790292313923298024580522,0.00939034395592270275388014,-0.00958386036411530521650359,-1.17825192359167019162669,0.274621225072267272082627,1.21333428742350846185616,1099.83813258867917284078,1108.06568496400950607494,1101.74738493226755053911,1120.59302200858451215026,229.890436820419722607767,-771.506515385152056296647,-92.4469409681952782875669,-28.3534650595817439011626,162.978604747144800057868
2.60749999999999992894573,0.187714145788298120143267,-0.134482269493252148961915,1.1591783955788201865289,-0.0203293639642500058306585,-0.0254894596060473883902819,0.0088730204608083330236612,-0.000347494190349674936680452,0.000845250257476874104073383,-0.0415456935332844529140672,0.999136079175638180949193,0.0544137296708740725303954,-0.0067879408248319728080844,9.86092379352720627139206,0.00815733755337626036119314,0.00948719807874696258176428,-0.00935118824982691075609065,-1.17823129853035313274745,0.274647494555388727022205,1.21331706657667326432204,1100.56312638221356792201,1106.11117053197995119262,1101.61247375263360481767,1120.401005915939094848,271.204923221654439657868,-621.909013600556704659539,-12.9992529720769240952905,-84.9278010197867700981078,162.976409434019899435953
2.60999999999999987565502,0.472644199863166969421968,-0.102773869528190231470433,1.05027256838800453486726,-0.0198107967961272703194542,-0.0258830677528778634044482,0.011688422022580436179795,-0.000377110430943667469198127,0.00080996007574309298107651,-0.0415329369873255124789857,0.999136634389954481072493,0.0556550339653562320396674,-0.0079267097957586990508716,9.86169312202220638141625,0.00841554607113840190402154,0.00957495530654621854194097,-0.00913241357562687497417819,-1.178209672154394205279,0.274673631445163823894262,1.21330218885198926059843,1101.19415720478741604893,1104.95613989600678905845,1101.68238866740716730419,1120.16838300348558732367,225.770823890100700737094,-323.9127541736033322195,51.323409013863226846297,-77.2506447894959507038948,162.974604685680645843604
2.61250000000000026645353,0.732998036792351759238784,-0.0817077137584231033562432,0.885119689366637096838986,-0.0200629494062783374219716,-0.025628267903635988667066,0.0127809509871187818030869,-0.000410257227385105020280032,0.000773991442067398986541515,-0.0415165187324591927753303,0.999137338021023335699056,0.0568815069902919578925804,-0.00914920031590382015762586,9.86215158972216343613582,0.00867595516054801320360301,0.00965384925467178273139623,-0.00893246173436699694714314,-1.17818697639271374733028,0.274699053392082614966085,1.213289519359062929027,1101.69198050166414759587,1104.49160676111182510795,1101.86909079770293828915,1120.01475269199158901756,161.545303485889235162176,-54.3681422226618167314882,80.454609668771837505119,-32.6078355644745698782572,162.972826879494903096202
2.61500000000000021316282,0.970335329699279824922087,-0.0796946049892497260236368,0.703485185968716231208475,-0.020074098043489019965735,-0.0250973603637048674197541,0.0131922422480654916165932,-0.00044727860826811042301715,0.000738005334739985641157034,-0.0414975319688639585069545,0.999138143887929541797632,0.0580739816796449481728359,-0.0104473147139981584197166,9.8623420064805582541112,0.00893687482197698911112749,0.00972467252890427992506606,-0.00875477524519252016388382,-1.17816299135070301495887,0.27472337700388044234856,1.21327867664134836367396,1102.00188372221691679442,1104.68429918489346164279,1102.08466171575105363445,1120.00534382566320346086,73.4161797347967137739033,234.902218499342325230828,77.952881539342186556496,36.0917274006177137835039,162.971073112148019390588
2.61750000000000015987212,1.14856912349047934895907,-0.104001549533588519280691,0.517866853553657469078075,-0.0179449724602034031695208,-0.0247663098048346089208316,0.0138227454662346663227801,-0.000486917030019383910953434,0.000705288702647977657628209,-0.0414771000209628454280519,0.999139003177340612182888,0.0591634540936922526110919,-0.0117851764760236038531716,9.86231662613575466025395,0.00919658850154941517884843,0.009788598223876792889242,-0.00860113612309000227784672,-1.17813763831254747493915,0.274746669776743057678203,1.21326816555417171805686,1102.05906140033812334877,1105.666117853608511723,1102.25885520539964090858,1120.19521132899467374955,-24.5823570849557420103793,586.024969620224283062271,55.5090351425872583490673,116.098519031040922300235,162.969351163593216824665
2.62000000000000010658141,1.23134323616906926623926,-0.155598814915558547600227,0.288878920898251956295155,-0.0123181700149302235380855,-0.0250614487168335092759364,0.0152796371045615057143729,-0.00052579536189700315854112,0.000675876630814551911975718,-0.0414561285415808236654023,0.999139879063774216660931,0.0601462771361273712544815,-0.013085088317052816220265,9.8621325073648957726391,0.00945337471917706388679914,0.00984700164799878416288514,-0.00847170519224557140580689,-1.17811063719397068894068,0.274769587140549942372303,1.21325619702098252972178,1101.87897193679214069562,1107.61442403299452053034,1102.36220689146398399316,1120.58583642081839570892,-93.714200069327674214037,805.377350673114847268153,21.0207221042314742476265,147.719726976223199699234,162.967326277665819134199
2.62250000000000005329071,1.15538955990718794630823,-0.207122775753620286254275,0.0876340050936552233951105,-0.00654208088124314662836767,-0.0257827196932858132560895,0.0166748506724233927500656,-0.000561865867471173169658827,0.000646760996332143545638205,-0.0414338989995860496051705,0.999140803770133811845255,0.0610824451207294810695103,-0.0142966840483686602469859,9.8618479282068722824306,0.00970568406615200315878944,0.0099013819827698020675788,-0.00836510205962457190076442,-1.17808191152738261919808,0.274792564942713590792067,1.21324190704548784403016,1101.59049039999149499636,1109.69300460697400012577,1102.36395881592079604161,1120.933809963875773974,-124.94351016785269337106,869.086348289484135420935,-3.38544525557161213313861,108.381580390780570155584,162.965677625558754471058
2.625,0.926676607679659203320455,-0.257370755776175186291255,-0.12065026527978628401172,-0.00176701611030224406059808,-0.0265393769341872760858525,0.0174522497998639315730518,-0.000593539505749015499150301,0.000615695980319346620676657,-0.041409422182279456703391,0.99914182063939727118651,0.0620190639206026489427259,-0.0153831616861877552848714,9.86151940948949246035227,0.00995233733508029891345892,0.00995333470912214066106394,-0.00827867160992402234542809,-1.17805180057320946218624,0.274815501664894712430254,1.21322533981579994133426,1101.25425438595289051591,1111.95985577444184855267,1102.34527966518612629443,1121.12774432277228697785,-140.368534250549856778889,970.31678200353121610533,16.8673794035843407357333,11.4314287437994313023637,162.964075180340017823255
2.62749999999999994670929,0.52789152531537286705543,-0.309545867897136284252468,-0.355763607594416941815041,0.00135437535219536824872277,-0.0273091653035368100987945,0.0170924468827368461476546,-0.000618294733231013258871467,0.00058316102058842984173781,-0.0413824825536126053582286,0.99914293983934099330213,0.0629495617159217535352411,-0.0162955512508517127989727,9.86119881093314276654382,0.0101926718865788662471417,0.0100045389706884934460929,-0.00820884922291144174255617,-1.17802093407308450245807,0.274838052184362302554632,1.2132070084447637015046,1100.88864772873876063386,1114.54458851699155275128,1102.44829571293871595117,1120.9909671075947699137,-119.604116656321636469329,876.434062336439183127368,86.8063366318456530734693,-127.60039216655330562844,162.962213261860597413033
2.62999999999999989341859,0.152437739023738527688323,-0.342496844307528858220024,-0.514606843850319517486014,0.0015504794132782226314532,-0.028037762630247379386228,0.0156042112808486652802964,-0.000635348199329285054717809,0.000550501031206844623940022,-0.0413532942422393315351492,0.999144152039463051551138,0.0638515018857983146505219,-0.0170239010632221056396052,9.86093039782169711315873,0.010426585919133042612561,0.0100567503862656788815588,-0.00815148704365239312741309,-1.17798978336559123647476,0.27485978441050723519723,1.21318739439661404944104,1100.65623380267129505228,1116.3420260861239512451,1102.77931134834534532274,1120.48974236193953402108,-75.4732084097229432018139,595.736823289702442707494,217.913275766027339841457,-276.191112516613884508843,162.960717562325100971066
2.63249999999999984012788,-0.194243083081409334544887,-0.359289166301698603689374,-0.607084909158520646954571,7.32071221916191197838508e-05,-0.0290515802735887042340668,0.0131561903313151540295678,-0.0006454210997444778403348,0.000517935249903594637811699,-0.0413244779773764281394222,0.999145347915221693213539,0.0647244364593313054045964,-0.0175904336220746582153396,9.86074835740457977806273,0.0106544685096114661454481,0.0101117344556450501624756,-0.00810217459724643651597376,-1.17795839504688748533567,0.274880584716547526902275,1.2131663270520631758842,1100.51128168669015394698,1117.52327263344000130019,1103.53786209176882948668,1119.61001154501173004974,-45.8723360041372814066563,344.02538158885766961248,394.277151259730771926115,-392.072140859382557209756,162.959284818802927929937
2.63500000000000023092639,-0.474629376191015639463444,-0.359417358326136193724665,-0.633058846667796437657216,-0.00183319193943864131891852,-0.0301179076235722729959488,0.0104475828201620931506843,-0.000649171990734321332876255,0.000485348580187583932259859,-0.041298437980500653232685,0.99914642766787253869154,0.0655720963205829732167729,-0.0180193056174075168229809,9.86067541479301468143603,0.0108772307076672267861506,0.0101710456755844478454742,-0.00805650110675582009633899,-1.17792689920289017635469,0.274900692830303938762881,1.21314348043391184717166,1100.42687212265059315541,1118.06215299406835583795,1104.75069710464413219597,1118.52938165764248878986,-23.9577051013368169662954,46.8370879078034008102804,601.840745703162042445911,-436.867433298055004797789,162.957907174289061913441
2.63750000000000017763568,-0.642920114914309448472807,-0.338202412774315286370097,-0.582602162040013471511202,-0.0038816099701181969866548,-0.0308563551313063497150146,0.00799753194502067325799555,-0.000647120418111776806759095,0.00045114093666063549443318,-0.0412754395633900955653317,0.999147381464842387899239,0.0664241387081391798652419,-0.018333814656251841423984,9.86072180024182465274407,0.0110962728678272067039945,0.0102358396091193661059382,-0.00801034905017608024613285,-1.1778954841527058405859,0.274920189048877772197699,1.21311929565620957305327,1100.39149316118346177973,1117.75745807297903411381,1106.54706582028484262992,1117.42567437852130751708,-7.60406559002165316485389,-319.084947603967066243058,904.641413075815989941475,-430.540863964879520153772,162.956598492195553262718
2.64000000000000012434498,-0.691140168163105750309683,-0.287146928463925754648756,-0.460110578397273761730446,-0.00658869915775345867808843,-0.0313751910041489834313211,0.00579126382314922201477447,-0.000639637953676299364155766,0.00041411212091649058763404,-0.0412541677847687443536628,0.99914826569657477772779,0.0672982155507969026508874,-0.0185567495786435054938579,9.86088538581793372372886,0.0113134254049209598269599,0.0103067576410742541698218,-0.0079600932366020379915561,-1.17786450382195906350091,0.274939308940985727147677,1.21309512923803008987989,1100.38885179470048569783,1116.46672825604855461279,1109.27390417002311551187,1116.37667733781813694804,7.90128626326821681402635,-599.415563363130786456168,1058.15313015752940373204,-304.975385664972350241442,162.955109764412895856367
2.64250000000000007105427,-0.59500352242716136874634,-0.219523635057737781517417,-0.336962748867249695106096,-0.00909514424568300811069221,-0.0317890224885800029563931,0.00486394320410579727997913,-0.000628492102517623865177987,0.000374884732463620325756265,-0.0412330529725679281738415,0.999149146046513947361234,0.0681726383270269409297981,-0.0187406724516519483658694,9.86115235018071523143135,0.0115308214275847975560652,0.0103838808895909025242776,-0.00790265127071969157579456,-1.17783430035733549523513,0.27495864600281882950128,1.21307183001558427370981,1100.43099959249980202003,1114.76038025616344384616,1111.83783147107237709861,1115.90079745019647816662,35.0319386569488600002842,-758.964854635057918130769,1022.25827626700629480183,-93.1320216324840544075414,162.95393773937419723552
2.64500000000000001776357,-0.36087837649416876217856,-0.116917863346519101952481,-0.232787018599141970476296,-0.0117001097689911834343057,-0.0323897723599400055860542,0.00515049695605171442558401,-0.000617047046614965701699651,0.000332076705997712490550655,-0.0412145358628000224587851,0.999149921826165465787994,0.0690615943333987292174214,-0.0189668299701983289473617,9.86149731209689761612935,0.0117505716393961866239604,0.0104667884911214398302448,-0.00783553483926184221597389,-1.17780490872902032783998,0.274978901381593199282349,1.21304950493981200665417,1100.56401148798522626748,1112.67190398287334573979,1114.38519555135803784651,1115.91101722965572662361,94.631995772990393334112,-927.904077829654625020339,1032.08904408504554339743,94.275098370737580921741,162.952836415033772254901
2.64749999999999996447286,0.0496642873238722776241261,0.0569290739181241012278889,-0.166162666084739729654984,-0.0141816491175559746679147,-0.0332463657891512859299255,0.00658558037669605342290247,-0.00060765603896230455799321,0.000280520961266841114406523,-0.0412025252851754147931373,0.999150432655217857202956,0.0700484090693622440948474,-0.0192917147885075246360742,9.86188413493520599217845,0.011974584642691223079769,0.0105545113020312896628949,-0.00775683737112551133230376,-1.17777584974555238339633,0.275000650674700475306622,1.21302833031407653052725,1100.90415957136474389699,1110.12085986701526962861,1116.99827669149749453936,1116.37217294205015605257,164.926321445049211433798,-884.040974405271072100732,827.439723647848381915537,204.642695173838347955098,162.951594826596334542046
2.64999999999999991118216,0.455450283562981006468817,0.245581776008158364499323,-0.167079753143755865840703,-0.0147871293036550225524772,-0.033737493863675992178397,0.00787269150010269473660696,-0.000600637732124990626064731,0.000218565688869324964600793,-0.0411982136046586192024144,0.999150629530562550684181,0.0711415620752893218536883,-0.0197326478092073390180339,9.86226881127205423638316,0.0122045909543195569418872,0.0106455607786035792716728,-0.00766494607789338592424011,-1.17774640886195292033278,0.275023796318857982612371,1.21300799356153921060297,1101.38864309521045470319,1108.25169911084708473936,1118.52239416959719164879,1116.93423070552489662077,241.453376191935291217305,-635.829078784913576782856,428.081156349944706107635,201.346471069568650591464,162.95062516740418345762
2.65249999999999985789145,0.850500627052214297485477,0.469183180519139431119413,-0.207499912787168006023109,-0.0130320531639346696983761,-0.0332456043918887764188064,0.00794667019154721501750238,-0.000594961081991633722321211,0.000152069790252557115019585,-0.0412009708538324109783346,0.999150537140173433670043,0.0721972804666555778574377,-0.0202835394197790203074661,9.86260211123192220838973,0.0124420771656501248647597,0.0107381380724695888601028,-0.00755830877697847344082183,-1.17771651682632660929073,0.275048009053934283674181,1.21298762330709997137035,1102.11142645232439463143,1106.94171447309076938836,1119.13868247324717231095,1117.37890529739797784714,325.984547743042469392094,-403.719456356675493680086,86.1558897434803014903082,115.16184651713179221133,162.949720765848439896217
2.65500000000000024868996,1.17192957971330291577772,0.705935301544301396781123,-0.251578672826147931029794,-0.00939399445099665768299513,-0.0315012050712133381824565,0.00666684057693665843569164,-0.000590439223661635005473147,8.92610022754265899436535e-05,-0.0412088663208429878404004,0.99915023255653268030585,0.0730237299002569895112202,-0.020953268836295863009056,9.86283076418955850783732,0.012688135487208254334468,0.0108303324903862435713009,-0.00743549146898903317443041,-1.17768648846899215421047,0.275073071236656252480657,1.21296606483817859256646,1103.01856583392577704217,1106.23310182906357113097,1118.95317361831462221744,1117.51003993811059444852,394.573413154576599026768,-130.419412535857475177181,-246.427113602368734746051,-59.9495820926181721688408,162.948868680338250669593
2.65750000000000019539925,1.33698582436242752180533,0.939376099527296060109904,-0.266440808566446474259237,-0.00436268914815824554453982,-0.0286620014149733745578708,0.00462505183769663496401447,-0.000588779697667754725945444,3.50955166327253920946667e-05,-0.0412201655822607565538007,0.999149783702752980474315,0.0734943300176961744618609,-0.021781175402269387780807,9.86289864724859555167313,0.0129432832439028751986276,0.0109202879816153938796752,-0.00729543435494878558800202,-1.17765632108892237539521,0.275098904613078454328701,1.21294270279821514435525,1104.08429351809741092438,1106.28961741041143795883,1117.90654690523524550372,1117.07915738693486673583,479.507416238458290536073,180.348470493667463188103,-598.958603364930240786634,-337.531779841590775959048,162.948077317604770541948
2.66000000000000014210855,1.30007722055151164752829,1.20347375588390703704533,-0.229173031260043208456878,0.00208191856679914178568369,-0.0250773555916673947241424,0.00282760885269307468692368,-0.000589880356670215806255686,-7.7077126485105576324643e-06,-0.0412335794970290631100696,0.999149242136874171649197,0.0735258953135143888957259,-0.0227647504345966575356464,9.86274934378625545150499,0.0132073975830900962324943,0.0110062512743724395802847,-0.0071377709782266783589133,-1.17762579907163011938565,0.275125567378440238908155,1.21291775648762012451698,1105.41610291511801733577,1107.13484418153188926226,1115.95838060149003467814,1115.82238103890267666429,474.909596089274714358908,405.665890512008900259389,-773.246025628548636632331,-573.797987024557642143918,162.9471945960168000056
2.66250000000000008881784,1.06366625661857550078082,1.41033051084638194616616,-0.153110050376841416719387,0.00721023572664509972834912,-0.0222978833415696346686996,0.00230626251700556715931723,-0.000592280841105945351186823,-3.94280688861352969021637e-05,-0.0412475733284764015107449,0.999148671500005969292602,0.0730956563609525544755741,-0.023868188349676289911061,9.86232861293409079905814,0.0134796534945925416959511,0.0110866559517361525089019,-0.00696314691300382523908574,-1.17759460878680854989398,0.275152973138552581211513,1.21289206508879865431538,1106.45884149854373390554,1108.31794686297143925913,1114.04031677709258474351,1114.210167451812139916,378.849756704911555971194,520.249546114120903439471,-763.891110087722950083844,-723.603051811976001772564,162.94651219228535410366
2.66500000000000003552714,0.639569105922278113851576,1.60447535384221184884268,-0.0395179892187080758492179,0.0112184056536510437518395,-0.0194687916535745547674807,0.00237233438944223955571755,-0.000595313298108053959301067,-6.42287256426028318068849e-05,-0.0412606471594287801951673,0.999148134409689636648011,0.0722620618143535869970506,-0.0250643510018807094685833,9.86158693923261431280025,0.013758479898644435449051,0.0111602539385904277885464,-0.00677343475049838918133904,-1.1775621816559720400619,0.275180959672075786670575,1.21286712870491197868716,1107.3103516986425347568,1109.73609191210243807291,1112.13892505105150121381,1112.20436577984287396248,311.354503874197064305918,616.73202265489135243115,-778.801354840214344221749,-902.879678130894831156183,162.945881755488073849847
2.66749999999999998223643,-0.0111338848065737766601657,1.81211928814198386383794,0.131599650025362280292285,0.0135385486935852422663018,-0.015311272059437780121427,0.00220436126520549488527756,-0.000599713124139616428863453,-8.50645671929124941399586e-05,-0.0412715237933394679670229,0.999147683834646915812527,0.0710664232187122602013574,-0.026351435275506738392659,9.86048315340512715465593,0.0140416649082805190806855,0.0112262111054214786670657,-0.00657164641809396005839305,-1.17752810059267232212221,0.275209167480961525154015,1.21284413738994190090636,1108.01561401791468597366,1111.40160697624583008292,1110.1463100028915960138,1109.6957690611577618256,199.41251901005188074123,568.524558983666224776243,-661.923445288280618115095,-876.370315199911146919476,162.945181309538810410231
2.66999999999999992894573,-0.594238522115033807047269,1.94608185340173389654694,0.297258574001654618523816,0.0130353787947203470648505,-0.0107936189724165982478654,0.00151729207585239484097628,-0.000607050815015248794968838,-0.000100052557451460125007361,-0.0412805633205699656906873,0.999147304265729951922026,0.0694622421204992013255008,-0.0277451149842426157687836,9.8589874625680984365772,0.0143264752169511358492748,0.0112841878257354619879971,-0.00636171094512585737212884,-1.17749216262812295141771,0.275237124778423047910536,1.21282353257461084083957,1108.30741429369277284422,1112.57871470702070837433,1108.82930782461016860907,1107.82251420384341145109,54.3842431413406970364122,403.101194406062347752595,-449.921034882354945239058,-635.600790127104914972733,162.94464127307267631295
2.67249999999999987565502,-1.11669521233952129257716,2.01297509924829043370664,0.467787061960245442726603,0.0100421067368221643423265,-0.00528238381033557889004948,0.000994695460836813238544862,-0.000617754310073346862494659,-0.000106502934659801016398228,-0.041288792633676178744917,0.999146953462947129409599,0.0673941855527252914326297,-0.0292372154843121637157743,9.85708257070786153519748,0.0146097793028224544331639,0.0113342818585254762747683,-0.00614837861029870948875731,-1.17745413320844494187156,0.275264550409811348252731,1.21280545895093649910734,1108.28753523362138366792,1113.4171129482760989049,1107.89670482847986932029,1106.5177651105223048944,-58.3855710794029292287632,278.286048640829335454328,-312.591183676228695276222,-388.871240903127841193054,162.944142729805463432058
2.67500000000000026645353,-1.51574954402297379374431,2.00893854259508897186493,0.611560873885073630340514,0.00534849141777775718975541,0.000501021459856730859601381,0.00159582236926711601258944,-0.000630648958861858874129502,-0.00010409836733196275830593,-0.0412953953823481795248895,0.999146666845311060001222,0.0648611400495639339736087,-0.0307852769579988819192984,9.85476451289652288778598,0.0148882641431250690999821,0.0113768974117103103399495,-0.00593703000882664280041245,-1.1774139710905071609659,0.275291351308774245865152,1.21278997033237878611089,1108.01548643829573848052,1113.97014495022494884324,1107.26635190622891968815,1105.87815799932764093683,-170.002884705479459626076,169.088679644607907448517,-182.757227426678980464203,-72.2194454312963358688648,162.943675598327132547638
2.67750000000000021316282,-1.69651443094773113351437,1.91393004232330254943406,0.669957310641211223334324,-0.000594421712562620487181608,0.00600514830718076354776347,0.00419499521700026842263576,-0.000643094422392508861113791,-9.39217990952830782342212e-05,-0.0412980107738327370525688,0.999146545429425492201858,0.0618974543834874130210366,-0.032316674738941460198749,9.852043688991253489462,0.0151586621757626265061258,0.0114126746248444533443633,-0.00573333475195111214040011,-1.17737215242991499764003,0.275317477860254844479471,1.21277714497574828911297,1107.43752081009392895794,1114.26255634649919556978,1106.98291869134641274286,1106.15666788336579884344,-330.242048297721112248837,100.719005683006216145259,-42.6434655002603903994896,333.622785684799794125865,162.943242559303882899258
2.68000000000000015987212,-1.60802116058421051825178,1.70500401571205162376543,0.57871328069820315853633,-0.00844409561483976979501254,0.0116512490244790843652023,0.00910883080694867112991897,-0.00065367250177336396008837,-7.79190613857126993749974e-05,-0.0412947629941283894661197,0.999146669220517869014486,0.0585644025469687773410854,-0.0337822230623384747727478,9.84894511385878246301218,0.015417899462013891220824,0.0114424842834429090626669,-0.0055428548465068965336866,-1.17732931327665246712399,0.275342635387084866405161,1.21276689021831174386534,1106.3642761968071681622,1114.47373997863996919477,1107.05313457872762228362,1107.54627192775160438032,-462.548852356904546923033,75.8406962934730302094977,97.613846393053137262541,666.041407723074030400312,162.942757233125092852788
2.68250000000000010658141,-1.27381190400332333645395,1.46765414472464494899384,0.3485228942635118509763,-0.0149303365910344234407381,0.0153244266875696508872773,0.0133453958659919200147037,-0.000663994537936666564745258,-6.01679111937180279207939e-05,-0.0412862265374343770374388,0.999147013478925094531746,0.0549761203512205559595927,-0.0351908523061744415993957,9.8455076354744530675589,0.0156631586728317243051301,0.0114673816499513483990746,-0.00537072330474908186254135,-1.17728538795095460933737,0.275366684561331509506488,1.21275893825985736640405,1105.12477654830945539288,1114.64175982796655262064,1107.47098792331166805525,1109.48687492198109794117,-571.875851910920914633607,80.3325121965389143952052,239.934191248499359971902,900.54469588446511352231,162.942377537053033620396
2.68500000000000005329071,-0.708681073684232276654882,1.18525767174128082714901,-0.0171216632722157383050821,-0.0197132636602549357607295,0.0180947821491177635033765,0.0156857726757083336399656,-0.000674548842614461135677728,-4.26792667951899875244601e-05,-0.0412744855201211680029161,0.999147491164595891177669,0.0512127939082688277139255,-0.0365318178679761226823608,9.84178341073958762308393,0.0158920364545723225013774,0.0114883845145064538567636,-0.00522129884696023206791526,-1.1772401343856346844774,0.275389912539369507982201,1.21275285428683465838162,1103.50489693725262441149,1114.87540253962265524024,1108.25280553497009350394,1112.04899540717383388255,-796.331366465864107340167,118.316315013819590262756,409.009908705238160564477,1214.49587349959847415448,162.942018772411046256821
2.6875,0.133538729079624496343115,0.81252560135583651312885,-0.530492530374525594893953,-0.0209864982109116936237481,0.0205431151756407803787852,0.0150267625678456150789541,-0.000683812935071890040140963,-2.29551685908494984751128e-05,-0.0412624444716901891960781,0.999147982798916478586193,0.0472709020963459902731074,-0.0377596312950681384235097,9.8378363653901619301223,0.0161026784867898675734921,0.0115063112141176124986197,-0.0050978463548749476316746,-1.17719393104902270152934,0.275412830481747306077267,1.21274788901583185918298,1101.14311971598021955288,1115.23334140303563799534,1109.51603746683781537286,1115.55935428947896070895,-923.464223790526034463255,136.202014175708598031633,490.303711871012183109997,1313.6870493925296159432,162.941606942271391744725
2.68999999999999994670929,0.877296334354566220703475,0.481720663271516469361444,-0.94601882968255524009038,-0.0180039130871708120962271,0.0219404825202768744007997,0.0118512992784151876407561,-0.0006902761540617066184089,6.64991263970903630968565e-07,-0.041252591877838112877086,0.999148386452809456059754,0.0431687463213649980087183,-0.0388298487065866712586448,9.83373895849753232312196,0.0162938322284354834834641,0.0115216811133496289248912,-0.00500249064151143604806116,-1.17714737238599420621199,0.275435936124927893686731,1.21274339567775335524402,1098.88757581830009257828,1115.55641261050118373532,1110.70432409432510212355,1118.61743065413634212746,-936.359989052400123910047,122.299033652555280582419,460.56295511558420230358,1194.87943990709754871204,162.941275651103495647476
2.69249999999999989341859,1.56458468027781583131741,0.134823571001559505688761,-1.2717322911840800436778,-0.0125979778810107814757124,0.0227196621554204905568675,0.007287708788145533592151,-0.000693972169937635634771878,2.53863195908935143662623e-05,-0.0412456668024046985143727,0.999148671634230822746758,0.03901718048151563145165,-0.0397264508815579481249003,9.82956906365064142505616,0.0164648657044051925646411,0.0115346697287856837094155,-0.004936227967567197866261,-1.17710069668929495634302,0.275459460096912800430857,1.21273890944228401878036,1096.46131977071831897774,1115.84483657129840139532,1111.81885224241568721482,1121.53375148901432112325,-972.854525731529747645254,103.967503974993121573789,400.709075766062028378656,1105.06354082124380511232,162.940953002138030569768
2.69499999999999984012788,2.15709666684203504871675,-0.222733904036040902818527,-1.48618156010379043330261,-0.00627263087970492475009543,0.0228816646682266228163272,0.00246322840079908969568301,-0.000695420545737919677808936,4.69412795716522834865714e-05,-0.0412429026099839779462286,0.999148787254668047097539,0.0349583166120351063188565,-0.0404431298612849474127806,9.82540766905280804621725,0.0166157140446043585790825,0.0115452113174766245184966,-0.00489885638215231157543972,-1.17705393812610270565244,0.275483720461958681013925,1.212733583429687955757,1094.02330318964254729508,1116.07625013037613825873,1112.70786947315536963288,1124.14274835824244291871,-941.3481713594866278072,80.0698856490217281134392,271.169182786188571299135,935.200090421204208723793,162.940635266579960216404
2.69750000000000023092639,2.61068146539499634783965,-0.587614250625519529691587,-1.54814566050447055545192,0.000718887389377281479409254,0.0221826106484469681712213,-0.00235283003193357881030479,-0.000693994900418557609210468,6.27834681043641613462994e-05,-0.0412459823418876644907094,0.999148664206630399142739,0.0310997696168693847640352,-0.0409539297356312989584204,9.82133645072097039019354,0.0167468516666126922276536,0.0115530715403901057536373,-0.00488899729451292095611104,-1.17700735850437787632927,0.275509137580762120123268,1.21272659624624656871106,1091.754578913920568084,1116.24518599954353703652,1113.17469815634672158922,1126.20975194112065764784,-910.438901285699444088095,70.4011225708152608149248,90.7174308767873895931189,761.773373093722966586938,162.940321359151653268782
2.70000000000000017763568,2.992874805849977892791,-1.02136449267314999289624,-1.44885596420985551802119,0.00945722619977408529567953,0.0203182575959729022629929,-0.0080430950173577715756057,-0.000688612682670410774024572,7.17011271386169731769863e-05,-0.041254772099591364986626,0.99914830864843562352462,0.0275212150044016785888079,-0.0412269103157503341572365,9.81743491573570814523464,0.0168592594940909640266469,0.0115579168147225512519594,-0.0049042900729404708889958,-1.17696104970484327623126,0.275535740894043479354281,1.21271785153192968031988,1089.47110868321374255174,1116.42825574323023829493,1113.16145662753933720523,1127.9516152237113146839,-732.141415320090459317726,74.3345586517095853196224,-95.5239482186718618095256,515.229329452642673459195,162.93994718899185158989
2.70250000000000012434498,3.1878103646808373383692,-1.36533046269043567555457,-1.23971573917801269892891,0.0171988964844524382102886,0.0177852824741884935066949,-0.0123651993465081402184813,-0.000676651572709552426992952,7.57838537454086000593606e-05,-0.0412674313387527275098776,0.999147797958795269579468,0.0242334187213906170066391,-0.0412046770939594325655619,9.813778081568298006232,0.0169543484822303261450038,0.0115594730963030443288142,-0.00494160162491745404839127,-1.17691473265618151700096,0.275563205158249113768676,1.21270756818206226768098,1088.09387183732019366289,1116.61685879280207700504,1112.69707841525337244093,1128.78589858838381587702,-413.705864872153767919372,93.6198626590359594956681,-256.446435719231885741465,218.187424105785908068356,162.93963666670515522128
2.70500000000000007105427,3.27564828888029735409759,-1.6687928129656364184541,-0.939651403959584796687921,0.0251225192176971270918706,0.0140501238842301763576348,-0.0154037856203449539244099,-0.000654862086094667289991322,8.00250296146867544236705e-05,-0.0412814471441555752573294,0.999147236540148808714434,0.0211854404181407822427285,-0.0408221982922835277540763,9.81043419964282747969264,0.0170338584852780597356237,0.0115577156730576162402269,-0.00499726839588040486900278,-1.1768683269586093231851,0.275590902199677523221055,1.21269567942409173255669,1087.4025793588530177658,1116.89635505652540814481,1111.87922444894320506137,1129.04255234424022091844,-131.938226591685719313318,148.905955481862747546984,-400.865909589273883284477,1.57495276966986863520503,162.939327197176055506134
2.70750000000000001776357,3.28711349076087300247195,-1.95794566997341101810548,-0.53710799408653620012899,0.0339752761013379298016268,0.00832875861901815825460993,-0.0170740752334948217572297,-0.000621348815317828524415478,8.60093447960799889831507e-05,-0.0412954592351189447851922,0.999146679660220082830335,0.018388734540804852618523,-0.0400407740952117910393504,9.80746241716293454260267,0.0170997139806579184773128,0.0115530291703657798929594,-0.00506750735886925436635142,-1.17682184127705768972305,0.275618150428865504864007,1.21268222857876994957849,1087.43418070436177913507,1117.36138857021137482661,1110.69274886730704565707,1128.79377335223216505256,150.219926691037045429766,189.514786864860468540428,-437.624629877527922872105,-166.102048911447042200962,162.938957510585794352664
2.70999999999999996447286,3.23772194111950861739047,-2.11933421012996969778897,-0.212367353143528364567416,0.0407657669825303506372371,0.00291682045731103461658207,-0.016976293254217296457842,-0.000575882854932741787903905,9.06728257659923436370675e-05,-0.0413089270324049767646457,0.999146148229012931452075,0.0159404513072866731160371,-0.0388536040524162101794658,9.80491154398052522367379,0.0171540012104385575231191,0.0115461911317759780698511,-0.00514867460062874444243208,-1.17677512419030616541704,0.275644685133885680716759,1.21266772891172180948161,1088.15367899230818693468,1117.8439289908496903081,1109.69110129955561205861,1128.212042099683003471,409.025144466576932700264,204.744257468887383311085,-371.051522153137455006799,-288.542052813187865467626,162.93865139626549876084
2.71249999999999991118216,3.13716055868774201798033,-2.18598029686321604359023,0.0583904097262398641410286,0.0473277882551706163827276,-0.00278120773972617436192722,-0.0159428951707401012072296,-0.000518886670695944832512603,9.05881615073359685360449e-05,-0.0413210693159062059098829,0.99914567346416172100021,0.0139376297645397752289487,-0.0372698403272489001136769,9.80281971010455777104653,0.0171990368883654758114243,0.0115382552038515578951561,-0.00523730956715500860915169,-1.17672833170441037964338,0.275670788687876200384608,1.21265267770893503396223,1089.47930642669462031336,1118.38510985755578985845,1108.83749125654139788821,1127.35106308816625642066,604.161869687153853192285,219.857219189593848795994,-299.848132939275274111424,-375.396939037735876354418,162.938347878249317091104
2.71499999999999985789145,2.98836749752240526945002,-2.1717902436025382506557,0.266349633066948532356122,0.0539099846732025503315278,-0.00858437151852758408010491,-0.0146878669436631501682422,-0.000450892827609257864154846,8.35335557737850408193542e-05,-0.0413303815754255676750972,0.999145316926460358430973,0.0124453506604786899580883,-0.0353056161533861767587439,9.80121408336930244331597,0.0172373958753368333729483,0.0115304525292534206654116,-0.00533018552195412866068214,-1.17668198334364371149263,0.27569671985934374180971,1.21263755714720611322832,1091.17448834074389196758,1118.94321508679763610417,1108.19186063485926752037,1126.33505740449436416384,729.491443312232036078058,223.318857508851067450451,-195.896070221611324768674,-428.998012535356053831492,162.938046810082454385338
2.71750000000000024868996,2.76040739139315016714704,-2.06594399099347114656666,0.392594544660349764608753,0.0607469646934632803714216,-0.0142085023911424652293123,-0.0134269917056712480979419,-0.000374429956106101641775952,6.73582064027890671867316e-05,-0.0413352936368345247331035,0.999145142067948688335832,0.0115200662189590928574656,-0.0330202356369759877918746,9.80011071493114727104512,0.0172718408277784396531729,0.0115241819962041188579738,-0.00542432555012794647558705,-1.17663630379882055976282,0.2757222577754219194901,1.21262269545446366159069,1093.12676364325602662575,1119.50170414510012051323,1107.8580109054332751839,1125.20607302548933148501,872.347605381478615527158,247.958024701012249124688,-66.1687575500719447063602,-510.183785295941675030917,162.937748904598691979118
2.72000000000000019539925,2.3613005571216620914754,-1.85159726114011946584981,0.454481444308828863576366,0.069085424215999752250994,-0.0202736797897563568449097,-0.0119103363774257509088983,-0.00029234336303925786536978,4.14158231499980292351915e-05,-0.0413373460218217428363552,0.999145082591167188468262,0.0111799467695645644849112,-0.0304843047375189524217376,9.79951493369998694049627,0.0173051768084269697034472,0.0115210515216647886582724,-0.00551695008264474918285858,-1.17659115746185083395403,0.275747251777395729899212,1.21260768450048006528164,1095.53622636765157949412,1120.18300521030278105172,1107.8610168471088854858,1123.78413847801448355312,868.412425015067469757923,257.903423406201966372464,70.9796385505357250167435,-527.33076623641170499468,162.93739515349034263636
2.72250000000000014210855,1.90478190215009757224607,-1.62024748253505634920657,0.439794966563601674724993,0.0757025103661625869966301,-0.0245793148858785559518481,-0.0106418232933520439525976,-0.000205052777015440109570354,7.89394535509035069522753e-06,-0.0413407624170064880164688,0.999144961324941127678301,0.0113766766964351305480019,-0.0277270893507995316862313,9.79942194050245518610609,0.017340179410663160430861,0.0115227614260499482135014,-0.00560545753869532564772626,-1.17654663517521784754649,0.275771885093489932394561,1.2125918897083938219339,1097.46882576833127131977,1120.79122126213110277604,1108.21290909818594627723,1122.56941919430732923502,738.191911252276668164995,261.542179900067026210309,210.379533337259033487499,-488.294860123152318465145,162.937103395621875279176
2.72500000000000008881784,1.31579860155616201744522,-1.36201423919458797229254,0.369828028365839944768823,0.0812747549302984817476414,-0.027982035547649945078641,-0.00953437606390462877303804,-0.00011359919116288484598927,-3.0718586803309461574947e-05,-0.0413495696320033689907802,0.99914460962622486661644,0.0120478723692205337558736,-0.0247940529264496258010642,9.799817370800612437165,0.017379529517538429977952,0.0115309619452262906297291,-0.00568748047475904541098179,-1.176503074092778211579,0.275796219092938554862116,1.2125753554893154984029,1099.22718592391288439103,1121.4907161098030883295,1108.91291451379515820008,1121.34266417739877397253,724.31211590994007565314,338.334355808281486588385,373.060270399954561071354,-538.860398915960672638903,162.936814534736555515337
2.72750000000000003552714,0.485874971856294635141893,-1.05302332608745041753195,0.241005074578934996853974,0.0858778027365244278623635,-0.0308328770692296930122644,-0.00862573260847427497610695,-2.12857539469974617611821e-05,-7.44545543878141546445884e-05,-0.0413656160124844379799569,0.999143949046871981956031,0.0131743590043603732431254,-0.0217763560507304443358834,9.80067808158833742027127,0.0174256951114172310701722,0.0115471347929476022414752,-0.00576101982844523172189177,-1.17646038074190917299688,0.275820048106007020827235,1.21255872985975399203085,1101.09038634788089439098,1122.48289304117247411341,1110.07821045018567929219,1119.87511719972758328367,640.698974983356492884923,391.422542294648508232058,460.67049653712348344925,-534.897707822949541878188,162.93647075734526197266
2.72999999999999998223643,-0.26188762443406848889893,-0.814924757462660465101578,0.111204348237711483915469,0.0872872630120263420794302,-0.0322652024327066064279812,-0.00814132008818662690485812,6.80921535022457294784176e-05,-0.000124897021091304572621913,-0.0413874696391256097216527,0.999143037423907864891248,0.0147607003088903072918203,-0.0187764321506053433186167,9.80197328269681378287714,0.0174808258738651418895405,0.0115724533879445427159149,-0.00582447749173910407638477,-1.17641801333820161801214,0.27584308504056564981255,1.21254248373271256156158,1102.43068079882959864335,1123.44782882127628909075,1111.21626699648072644777,1118.66817563828408310656,492.174239931056547447952,407.332914125399440763431,455.835974202646582398302,-477.415252892625346703426,162.936186164762915495885
2.73249999999999992894573,-0.989559833370062036372872,-0.607853589882376699193856,-0.0235675628092082770081994,0.0856430912450200226837538,-0.0333042626070103181534776,-0.00778124918737509163602084,0.00015120271154428358353905,-0.000182928157257524447165675,-0.0414123745898808334753305,0.999141988703767136570377,0.0167914777973029206992184,-0.0158901742585717958844427,9.80366581900778299996091,0.0175466344802589005458238,0.0116077253615339028025577,-0.00587655045746777234677571,-1.17637565489512452288068,0.275865223495927458507992,1.21252695689691014635514,1103.55125754753612454806,1124.51955761179942783201,1112.35739032119886360306,1117.48804093526450742502,411.1069168902846513447,431.474197489260518523224,428.652277683759223236848,-466.193996054344950152881,162.935902798571476068901
2.73499999999999987565502,-1.63489897366380954046861,-0.425227611467317689886158,-0.146927861239335738607892,0.0813559548952958594414397,-0.034423214380037613080443,-0.00782608839880846035574891,0.00022557577014383070135653,-0.000247721544286982789211116,-0.0414379554576302377988384,0.999140902735272895540675,0.0192124714247541815426157,-0.0131988934597848800445163,9.80571342740148743644113,0.0176243270521311730381075,0.011653307097101880257517,-0.00591609506020953149207919,-1.17633320808216801367507,0.275886589619202371448381,1.21251244965488913507556,1104.48621538328097813064,1125.60519980872254564019,1113.359528384899476805,1116.33720565801240809378,327.201182077693090377579,409.448906832376110287441,336.215318305380662877724,-449.503219120030394151399,162.935619802015793311512
2.73750000000000026645353,-2.11156665011659239183928,-0.26476394192845431607708,-0.234799119122817090410393,0.0743180823009361446462862,-0.0357397165861866664138269,-0.00870198300017420434127047,0.000291742814841403552347798,-0.000316109409819330887912725,-0.0414627852944165486981376,0.999139840316758953697729,0.0219178371650033086692755,-0.0107267863464379567539631,9.80806993940631599571134,0.0177145880251409204575452,0.0117089620372983274632084,-0.00594200536385766902441885,-1.17629048408838787764807,0.275907707823926595658293,1.21249845368133213341366,1105.1872634579247005604,1126.56680214596144651296,1114.03846691272588032007,1115.24052483966420368233,252.9825977931352269934,353.897477930580635074875,194.294050255016912842621,-459.912307421260152295872,162.935336341484230615606
2.74000000000000021316282,-2.43711378819864110667481,-0.0929339608750711365647845,-0.274305730762775368258843,0.0643549401431548762086976,-0.0369893019144489076932558,-0.0101649008636581147935196,0.000353818963169127672155345,-0.000383102050427767178847338,-0.0414866011318659883011506,0.999138813157997907055119,0.0247611372097927308344456,-0.00842791253270421328314121,9.81068645343814083048528,0.0178175737863770500268856,0.0117737782435197030350693,-0.00595312905046137177261789,-1.17624729126840543713683,0.275929654771502719246001,1.21248380488201612514843,1105.75112837224673967285,1127.37468719837556818675,1114.33099863617462688126,1114.03764412090595214977,162.469228872354335635464,213.457330899750559183303,7.97326882711803275327611,-410.670510127519833076803,162.934994304529794817427
2.74250000000000015987212,-2.50346729827583613925412,0.0283627863216148051739296,-0.241319323841940519548288,0.0563230983008667154821048,-0.0371538944531379922153747,-0.0111951607767921262892585,0.000415516909262573543026864,-0.000443086495454362411759719,-0.04150876109894224147423,0.999137849527750643296997,0.0275834711163293298807897,-0.00626236296574698980688112,9.81351270438923606320714,0.0179329493505199187575183,0.0118461941940898041192298,-0.00594823015174002732441405,-1.17620347552609594288242,0.275953332741426082819203,1.21246758244272356819238,1105.99960960228645490133,1127.63408880046017657151,1114.07833325686146963562,1113.18717228902664828638,60.0938416259408825226274,-0.163185207793507119911069,-207.777670010413999079901,-291.638946489144302631757,162.934706596177903747957
2.74500000000000010658141,-2.39948643630360791689782,0.115270264905853569992189,-0.135437277552013374259943,0.0497428307807597502865349,-0.0366019086070087720785615,-0.0120245944279793650494303,0.00047811135213904207763233,-0.000492373062015332698879155,-0.0415283154811399643491221,0.999136991045646460918306,0.0302663740203632271319467,-0.00423320977674912501953486,9.81649828870039442563211,0.0180598845860414046471387,0.0119241945579257133808193,-0.00592619439969052728273136,-1.17615870216721285501649,0.27597897403114335368457,1.21244957643107453826303,1106.05159758037643769057,1127.3738712723366006685,1113.29211028612257905479,1112.57944938846026161627,-4.43202231585937944657871,-193.803712266803387365144,-398.472264909568650637084,-189.500927874727892685769,162.934414641897291176065
2.74750000000000005329071,-2.20480696479231008666488,0.166411052962289723877731,0.029247538663762520649847,0.0446473956324461643263568,-0.0360130607229424692938835,-0.0126132374987503615565432,0.000541274298326166946812577,-0.000530698925127202295742856,-0.0415451399754367609040706,0.999136244333822309826587,0.0327618104782553681841861,-0.0023681518844386878486219,9.81959385787252969635119,0.0181970665538273949912718,0.0120055956710014601063197,-0.00588635148977780398721338,-1.17611257157032422782095,0.276006393796380145033709,1.21243024034443225289692,1105.97744949070715847483,1126.66507023912618024042,1112.08597193231366873079,1112.23966764965302900237,-50.2927253287918389901279,-386.188970587462847561255,-570.558524539922814255988,-56.2673613554137048708981,162.934117971865362051176
2.75,-1.9637784919282010864805,0.170167436323468229675271,0.256552731049853433020758,0.0412845862566114732428169,-0.0355664985703585123655301,-0.0127413607866741860480397,0.000603303525673989276059683,-0.000560965284507136674463368,-0.0415600426512146153834593,0.999135576353098242563533,0.0350879014267399258475422,-0.000714831360670298288084723,9.82275255578198347450325,0.0183428044636805599731932,0.0120883141800399197818283,-0.00582871364333147415348613,-1.17606488906267636629366,0.276035181189868028539536,1.21241038035605774858539,1105.80013395373248386022,1125.44292641939932764217,1110.43931766342302580597,1112.29811258168319909601,-91.1511502474260311146281,-640.506696796833239204716,-799.844424261090125582996,133.440121281458345947613,162.933814172681991294667
2.75249999999999994670929,-1.68052985655307307588657,0.116912984979974307608863,0.581830370576206901134242,0.0381022181590668987394288,-0.0352080132162980730115009,-0.0123406537734033882464102,0.000661497208023285919800682,-0.000589047190116786991559428,-0.0415742158279410189969383,0.99913493689427235189271,0.0373257576977376465121594,0.000666443829561470801881029,9.82593145650730370732617,0.018495195500641065794456,0.0121705693784425004327909,-0.00575413710312972295768397,-1.1760155266101639526255,0.276064798655658361070664,1.21239090013902206521834,1105.5216937394700380537,1123.4625367551420822565,1108.086749811008303368,1112.90686825606030652125,-108.315403126837310310293,-795.437653585730572558532,-899.100618124267498387781,318.340992255850721903698,162.933439736055390767433
2.75499999999999989341859,-1.4690483341433233643869,0.0220704954218643306651515,0.873928635279104248922977,0.0350448363832068163215006,-0.0348384982853426408699882,-0.0111585317782272319675485,0.000712991497236722558336619,-0.000619705789824718990960184,-0.0415878188034260465322234,0.999134319435318718483074,0.0395391722100577602816429,0.00171554715413544528468393,9.82909340515478469058053,0.0186523849677848289896342,0.0122509791322034742450109,-0.00566422682478461610861009,-1.17596465366038605004917,0.276094683061718748628977,1.21237246438755974509149,1105.25855693809830881946,1121.46573815147075947607,1105.94381457280178437941,1113.88981754296241888369,-110.652996447609069718965,-847.276961699044363740541,-856.4959496233497020512,484.294089166506978472171,162.933118498656654082879
2.75749999999999984012788,-1.28536956990719186677552,-0.126798646482886273600954,1.15074702800100370225778,0.0316443634843995222349911,-0.0340441858900545069044341,-0.00860430492295919009670957,0.000756017067206670671103419,-0.000654701842338137329768699,-0.0415994052697728350365125,0.999133785028712528841766,0.0417367550694543731903963,0.00239532769065779055361887,9.8322084472646604780266,0.0188127753858572527301263,0.0123285959626607648231822,-0.00556121622587726297665123,-1.17591285787157184827834,0.276124302780146990698995,1.21235557775250502032804,1104.96842875723200450011,1119.22615194664695081883,1103.80427006289164637565,1115.3283387018927896861,-137.396660548520060274313,-1012.34752113548427132628,-891.432047730799126838974,705.174252301956244082248,162.932786826032725002733
2.76000000000000023092639,-1.09294901451739345787928,-0.357800660656600932885141,1.41784379265402149528086,0.0281144780582723019524138,-0.0333136503470292111295237,-0.0042197807621704736674717,0.00079021901020267322404006,-0.000695351269941535789567699,-0.04160604877348049457364,0.99913345554256460800957,0.0439217792159805331397848,0.00269964864742099075467507,9.83525446259326407982826,0.0189751167627116648639607,0.0124028879123861974359544,-0.00544790480876979413271677,-1.1758607477163307564183,0.276152983847196997757578,1.21234086522102280092383,1104.5715736353556621907,1116.40400054579299649049,1101.48665433414748804353,1117.41568880447243827803,-157.128694578558082639574,-1036.30514312446666735923,-774.453726117092173808487,786.349255950964675321302,162.932376101133314705294
2.76250000000000017763568,-0.954470377358682120494393,-0.571443607204441983427046,1.55641195410187349601472,0.0259385091914466348050894,-0.0336430114348404626922751,0.000103300203356806251484175,0.000816291937334956635777261,-0.000741597984818331682800585,-0.0416060103535497230464735,0.999133403248039675403902,0.0460738684261358805160924,0.00264543331842251316921022,9.83821792553679053128235,0.0191384954936156606586373,0.0124737287871425975294137,-0.00532737041191076732271625,-1.17580861615537202169435,0.276180169700669053689523,1.21232834945328060705094,1104.18278528433916108042,1114.04462623102426732657,1099.93200143230592402688,1119.26008498164787852147,-169.424940364755428845456,-921.771341550876627479738,-512.216825881125259911641,704.325770307483708165819,162.93202299868849536324
2.76500000000000012434498,-0.835474143969112015284395,-0.763784369350923419972332,1.58378493291990762870114,0.0244134478856872054464144,-0.0354206217033277565020555,0.00482825079716608322050186,0.000836275951986510928531926,-0.000791265788523099660237148,-0.0416014794221639117033362,0.99913353651455505399781,0.0481335146634716964930689,0.00227794206249083003301692,9.84109420979516791305741,0.0193022564441709884586196,0.0125413024115078458597949,-0.00520266986798420972420987,-1.17575644281977109706361,0.276206130989215481452703,1.21231704383971061744774,1103.72444893353190309426,1111.79514383803871169221,1098.92557020474191631365,1120.93731765600978178554,-192.687186170591786549267,-865.061120416630956242443,-297.373478300739407131914,605.458781714846054455847,162.931658664500019995103
2.76750000000000007105427,-0.724881796329296057557201,-0.901654371362457407457214,1.51185195495859603376232,0.0230502381118675540860874,-0.0383688294724682868452881,0.00967811973075298828672608,0.000852307053775854276886359,-0.000843047675005728592775855,-0.0415960165026456746284467,0.999133705756255485752604,0.0500616227137185149098642,0.00164813309765145243890316,9.84388701252651543427419,0.0194659886727411787776809,0.0126058030140482821290782,-0.00507671962451690557405204,-1.17570450231818601771749,0.276231728906511153631698,1.21230606250349826069623,1103.21934935348622275342,1109.7193206289412046317,1098.44513404080225882353,1122.28737889022204399225,-205.035924601274757606006,-769.86446820625860709697,-60.2064957222877765730118,431.759537099069461874024,162.931285256199743116667
2.77000000000000001776357,-0.606827529044998259522004,-0.937950508637760860253252,1.32756817412897110131098,0.0212269135178910148264997,-0.0421117411248705039716889,0.0140450963433215864073489,0.000865843154513329252633391,-0.000899212060290916284643892,-0.0415915880074576166380851,0.999133825584907153682934,0.0518932038399769618441937,0.000799082331166489634455274,9.84660728213861879964952,0.0196295013066534462797819,0.0126671812081199149785382,-0.00495230427248473468321288,-1.17565305197498481959428,0.276257593580839455604803,1.21229538740957987208446,1102.69926931052555119095,1107.94582149700750051124,1098.6245377261304838612,1123.09611534150508305174,-214.146094489710804964488,-689.438494402535184235603,223.973663936799539442291,220.444721164681283198661,162.930901688762759249585
2.77249999999999996447286,-0.432245040148737769136744,-0.843011041350449130682421,1.00657095358482573388414,0.0182603715732023580420318,-0.0462536822868724328827739,0.0178929017626117507766548,0.000878890584105242048465478,-0.000962914653551493783523174,-0.0415879409244850270499505,0.999133901564589699262342,0.0536832203645927069635135,-0.000212323125247021460282326,9.84927241172625755893932,0.0197927614234083178168522,0.0127250591814915652022489,-0.00483198515183138124773343,-1.17560169900892574901263,0.276283861383500584096851,1.21228545153862232730546,1102.14861888103769160807,1106.27212815692860203853,1099.56500236048623264651,1123.38960249604542696034,-172.663554855174908198023,-526.874420049000377730408,451.680173097211593358224,5.92312849180428990791825,162.930431794410338852686
2.77499999999999991118216,-0.252292745194952761078611,-0.653241052515093234553945,0.687485700882895400809502,0.0161195289444454568916765,-0.0488309650559895225274687,0.0197819921630673044299353,0.0008928370551435449529315,-0.00103484050500309791159603,-0.0415834506213944299357621,0.999133998492283348369369,0.0554410816462081457167699,-0.00134108632656113752057436,9.85190539289423838908988,0.0199558018545333282212084,0.0127787886979466025483276,-0.0047178977853373233602996,-1.17554999204360122178059,0.276310366740861068635127,1.21227674161231013805207,1101.83595153624969498196,1105.31144939676255489758,1100.8829385916164937953,1123.12573098396410387068,-75.3100665798699679953643,-289.278679676050842317636,612.929496350638487456308,-182.545008676337857878025,162.930034707484452383142
2.77749999999999985789145,-0.0497129547736581273165157,-0.371669005025115239959632,0.354289774940625856736176,0.0155538158871627429230555,-0.0503407079828245285213484,0.0204553872551483592601151,0.000907401184406294008394367,-0.00111443081927986814387566,-0.0415773938548971849771263,0.999134146239693432534068,0.0571552361810548775755692,-0.00257357822823921222887833,9.85453292683441794963528,0.0201185992328299055598162,0.0128275745350974659103604,-0.00461166558929218973333919,-1.17549767824748130351509,0.276337015618687620310823,1.21226983172959124068768,1101.77206854813834979723,1104.82573475854837852239,1102.62964984223935971386,1122.47687745266375713982,41.5670067818581756569074,-109.363033701985742141005,829.010964299767238117056,-334.67464699026567132023,162.929636032518658339541
2.78000000000000024868996,0.188169123064468701844731,0.03421387667709392677029,-0.0238229108443687442875358,0.0163748267302773579945363,-0.0509772394235763343095513,0.0201171214409239865195111,0.00092264378992711667398785,-0.00119864047566913814110712,-0.041570566668456959691369,0.999134314350886953981501,0.058766834174048737660101,-0.00388901966891511130519632,9.85718346254137500750403,0.020281069837274220968304,0.0128705022204677350244895,-0.00451420838780614962909565,-1.17544482001529870807133,0.276364085807667081429173,1.21226482296769466628916,1102.04378657015899989347,1104.7646342282525893097,1105.02799341311560965551,1121.45235774901266267989,154.545958691950119145986,56.9003956296872033249201,896.582693303510950499913,-391.43510460555347663103,162.929162023019330263196
2.78250000000000019539925,0.361316614895897780801448,0.398338844902787314605774,-0.301762228680021948878931,0.0175919095016421715704791,-0.0505417083956005708245129,0.0190316312690945628471884,0.000940041471776911557664547,-0.0012816847756594656419088,-0.0415638445135860512547055,0.999134471043558680669605,0.0601637654882813954770882,-0.00523894682612226214590834,9.85988495949231591453099,0.0204431207971555867208835,0.0129065128771654585165818,-0.00442552801305940053666621,-1.17539178783123565708024,0.276392102690627861072414,1.21226075599490723533336,1102.54479834159815254679,1105.1102367366968337592,1107.11256330875721687335,1120.51970192963585759571,238.193490780445785048869,214.702916909441256620994,810.371765983399200194981,-369.377238693558581417165,162.928776189737931190393
2.78500000000000014210855,0.493062979950064539380605,0.751477493937331653128808,-0.530358518186636374025511,0.0188731962338702131953827,-0.0490065722664105377082144,0.0172827279505917037749629,0.000961754235112707942662036,-0.00136010506865163224680948,-0.0415571231689284906196669,0.999134622164693397827762,0.0612810067848190698214239,-0.00655795213115847527851621,9.86266172010899389022143,0.0206046188130141437466758,0.0129344619059203053135221,-0.00434473500863770487750992,-1.17533844708447965388132,0.276421485956316825838286,1.21225646079534654653287,1103.23475402406120338128,1105.83814881279977271333,1109.07985224303251925448,1119.60547155554490927898,285.083037091823541686608,356.076660946344759395288,739.960800665919464336184,-354.620718590020544525032,162.928407562934353336459
2.78750000000000008881784,0.584433258219803297706108,1.06768586591721148515433,-0.719227189412475431673499,0.0201096603282133086498806,-0.0464467679037867120506178,0.0151948762241285780655309,0.000989935276929762705475091,-0.00143382252377206127411102,-0.0415486674108124232063233,0.999134838002726510808316,0.0621220231501966313469865,-0.0077769846209964632599565,9.86553186101220447312699,0.0207653724312840751164977,0.0129532604643964426027747,-0.00427005875838819617951181,-1.17528432396508408785962,0.276452313764033008602894,1.21225115795621163350404,1103.970213527057239844,1106.89062004142851947108,1110.81236731208673518267,1118.74659833668579267396,277.917466643708849005634,505.559511208832077500119,613.312805257796185287589,-324.830336485645261745958,162.928059627262854291985
2.79000000000000003552714,0.621397020799419719239154,1.31003980496722993720482,-0.871747724497770604124014,0.0215329954863666545028522,-0.042660703665783269999956,0.0132178746060348465546364,0.00102623605079286408722772,-0.0015023175403031606943427,-0.0415364540101756524181909,0.99913520289518498174175,0.0626838975362655481671226,-0.0088366610628204458888213,9.86850580208664140968722,0.0209251360561640252500037,0.0129621393848870381654281,-0.00419879866094312152735579,-1.17522931669240859875458,0.276484235524997679078751,1.21224429927748955648781,1104.62434135727971806773,1108.36594636884387909959,1112.14641626932143481099,1117.98131987311671764473,245.313944386594585012062,749.533528190356832965335,482.466707400964253338316,-309.375903630150105527719,162.927744388411497311608
2.79249999999999998223643,0.594770724125621486066962,1.49130482232118843910484,-1.03338561673206319468932,0.0237989512652230054967628,-0.0372967951651503315524394,0.011347781150326537169537,0.00107093839346553316993482,-0.00156391449615337642907453,-0.0415207904066866376191491,0.999135707919173055024942,0.0629439117976506590235175,-0.00970533476495606672873606,9.87158456599008893306291,0.021083586862802625866431,0.0129609562746515541431513,-0.00412749288528379762452936,-1.17517379085774353875138,0.276516565929334767748315,1.21223586133739980041923,1105.19678324899018662109,1110.63828768238022348669,1113.22470084909150500607,1117.19971881853507511551,169.93943258762917025706,907.800593148177767943707,311.89818212629444360573,-260.142595513531091455661,162.927412542588911037456
2.79499999999999992894573,0.510360048556087408933024,1.54784325200490591178948,-1.16035018048605631513226,0.0258090558219196547495855,-0.0328875481882313844272936,0.00961436397108450697956972,0.00112118162361488104585006,-0.00161903863589613799048306,-0.0415045466006381327805919,0.999136237942857996507939,0.0629253403179133863343253,-0.0104122248644295256614356,9.8747578347181459434978,0.0212403210271911099815689,0.0129503358526617696339089,-0.00405227650078271439681998,-1.17511817541135266118602,0.276548405331524305150737,1.21222636297253782977634,1105.47403852021784587123,1112.90494933458467130549,1113.70590717995287377562,1116.68060689554909004073,78.86437123943491656064,957.262116227113779132196,122.048661132114702354556,-178.066748094674210278754,162.927179816142484014563
2.79749999999999987565502,0.366919246108981411680361,1.5183756873586287117206,-1.27754009112266775360922,0.027174096554891485205685,-0.0289903154607689256261338,0.00704928441184206160119441,0.00117209480500428918359201,-0.00167005005606795471281845,-0.0414921719231863134202953,0.999136610770307465045903,0.0626934563236104802630422,-0.0110262574893447290458326,9.87800300777098172488877,0.0213948744947531112325922,0.0129316155489497489755601,-0.00396913405843103434672559,-1.17506239200656681376245,0.27657881317963539657967,1.21221637167978291138581,1105.59110510518735281948,1115.42459826351569063263,1113.83494415475206551491,1116.30938507806172310666,37.8422674066743525145284,1120.76044263928156397014,1.61091864492835190603159,-131.610021822362085686109,162.926997243809580595553
2.80000000000000026645353,0.143394771034111995211546,1.40819809737714285446941,-1.39153611134735077925484,0.0278349699208511741632677,-0.0249423531950599131068458,0.00335468581388719553140754,0.00122099302127460411851456,-0.00171662555819338761425863,-0.0414866118739569827988944,0.999136707775868382341855,0.0622611462199628568070509,-0.0115782132538744669814079,9.88128552257589198859478,0.0215468198899067125973161,0.0129065433524102740614481,-0.00387396110513231429692271,-1.17500630509807546530965,0.276607246732949396683665,1.21220580995814475322447,1105.66324985725123042357,1118.50875154778145770251,1113.71396177317751607916,1116.02255678643723513233,34.3590074706730348452766,1103.99077639987626753282,-72.2056504677263006897192,-83.6105222743242819660736,162.926839776904841983196
2.80250000000000021316282,-0.0717125729741295708796756,1.27256458913933356846826,-1.44965149039251239848625,0.0278345849413115555004428,-0.0221281003505740571368765,1.26857737300562073559174e-05,0.00126769665434483896036821,-0.00175689886278046860680624,-0.0414884363004257433749089,0.99913650851947855002777,0.0616111786320495957713916,-0.0120540546944757145930716,9.88455891723822155370272,0.0216957704015173988287835,0.0128769930591639322065012,-0.00376274706658783712059924,-1.17495016244631700352841,0.276633738698879194650715,1.21219434224298105995388,1105.76290014254072957556,1120.94455214551544486312,1113.47391590241340963985,1115.89133246669007348828,66.3486891406151357841736,907.626873025875511302729,-109.961636720484037255119,-36.6176750601888301162035,162.926761392493034463769
2.80500000000000015987212,-0.301677818350709170402979,1.1087485919223278862944,-1.45056055663992267135143,0.0275358399367745740327074,-0.0198211615895630272055072,-0.00369116130213371224089158,0.00131147915439551151009501,-0.00179091092206208049239513,-0.0414982334523336104936675,0.999135989558602721771763,0.0607668530064651019051425,-0.0124522737786239984236758,9.88776521549387510390261,0.0218412762666285627244367,0.0128448059386410129434353,-0.00363180162933452680557034,-1.17489424524519225911945,0.27665862863261908577428,1.21218230369807078439237,1105.99499330295429899707,1123.04688591291073862521,1113.16415358957510761684,1115.83946841113629488973,121.095252330726765421787,764.905242876800798512704,-130.309825676161437968403,-10.3760114037415807075604,162.926738374783070639751
2.80750000000000010658141,-0.532562783450679089192192,0.928523591111637736084106,-1.3907845367817348591899,0.0270062924368781043238386,-0.0177241916499777905913415,-0.0077634945026758593947247,0.00135155776864326576496012,-0.0018182854652082638350491,-0.0415165586105731981847455,0.999135130102772661686572,0.0597457821649288872700723,-0.012776183691341529147234,9.89083677540086547708142,0.021982798042724464165909,0.0128115268178823262651411,-0.00347781642691410422182918,-1.17483851595767063713538,0.276682544043398315203319,1.21216995081279943491381,1106.36837640419435047079,1124.7690783598993675696,1112.82236677403261637664,1115.83945240967136669497,180.487879836668270172595,584.152388224914602687932,-143.023553340666097710709,13.3210073481680524309922,162.926760750224673302
2.81000000000000005329071,-0.746130446907654842902957,0.730187286603638074922173,-1.24872118311315638550241,0.0258445436483193229093569,-0.0156516219140113641006273,-0.0119130384493623744934787,0.00138931514469872946851425,-0.00183755878040066161424604,-0.0415434389464397896274406,0.99913393101676983842907,0.0585448300405959354275609,-0.0129904721210893150940002,9.89369834350604193673462,0.0221196571104330906576418,0.0127781868964489311174537,-0.00329802099020394187678384,-1.17478264904553486580596,0.276706618725033715033845,1.21215660519038159748106,1106.89743270213762116327,1125.96764785403524911089,1112.4490358228717923339,1115.9060734478771337308,254.384465968365446997268,402.898801498403770438017,-170.422477370360866189003,49.6902308666005083637174,162.926836438361760883708
2.8125,-0.950547884491225625325228,0.471489182827987851620577,-0.988042171714124894954523,0.023063585640060040721222,-0.0132851267414280140022331,-0.0159782196965251865883317,0.00142562249106775035256689,-0.00184973776185829168368369,-0.0415770152461990491477017,0.999132467957993042340092,0.0572126018116049794848266,-0.0130710421009653347812485,9.89626909717851965808677,0.0222509942114872544260962,0.0127452124509936492308126,-0.00309045312211619557785092,-1.17472627065005430502254,0.276731655112356367265392,1.21214167485765944576315,1107.64029873403615056304,1126.78357236739134350501,1111.97025438718083023559,1116.08790356400436394324,276.36601909580940628075,199.792111893934531963168,-177.566385877120552549968,87.2700364266184323014386,162.926987073755896062721
2.81499999999999994670929,-1.05365494124110159468444,0.243458370534455598166446,-0.711297426245118380450094,0.019483503962044998458758,-0.0118560691122959350335409,-0.0181870526066019826127995,0.00145956483053022814146138,-0.00185858671085753967763821,-0.0416126493181568218870936,0.999130928135150475632997,0.055856070472662944226272,-0.0130297428567358250517394,9.89846566695559637594215,0.0223757886749864944031518,0.012712476255116447396154,-0.00285420446890707456971681,-1.17466874060994119766121,0.276757516499530842324361,1.21212548946536635696702,1108.2792627976166386361,1126.96660841350490045443,1111.56120389348620847159,1116.3424236300102165842,244.640751091088276325536,-19.4410035813693475859054,-158.63755812443170611914,123.218094573306089500875,162.92716136824120098936
2.81749999999999989341859,-1.07085596672512162186308,0.0175552046461824630407822,-0.398504820181280527968681,0.0150859694838776699915561,-0.0112244414377985143871364,-0.019244908977017825824074,0.00149101023490269936691566,-0.00186566239555612965392295,-0.0416454388371283665271072,0.999129511303109119069177,0.0545399284204808043607926,-0.0128669896008662271169598,9.90020621434210035261003,0.0224928942843994617017955,0.0126795414386842077852924,-0.00258954178114634975260699,-1.17460965754408697137023,0.276784034274402124253811,1.21210887721527216243089,1108.86350248949156593881,1126.68636734948449884541,1111.17706659655868861591,1116.7039940368708812457,233.440394954418906081628,-212.253513265254667885529,-153.913660231731768135433,174.778243014092453222474,162.927385311561977232486
2.81999999999999984012788,-1.00582024740560505016163,-0.224015264149537096649567,-0.0103705122911676300700989,0.0101520533875130609946513,-0.0112757420482572697645329,-0.0196191744770708928480296,0.00152011314865500997937919,-0.00187121175070260317360726,-0.0416728113766465790845928,0.999128322362455301153261,0.0533041487383574402736386,-0.0125802848429923050388446,9.9014138243005671569108,0.0226011049765917765297374,0.0126459297687428751100214,-0.00229814782612085396693025,-1.17454921625450592337359,0.27681125413902829546231,1.21209301281461856447663,1109.44646477238870829751,1125.90534084717864971026,1110.79163559232756597339,1117.21631484508066023409,190.444785956957161943137,-343.076670746017555302387,-124.120613016694534280759,188.27240462886587124558,162.927710712269146142717
2.82250000000000023092639,-0.915007581777090628349924,-0.376861314914776091011817,0.305678302402403845317025,0.00738287707894771678268642,-0.0123415792857779690883113,-0.0194403342639402967884088,0.00154629317276614905961318,-0.00187772874872285037810282,-0.0416948853436166499975002,0.999127351724536261201592,0.0522344367984574203811476,-0.0121813477495245348070085,9.90201954804683026623024,0.0226992963129195417237849,0.0126112854828752535274461,-0.00198333564805455329557726,-1.17448734959460665550068,0.276839233396678430221272,1.21207914235505920252933,1109.81572641927641598159,1124.97098399575429539254,1110.55646353147517402249,1117.64535606001527412445,121.782354774942149333583,-407.154778955937047157931,-75.6722208392096860052334,153.970964012513434227003,162.928028807821561940727
2.82500000000000017763568,-0.845252849849105758472945,-0.452111151456638327150728,0.592977546404322874984416,0.00642350663564898814034132,-0.0144472418069932408840605,-0.0185405541015962044282261,0.00156882013158312488831925,-0.00188887980550842362638397,-0.0417125694245612521626754,0.999126555757578915795136,0.051439529421883928295145,-0.0116856594864414783940809,9.90196596648834237441861,0.0227866537075193907602166,0.012575430801253175208676,-0.00164991973397093645396783,-1.17442405912117253663496,0.276867784381885029265646,1.21206813414135905482283,1110.05537654626346011355,1123.86956695239882719761,1110.41327448813149203488,1117.98616966514327941695,72.9975219755503559326826,-447.235747999148316011997,-45.6854869763911395352807,111.101088739317319209476,162.928395535295038598633
2.82750000000000012434498,-0.833974836964524235405349,-0.451358253519327679015305,0.838540709336357159564557,0.00650631630865044358058569,-0.0167456035987797249853237,-0.0167638732050911717919028,0.00158766509528955298072295,-0.0019079269044880845830614,-0.0417254367292573952186174,0.999125947084135157538753,0.0510180973467533188658862,-0.0110972606795266895418628,9.90121041390511891222559,0.0228629056418591623811576,0.0125383974631092659501874,-0.00130391909830034199643811,-1.17435971049784693143181,0.276896491713647496801798,1.21206036132089689516533,1110.18071402915416001633,1122.73480525575860156096,1110.32803609659322319203,1118.20086150371184885444,19.8168739975248762164028,-438.360778994056317969807,-28.8529034294248738490296,53.1750905856381450576009,162.92880273802293800145
2.83000000000000007105427,-0.918247422419660397352459,-0.362346456515986126145634,1.01131929496266215195988,0.00664449671929191743036114,-0.018631007777616125781206,-0.014010673976833644752138,0.00160328745344511143511301,-0.00193718757299488932022147,-0.0417326255319228345275206,0.99912555827291971155546,0.0510468525055251809430246,-0.0104134686549901545049579,9.89972750225910758103964,0.022928450280419940265908,0.0125005576498457733614078,-0.000952189211326791664670444,-1.17429476291945711352582,0.276925116679227423244214,1.2120560597369860467154,1110.15446091625108238077,1121.67776305742859221937,1110.26900997098437073873,1118.2520451180714644579,-50.2670638415121899811311,-425.974690720804574084468,-34.4874298950351700909778,-1.01556579729733464922958,162.929258908854535548016
2.83250000000000001776357,-1.11924162460336029667474,-0.17841946999581309585281,1.11190691639068250928801,0.00560760145092964804036662,-0.0200744187263959816824865,-0.010146502412520264427287,0.0016144675368612590796169,-0.00197725341228902323081895,-0.0417357011403932109949722,0.999125326501057675621098,0.05156541099853920173679,-0.00966826997637414836672676,9.89751106750564169090012,0.0229843771651468825600872,0.0124627929830211509054649,-0.000601952208110927795489675,-1.1742298845532679330006,0.276953270019048292116537,1.21205516198887908174697,1109.92937870994660443102,1120.60493180215462416527,1110.15559894711805100087,1118.19578367472536228888,-116.191541560467811677881,-355.177740461575297103991,-59.2258913298350222476074,-20.3488101239604262104876,162.929862608231132981018
2.83499999999999996447286,-1.33519797717964650018985,0.0105572476435172157155362,1.09860065525939654129672,0.00325671628855790868187214,-0.0205048815353063122735033,-0.006757314165097463853904,0.00161904887842830849317699,-0.00202596086007294368114273,-0.0417401687837006263315232,0.999125029967492084281844,0.0525539251598896722805776,-0.00891842490696421325013787,9.89457526643582951919598,0.0230324425294046487844302,0.0124265352654737565307741,-0.000260379986645740621464817,-1.17416573017477454676794,0.276980617799153394642531,1.21205684345188213768552,1109.57350320844875568582,1119.90187435512075353472,1109.97288051433520195133,1118.150301067451664494,-176.875088229057070066119,-247.215029776048851317682,-100.113931186117355309761,7.53700820137071492155201,162.930411909732015374175
2.83749999999999991118216,-1.54213529347197630947619,0.196309510131878084404633,0.98660573207435553477751,-0.000713508907947914185893046,-0.0200410399081237637630704,-0.00333725993603466511427946,0.00161576761580683515330537,-0.00207848748785653463996836,-0.0417500295417159994482148,0.999124512630674699309452,0.0539323914494920786388832,-0.00820781830485302343891618,9.89095464178709704583525,0.0230751219293843755353546,0.0123934292893824165443517,6.56792256163007536363257e-05,-1.17410292630664758739556,0.277007023183181877445946,1.2120601468877150175274,1109.04500326880133798113,1119.36885665327440619876,1109.65502929118747488246,1118.23346871573221505969,-271.530498983844495342055,-215.677298262157876251877,-172.652740880725133365559,84.3700423095487934688208,162.931007810308869920846
2.83999999999999985789145,-1.71067357919789353459805,0.368845963707783441876131,0.75835486757523906664602,-0.00668525566108928333275419,-0.0183451014774498044612727,0.000241395163108446280005037,0.00160331064409664986528115,-0.00213038802224537133014892,-0.0417656828014988656949669,0.999123767943979612660144,0.0556205895352715334878368,-0.00758369720687247089729865,9.88670301841652232610613,0.0231154904442257454200149,0.012365104451165218057973,0.000369783757286722310209104,-1.17404190774483252468485,0.277032200208951528974666,1.21206487948972174706341,1108.21585071352956219926,1118.82348786380998717505,1109.1096168099315946165,1118.57215127899939943745,-337.819090726293268289737,-207.100113158716908401402,-221.550843438748017888429,163.604889166697688551722,162.931774508988809202492
2.84250000000000024868996,-1.74530470717693853011099,0.443263800228396398495079,0.517662893098267962166403,-0.0121490247604636603800943,-0.0161320091195458967248122,0.00204776333559718521151738,0.00158175899444092885742785,-0.00218040299344923142049746,-0.0417858953379636743896697,0.999122848583076317297014,0.0575916798662428758293075,-0.0070653331949849865201152,9.88189147050552207929286,0.0231569433464638117781131,0.0123430937699414468300407,0.000645864829056913406814255,-1.17398254346594699271122,0.277056015112374043329879,1.21207163436102360876134,1107.35590781516975766863,1118.33335608748075173935,1108.54727507399366004393,1119.05149316156575878267,-383.675538426106413680827,-236.559704640087545612914,-231.943905466353299971161,215.315104310624548134001,162.932454352542293918304
2.84500000000000019539925,-1.64363534580157599762629,0.429814353248626879189231,0.267192942900056018551425,-0.0175382720814832859801413,-0.0136787063539616261798049,0.00234429929112203380703328,0.00155228030697643760819904,-0.00222876918069554556811607,-0.0418067892952356731650632,0.99912191315943210678796,0.0598387022318093569905884,-0.00665121124949294081907247,9.87660629943413503895044,0.0232029755523784526893838,0.0123285867171150261001333,0.000888473014538547533128221,-1.17392420858468726763135,0.27707862030136465314456,1.21208085054663294855004,1106.29747302139890052786,1117.64068934060946958198,1107.94989728259974981484,1119.64872680055259479559,-459.989095901265272914316,-334.552723481699842977832,-227.569944864358461700249,236.005966213002039921776,162.933173635406234325274
2.84750000000000014210855,-1.42606063388276527170717,0.348348878883894819136202,0.038681072800022621438476,-0.0223701262406848788710789,-0.011569845975483441027909,0.00181436485527179777905993,0.00151578790587470358525168,-0.00227526334447158886525875,-0.0418237235289182496256188,0.99912115456435390825618,0.0623370644134921547685479,-0.00634628981412689932573024,9.87094645969408368557652,0.0232569354945132561462984,0.0123223172862924838094623,0.00109313487915989023327445,-1.17386613834322695026913,0.277100544814783744662634,1.21209239743608243600193,1105.0559623356634801894,1116.6605924700722880516,1107.40942534967189203599,1120.23152299263074382907,-540.462880537745718356746,-479.831927930728170395014,-177.790146921828778658892,198.065447392768561485354,162.933922934124950643309
2.85000000000000008881784,-1.08402175264348721306362,0.210326679205714711651254,-0.13864607976009696299613,-0.0259540357157569678836495,-0.0103412339844110232056629,0.000774643955256149670425547,0.00147413817059092251866848,-0.00231831151662746041269836,-0.0418332695337560594994741,0.999120717566007066068323,0.0650264368345471466259511,-0.00613805570968494612626998,9.86502014416992878409474,0.0233218656112216017606276,0.0123245141392939270424955,0.00125663582731150151074184,-1.17380792294369173944801,0.277122377881699133439497,1.21210574968164719322772,1103.59515861871022934793,1115.24152970095587988908,1107.06094654799062482198,1120.63905403751641642884,-681.414531858414193266071,-726.677194059236171597149,-79.3277168904768217316814,103.138234201426186587014,162.934704665181499194659
2.85250000000000003552714,-0.565746575306496191082317,0.0283864497049031716535694,-0.278330168261138655161346,-0.02852823124864406131862,-0.0103129112551002075776063,-0.0006989728489306482875007,0.00142972278461104889898947,-0.00235408648103518003055767,-0.0418343575291555067052762,0.999120653324438778852823,0.0677941869874124636297097,-0.00600425602384468265482198,9.85894103310524272387738,0.0234004312328951920296749,0.0123348892273807235475669,0.00137731141061033521624801,-1.17375004844237751377989,0.277144265748953733119464,1.21212037299954777935795,1101.64888967637148198264,1113.02720649977618450066,1107.01278676521951638279,1120.74721416363786374859,-727.650863033129098766949,-879.091215571380075743946,58.1747736669980142210079,-39.0518564123348497219013,162.935674724006446467683
2.85499999999999998223643,-0.0756239061422587094396519,-0.0989036247684538100122253,-0.335173079263739015498658,-0.0292073275090631821748755,-0.0113461242638113659481069,-0.00192943726776600814332152,0.00138686223869928927469874,-0.00237671716343573280819101,-0.0418279013287728568259993,0.999120932363661840014402,0.0704796620979020738140264,-0.00588437178339572958263304,9.85282398915271251382819,0.0234948768738682707557519,0.012352614316735560998084,0.0014551858434646766909254,-1.17369324725147650134716,0.277166498056330090626886,1.21213585285320468720727,1099.95690430354466116114,1110.846073623099073302,1107.35182041632560867583,1120.44379475545474633691,-660.948704016450847120723,-902.345394141885776662093,215.586646420438285076671,-201.632073253271954627053,162.936505268297764814633
2.85749999999999992894573,0.437367974628433298089902,-0.166214121996789282453832,-0.342037563148526180256681,-0.0283619793633874892058166,-0.0128351039607456328395241,-0.00286839833561269809056316,0.00135102000453525376844066,-0.00238212406842245975890915,-0.041814646253372278472682,0.999121526344533994468122,0.0729519488055296455586429,-0.00569142197454473863782454,9.84678003561587189551574,0.0236069526151084438381211,0.012376239722861014785904,0.001491924557553072879304,-1.17363790082958852067918,0.277189577197370973227208,1.21215144167764510285679,1098.34414615628929823288,1108.51547952906685168273,1108.09071999732168478658,1119.73905379737152543385,-651.670444072729196705041,-1002.34304170833047464839,393.923564593896344376844,-374.245076266705609668861,162.937352931885584439442
2.85999999999999987565502,1.04140100986097805524366,-0.160030540158608569623055,-0.312651907562839004306454,-0.0257376780239525239368792,-0.0146398742873648061990632,-0.00329635475168028055717451,0.00132648293282507968859907,-0.00237253099692128974207428,-0.0417964797111920055572298,0.999122344804451056887729,0.0752020499053381308307564,-0.00535301498807602693652541,9.8409112636337567892042,0.023737678002886182515585,0.0124038217161985368786059,0.00149070058851659263156331,-1.17358327647516502700853,0.277214199087213841732336,1.2121657420978755315133,1096.69855208318108452659,1105.83435841455752779439,1109.32143823929504833359,1118.57256937412125807896,-528.731823859798851117375,-923.291383536462944903178,474.536373648120161305997,-446.068166186038865816954,162.938382413259859049504
2.86250000000000026645353,1.51303641009890998958554,-0.0856336968460267300429223,-0.269191208301302997707438,-0.0224797624115940231082078,-0.0159040759305853103555695,-0.00333681108507239256380505,0.00131487377838465061170858,-0.00235370755428313416929287,-0.0417757463725875605176086,0.999123273392618194144177,0.0772914096469167616332285,-0.00484240007093090368828214,9.83530743943962981745699,0.023887142497078853869974,0.0124330466016970026671418,0.00145624456843153056266604,-1.17352812320386767908076,0.277240851441710844937916,1.21217760031003241039116,1095.70048703699012548896,1103.89902261138422545628,1110.46340186556244589156,1117.5087129664411804697,-299.388768550013764979667,-674.044124072634076583199,426.077486757747806223051,-396.344668871434407719789,162.939244600810809515679
2.86500000000000021316282,1.93112173431472555762412,0.0394377741264022724232419,-0.211389034235821726692706,-0.0183843962098775917657356,-0.0163400762072011054848453,-0.00367011978114514195864482,0.00131554705670640630782442,-0.00233170632305299213929417,-0.0417539935585822322150484,0.999124234081501416682158,0.079289267103808180880975,-0.00417326353550600409603177,9.83004331454026925030121,0.0240544376106781136737123,0.0124614297744437153153685,0.00139470813410696591223836,-1.17347123101519024146455,0.277269639664386946531494,1.21218630392917003923969,1095.2016082404309145204,1102.46413779419413003779,1111.45182567308393117855,1116.59084602976395217411,-109.618919890592735555401,-473.018661595198011582397,326.161384485346957262664,-311.55338876543038395539,162.940103567980770549184
2.86750000000000015987212,2.29075268559466094231425,0.181761208737478030528223,-0.139658064842389184612159,-0.0136396576465323271509789,-0.0159016706620132980409821,-0.00443043553680036190228764,0.00132829697484709505217459,-0.00231189328751215273510811,-0.0417339516447672032040117,0.999125100667487275885037,0.0812532118824812049640016,-0.00334712649124747907425359,9.82517620144846581808906,0.0242376844733308213775125,0.0124867366868120447526147,0.00131322851566645988803661,-1.17341170762916213732296,0.277300291276146193553132,1.21219110906181537501425,1095.15239243753717346408,1101.53392930340828570479,1112.09420878798914600338,1115.95094602261406180332,84.7556186884521451929686,-241.152850977328540693634,129.619062916347530745043,-167.364293285030669267144,162.940953728050772042479
2.87000000000000010658141,2.56015819805950606280476,0.313466634783045927648004,-0.0494049490026248205865045,-0.00827599311974064853758559,-0.0145728841242105545267238,-0.00545902615167922176941939,0.00135114246172790639782813,-0.00229695328334006540135781,-0.0417189013789070958782013,0.999125732338750349725842,0.0831936224081342989844501,-0.00239910472546922548531256,9.82074498283635399786817,0.024434272956873431120739,0.0125072620451894614412858,0.00121955515868483782733478,-1.17334963058237229382996,0.277331828103397959317533,1.21219172215972248451976,1095.62538633387316622247,1101.25837353930751305597,1112.09992098766565504775,1115.75402456333881673345,309.039019954168225012836,29.8157210192591257680306,-177.060598661277396104197,16.13188967603526080552,162.94178577199147639476
2.87250000000000005329071,2.74589288798973907290701,0.428547849794671420475822,0.0708043243480764306063691,-0.00109431570209839461489676,-0.0122136964146308882317449,-0.00605427052904425073293071,0.00138139678489871331121264,-0.00228703316350332237424925,-0.0417094800913748384174617,0.999126105217738702535257,0.085077230578520721127056,-0.00137813265809005186524061,9.81676954997438500072349,0.0246412357147320591754802,0.0125219045162776841662033,0.00112143668464837506330845,-1.17328567122063587291336,0.277363173164589138508518,1.21218866083962817370434,1096.69758753730798161996,1101.68300790850457815395,1111.2089057946827779233,1116.03160547099423638429,454.349342373380409298989,275.667434359417200084863,-478.175439342122615471453,169.136166016964097025266,162.94275452441323182029
2.875,2.7553935720996576286268,0.479093075821544644998795,0.164400147897969778343352,0.00600899904943108780636107,-0.0100563123876214102064841,-0.00536874393527603851333785,0.00141692618576740405646197,-0.00228354310038012290814957,-0.0417052341192468284392092,0.999126237623006785426583,0.0869016981688311984655115,-0.000319992769760114870170042,9.81325042011019021970242,0.0248554771581851394190998,0.0125303211219969339029756,0.0010258436351467162782336,-1.17322029695735396970235,0.27739365712984764833493,1.21218313524232845779238,1097.89713304574001995206,1102.63671071110456978204,1109.70904379095509284525,1116.59970539342361917079,509.804079142770149246644,494.517795996681854830967,-734.738689386192390884389,260.626950146166677768633,162.943531551100505794238
2.87749999999999994670929,2.57840302495955908668179,0.48932822446152063333713,0.230458651084807342179772,0.0141673767914234551706931,-0.00863623933973857622892201,-0.00383752087589610095530457,0.00145433011631028712845604,-0.00228900077201550471162061,-0.041705172283050345738431,0.999126169960262933145145,0.0886945837413763288337165,0.000715774227368577709018638,9.81017030302137627018055,0.0250739462671812247951397,0.0125328901974478459230289,0.000938583453607114322203575,-1.17315369126876634098267,0.277422817567829771423504,1.21217654758897719347033,1099.24660793302177808073,1104.15559688848793484794,1107.5352123477518944128,1117.33474022172504191985,588.10663615764838141331,778.676792868298662142479,-1064.30203667102887266083,313.007315709371425782592,162.944271671744530749493
2.87999999999999989341859,2.13332019622088964183604,0.476813521066058843000945,0.269282820612002593563261,0.0234690725986415639481297,-0.00800623344968733746673806,-0.00210663740964771827035573,0.00149092414016659363489026,-0.00230642035952301812512522,-0.0417089640319327770168201,0.999125913418459132842031,0.0904998513181920483106069,0.00168334914721789824509912,9.80749637582857580753171,0.0252937470069100715786004,0.0125306279891187338781933,0.000864040559096151050341716,-1.17308579826927505962431,0.277450690285302004056689,1.21216987966797207221248,1100.83766622652819933137,1106.53009467544598010136,1104.38753360760006216879,1118.1647419719704430463,553.48180518709614261752,940.533977899824094492942,-1202.50008930109129323682,262.910400376864515692432,162.945112191095603293434
2.88249999999999984012788,1.58346266525605838815238,0.458799224739469824196902,0.275070610550391447812757,0.0296571009551285132144205,-0.00765901132020523414678514,-0.00123688809998696662949269,0.00152439626666558622480885,-0.00233730610882705146930105,-0.0417144672213069778177186,0.999125558370714372813381,0.0923387303698799677409426,0.00254078827700830039981739,9.80518366019479259421132,0.0255123289756013366114118,0.0125248808381901981928719,0.000805218615832044011353108,-1.17301648686915749308923,0.277477367235870797657071,1.21216361742002742829527,1102.01401695895719967666,1108.85826677798695527599,1101.52271190124656641274,1118.64929222360933636082,420.173620187659992097906,966.387311899532733150409,-1147.32040877162467040762,122.019997865428138084098,162.945770249209402891211
