t,ang acc x,ang acc y,ang acc z,ang vel x,ang vel y,ang vel z,quat x,quat y,quat z,quat w,acc x,acc y,acc z,vel x,vel y,vel z,pos x,pos y,pos z,mot 1,mot 2,mot 3,mot 4,dmot 1,dmot 2,dmot 3,dmot 4,vbat
0.0025000000000000000520417,0.136110840360840951168697,-0.0058441284599071901054157,-1.46352955147608643216017,0.623486303487158388669798,0.0534331758198684156346836,-0.00506678972357937126153038,-0.0567969921081697068365735,-0.0105523682085712274675293,-0.0148848664104252303291842,0.99822024861977287635284,0.0262031248818507256359567,-0.21652128469224038442853,11.4287508081598385700772,-0.0441574114510608767281141,0.145878862852709040298649,0.614232487213042466223101,-0.0515061067002656539082217,1.6913931574398917145885,0.24524936628143115258105,1218.78638286263822010369,1269.92765230887380312197,1266.02074171438221128483,1186.39360257565613210318,-19.1607116048544412478805,227.151582919395877979696,-495.874236731651762966067,445.897864477592520415783,163.820309537176399317104
0.00500000000000000010408341,-0.0226812944970795071775171,-0.224045506960213886005207,-1.45657872749039718485164,0.626283933409656823343425,0.0556372893112134364601573,-0.00980440493598057349888819,-0.0560254267311487696989758,-0.0105923959571197472823156,-0.014933563070059923533206,0.99826145942917132725114,0.0271212455207266306400626,-0.205699871860539923451583,11.4617412234213276178707,-0.044511046494496629699622,0.149338144925642124505316,0.618232012271147657322956,-0.0516385154838570753499383,1.69193771271867965388935,0.246761744893671891576403,1218.73848108362608400057,1270.49553126617229281692,1264.78105612255308187741,1187.50834723685011340422,-71.2427168801696240052479,224.049966697839437301809,-676.703084222708753259212,381.195094307895544716303,163.850903878745015163076
0.00749999999999999972244424,-0.253862547448655107018567,-0.549288605889380443514369,-1.31567639512121470346528,0.630637462343367927175564,0.0549952053309759394950085,-0.0148061932814231682342676,-0.0552569502442058629876342,-0.0106276378190340373142142,-0.0149746703776203540781076,0.998302515991118633031931,0.0279665461171484802660459,-0.194888286661572068814152,11.4947548310992413433951,-0.0448698700679073317343359,0.152808426781667228144812,0.62224129638296288291599,-0.0517708803364974670668808,1.69248565064842426686198,0.248274058757018023513297,1218.43016927823737205472,1271.04790214236300016637,1262.63722629326866808697,1188.29957804719560954254,-179.985597560016685747541,143.850911914796597557142,-899.606807020018095499836,191.246738096833723830059,163.88658571605020597417
0.0100000000000000002081668,-0.520489908193471850772482,-0.843304054854570495081134,-1.10664468466736809482143,0.632961465933086442348099,0.0520535750633813396048843,-0.0178970380084747457405392,-0.0544863741392118128281652,-0.0106617431764882367867253,-0.015005211263666108981174,0.998343633035795763319697,0.0288463932047547250148156,-0.183998255403167026988953,11.5277980668601287561614,-0.0452298439990884565409246,0.156296773276890121895377,0.62627339265397830025961,-0.0519032561467527714382797,1.69303761490493998032036,0.249786377955884625334804,1217.83855309582600057183,1271.2147858257462758047,1260.28302208745299139991,1188.46458092733428202337,-325.298742749100654236827,-37.2056053778123825281909,-1032.10898203265037409437,-27.8644070183872756274468,163.915454104931768597453
0.0125000000000000006938894,-0.851170148628314082728252,-1.13357743896493290414185,-0.833447586543470841924375,0.633070921260557972765071,0.0481124723293184092254293,-0.0198053749363138673067475,-0.0537175562430627223653445,-0.0106935223661588953147916,-0.0150240581782012400796633,0.998384551512106144244285,0.0297651495191172815735214,-0.173156802457452657639791,11.5608598165732416873652,-0.0455934531713855090151455,0.159797918451226844682722,0.630345360422035927427942,-0.0520349983552186590163302,1.69359514637553498772604,0.251298772785081836467214,1216.80367556449186849932,1270.8618741154739382182,1257.47668138310541507963,1188.16025601210367312888,-554.690415275126838423603,-307.715970754452484925423,-1280.91276893242161349917,-219.984228161547463287206,163.943416319861341889919
0.0149999999999999994448885,-1.2544139373161984352123,-1.47520988912039419105326,-0.465130443900648393729114,0.630429571758042817108958,0.0439880750911210774423132,-0.0210467073033119116132195,-0.05295598578243108922603,-0.0107215481140650360780686,-0.0150312074590036159199569,0.998424922474254405990735,0.03072646653521356185923,-0.162532696792037273381126,11.5939057867762045361815,-0.045963903270931825983947,0.163303222817964499569143,0.634474973158427713038066,-0.0521655681845061350299098,1.69416035271169462816943,0.252812097266221613711679,1215.06510101945036694815,1269.67620597197401366429,1253.87845824279088446929,1187.36465978652654484904,-698.599763672746007614478,-565.586138770231514172337,-1309.25231485221024740895,-344.800313849100291463401,163.975917028287028642808
0.0175000000000000016653345,-1.53153749416194351340437,-1.76593683494992892413222,-0.142656592217129923882979,0.625591026953267514976176,0.0416278249962615323753745,-0.0214657753409312479497828,-0.0522072190481816522655834,-0.0107395597256526535018262,-0.0150314461787450313196013,0.998464388818488202126389,0.0316203874533395323798146,-0.152300155483553883994929,11.6268752853288628301698,-0.0463522095986506343923139,0.166802166050230349370054,0.638678398540833192065236,-0.0522958242982880933125145,1.69473507340819207200866,0.254329802785266567699551,1213.31067674612813789281,1268.03394342162278007891,1250.93041980884436270571,1186.43625444285817138734,-718.704430253364876080013,-770.864833368295762738853,-1117.24985805303708730207,-404.327100686441497146006,164.002118960778517475774
0.0200000000000000004163336,-1.68133275838759810305589,-2.0673465801890786863737,0.181553054017852100177066,0.618800013844103546922781,0.0394712971325887479467909,-0.0214313819132129941558151,-0.051475860523073964369889,-0.01074242384552399898201,-0.0150273798506136094937924,0.998502679979695328960076,0.032366919557253487349513,-0.142609851620112720871347,11.6596787940664761151766,-0.0467669831375525854588737,0.170284721472275746290137,0.642969258516605024489365,-0.0524265460498883548168259,1.69532007180744948016127,0.25585580474313568410949,1211.47157886818354199931,1265.82188180513253428217,1248.29220895252569789591,1185.34302428309433707909,-755.265309677406889932172,-1053.58974853729750975617,-1051.02914367457788102911,-492.358833101389109287993,164.027401956286780659866
0.0224999999999999991673327,-1.68410306142139654106415,-2.40584493712010560884096,0.559029781906696499049758,0.610942439768645373376899,0.0350452243885487693675351,-0.0208470576849011865472328,-0.050761703943696175056477,-0.0107280511070751167351789,-0.0150194195355373687900125,0.998539790445735708779296,0.0329581948530286716891879,-0.133495830036433366094784,11.6921979586906683579173,-0.0472118372843811501260447,0.173746821697037701071054,0.647356815808165730885548,-0.0525578252984035126926798,1.69591562821983421471828,0.257392654554612243522627,1209.53435019774110514845,1262.76599467893629480386,1245.6752740904714755743,1183.97446027735122697777,-605.202718084092225581117,-1142.88827761033621754905,-859.389488419537769914314,-489.306173429167643007531,164.056676231497590379149
0.0250000000000000013877788,-1.55562536992224287324404,-2.61392155532167125286946,0.850903683894499995865601,0.606030598457432900794117,0.0288213979909494599773723,-0.0197416711724004816097544,-0.0500606566091977636667743,-0.0106999644963305870493109,-0.0150069365700331545931956,0.998575880206960087015489,0.0335167738952707461308478,-0.124893663058025933265682,11.7242869451493998411706,-0.0476822890945038935228695,0.177189706119918188864659,0.651846219289451078715558,-0.0526897803033732625710428,1.69652089229817182314264,0.258941355740683720743078,1208.44556527776308030298,1260.10744041708085205755,1243.9952615104280084779,1182.89649341594849829562,-258.259803530017904904525,-1038.5529583078548512276,-578.700836677535221497237,-389.696654024874021615688,164.080182161219568115484
0.0275000000000000001387779,-1.34108462792468752233788,-2.66844749143661275070372,1.09576886239455162375123,0.6027936189139029288242,0.0200704117646682070330577,-0.0176895419826760443016145,-0.0493638272455695151230692,-0.0106637479807618097693567,-0.0149894716697236089070211,0.998611334786823734432915,0.034210335782046047414795,-0.116618408237381537828625,11.7557759594419373172514,-0.048170553689358998339376,0.180621477278564784851866,0.65643782737250533365625,-0.0528229237398254031221612,1.69713453484401788351477,0.260502636419243149834557,1208.24305118009101533971,1257.57322988739701941086,1242.78176990708379889838,1182.02597700722685658548,104.287784628741121650819,-966.477269040570263314294,-425.095183974326801035204,-294.149322401335837184888,164.102763813475263532382
0.029999999999999998889777,-1.09847616408179038494097,-2.55361187752299567677028,1.27864976087455040065777,0.600563851289074968065052,0.0103053983906265713560435,-0.0146576075236990593930742,-0.0486614110309247019370282,-0.0106230306053028689117212,-0.0149679803825330318134412,0.998646589158806774477739,0.0351556828643086460850498,-0.10845617121406234129033,11.7864759430395675821046,-0.0486711044337383019753318,0.184052198452778481563286,0.661128314613740664107411,-0.0529575218807072575777362,1.69775584586513561546894,0.262077642171747671184789,1208.96700420090678562701,1255.27505407187800301472,1241.86978559055637560959,1181.42574680394181996235,532.200771539555603339977,-843.35874977105038396985,-310.916308307787346620898,-160.319512499609089672958,164.124578716072761608302
0.032500000000000001110223,-0.867734380440349450935855,-2.22859415976412478244129,1.35850228939268813377339,0.599133176820956458996648,0.00113664168629089095373386,-0.0105121467825218580655067,-0.047946009069266180835367,-0.0105805555162091571852478,-0.0149454989452534915683746,0.998681939689148090444348,0.0364418014951727042838314,-0.100242362543618374060017,11.8161833960702189472158,-0.0491796302785205211027808,0.187489508002038507417097,0.665912268295553055885705,-0.0530937766572976976853226,1.69838434787245917689802,0.263667563978587593531699,1210.90405503778879392485,1253.35643613854176692257,1241.22718836554486188106,1181.224379444728810995,1115.60242683994965773309,-748.56378023705406121735,-229.004257365568065551997,2.46363975929852818680388,164.145470660382670757826
0.0350000000000000033306691,-0.647774109490445004766457,-1.65598767613161257372667,1.31128843578248255319352,0.597823192918017554120524,-0.00687061177117681901038715,-0.00506558215302448881095509,-0.047218454693959382995061,-0.0105414284857867097261463,-0.0149251583768024980586331,0.998717252466909899411007,0.0382091705891639960013251,-0.0919997792748975251608812,11.844685475632489968234,-0.0496878677906658697271958,0.190930898159090228771717,0.670785208286120870901925,-0.0532319020009745999533202,1.69901928551284697732626,0.265272857640985848526327,1214.54501633510653846315,1251.53223517069272929803,1240.72476430372853428707,1181.43806500273831261438,1512.66949843261568275921,-596.250147363571500136459,-132.71313103364269636586,136.732537904526964211982,164.169479750699792930391
0.0374999999999999986122212,-0.532273769740964297625396,-1.10956178556716444916219,1.15165707357405633359804,0.596975149088372569750049,-0.00984155727713632681730171,-0.000884739364712097057889817,-0.0464822716106162714400085,-0.0105092746002276842681722,-0.0149091192207371613792644,0.998752293334479568365225,0.0405569849181425245987498,-0.0838111246964938494397046,11.8717651484511019788215,-0.0501883295659391465148857,0.194370716788821534803944,0.675741833476665942903594,-0.0533723133197714777464782,1.69966022758121915181562,0.266894278751461544452184,1218.46740252995186892804,1250.37518540172391112719,1240.56362271037664868345,1181.90804213425144553185,1675.68820345713993447134,-411.973969141991119613522,2.9859826115625778264473,210.741093967226447603025,164.188609823111676178087
0.0400000000000000008326673,-0.500711873521071160197948,-0.603531672094993143495856,0.887307665927180799769758,0.596673044027749677198358,-0.00891898761716120903886296,0.00247819767713139491732699,-0.0457408651691642992309639,-0.0104885864912650055014165,-0.0148987861811027584579836,0.998786836615772055658624,0.0435959768345402509659436,-0.0757527274288964658222056,11.8972048613764993518771,-0.0506714733655787563648687,0.197803636416893052762944,0.68077575399980627679497,-0.053515106823000292701753,1.70030783456241318951641,0.268532598868491623189669,1222.92345735239223358803,1249.47236532498277483683,1240.73969421678634716955,1182.49177047257444428396,1973.08551679270567547064,-385.189640630869348569831,159.918118176119463669238,227.627569490959814402231,164.206840307432827330558
0.0425000000000000030531133,-0.559635260670554357531614,-0.138384858492459905665584,0.495296565278897649164946,0.59707844714734725766192,-0.00522295366422783919474471,0.00522418739464430674501738,-0.0449981866446878334131476,-0.0104776140343846857483356,-0.01488944013381271816443,0.998820787620600447631602,0.0472851768979680453508507,-0.0679129442524740445374931,11.9207911880793790970756,-0.051132901068048033921265,0.201224059955425554901964,0.685879690180025924917118,-0.0536609383210851012546705,1.70096311116435572330374,0.270188273889008512274046,1228.33283011391540640034,1248.44923719856956267904,1241.36321330125724671234,1183.04617998170624559862,1911.5353511569092006539,-407.238304137763634571456,283.452866419293172839389,138.979174262794970218238,164.227693650513771217447
0.0449999999999999983346655,-0.67152760553543500154916,0.109624502722691419265288,0.151224914991990699864033,0.597191150731135489415635,-0.00178865072797036402975357,0.00597026563404959211694978,-0.0442560974025529435538218,-0.0104728749821233341199544,-0.0148755828887868202237144,0.998854180013015513495134,0.0515301985200121714925103,-0.0603291663962625956951769,11.9423168726504069780958,-0.0515701428395997363285375,0.204629103333137635223338,0.691045499079579239598559,-0.0538101458783286495934917,1.70162702388907782768968,0.271861204360834662896451,1232.48113410817677504383,1247.43617380429395780084,1242.15695854888281246531,1183.18666634388841885084,1501.12288938671622418042,-489.663356612254801802919,337.393292812066817987215,-48.1439845238583288278278,164.244233378528718958478
0.0475000000000000005551115,-0.801191028813109773487611,0.249748012686470566290353,-0.152697251269331979450783,0.59531544744109066158444,0.000324206717023275232600343,0.00481075652484460290769785,-0.0435149732714046680315256,-0.0104740309563702942152741,-0.0148567815979605173659639,0.998887009148742621711392,0.0562927391327125159481426,-0.0530014730027844327420183,11.9615823729977819311898,-0.0519790991616531292129899,0.208017306626022330240389,0.696265502433349725563971,-0.053962326828694201497072,1.70230019005622867922511,0.273549458251151567100834,1235.83844456084898411063,1246.00092041550828980689,1243.05017976531757994962,1182.80546005908695406106,1231.8476734614239376242,-774.898220082877060121973,361.201303950292299305147,-310.754525653828466147388,164.259923454158837330397
0.0500000000000000027755576,-0.908039870652399105921404,0.389952170649422391601746,-0.41621493442295043330148,0.589913737704299445674394,0.000217542407432069241635109,0.00183773931128341128267423,-0.0427768183163132753588087,-0.0104783072640807044251243,-0.0148360051792273545112621,0.998919178438554267174254,0.0614615907892584467653307,-0.0459694494127957653528682,11.9783990737522092473455,-0.0523611853263415624737398,0.21138463457538550493986,0.701533722151014393908497,-0.0541171277198906688910007,1.7029814783898060692735,0.275250580772866293433054,1238.64037247548390041629,1243.56168270387956908962,1243.96296506863427566714,1181.63289371561927509902,805.454929453754175483482,-1029.27573426927710897871,273.968160016193110095628,-548.81823501305029822106,164.27779559866536374102
0.0524999999999999980571097,-0.924278031815879530519453,0.559728134318328685026245,-0.531995619134778663372742,0.583692648953746728857084,-0.00152315821740551973588473,-0.00129173872874636919659552,-0.0420450426473491720158471,-0.0104820114742886251468779,-0.0148158372565280558458278,0.998950550625437805329909,0.0668943205087593195656837,-0.0393070035906640524725475,11.9925907648883942613338,-0.0527198663972465383920074,0.214725376494105058000628,0.706846137110061611963374,-0.0542735263440017740022014,1.70366929134039590820748,0.276962387831064305032669,1239.86571920811775271432,1240.85454174416190653574,1244.42002056539854493167,1180.06136888402170370682,270.333622130556364027143,-1214.9733992285298427305,99.5073528909870645975388,-731.529036285792585658783,164.291912272471478217994
0.0550000000000000002775558,-0.880969751727803895846591,0.844184270521597945879932,-0.548487268667706362457182,0.578580526447851406501854,-0.00287423975802302868187699,-0.00403344682152700310245885,-0.0413219291426199022976284,-0.0104816355679070438711165,-0.0147970927535483829512453,0.998981066111178539479454,0.0724459564290362290073233,-0.0330620018288652339766287,12.0039946443158527245032,-0.0530586893661121605791919,0.218035946481433207111422,0.712199493745859890658778,-0.0544301925987411630569746,1.70436334807303246918764,0.278683190099410726947582,1239.99204058613668166799,1237.48681570773692328657,1244.46050183308921077696,1177.97524853419031387602,-106.590178575652217318748,-1432.75054146943011801341,-48.7097732577694415567748,-890.686015459231498425652,164.30524603675260664204
0.0575000000000000024980018,-0.84499188564071914253617,1.23163496194715293974298,-0.510985217937308999758272,0.576878478860926691140776,-0.00273313033985365981884397,-0.00554006838459701611565578,-0.0406102657432472272103219,-0.010475587941418578255548,-0.0147809406021109437934236,0.999010623737320413439988,0.0780105398062608118570083,-0.0272956675157499939476935,12.0124631429995094578089,-0.0533797905088317578559121,0.22131235719227732028358,0.717591599936915125468317,-0.0545859827692230167861531,1.70506349233789089581137,0.28041163487214076921461,1239.33276831523949113034,1233.69078903681474912446,1244.17647169910969751072,1175.60793880672554223565,-413.082197482254059650586,-1578.2599703244165993965,-166.052004901530466440818,-967.0932814464781586139,164.3179476704409296417
0.059999999999999997779554,-0.905447411680617930684889,1.71255688993540977627106,-0.454931670392591358531575,0.57879130086610586225504,-0.000357392755329124438105903,-0.00514394314263854832147693,-0.0399128463529335661408304,-0.0104620060669596386115909,-0.0147662326338758066734957,0.99903916041240392598155,0.0834737957264291979830872,-0.0220718537696011074533686,12.017866580794045461289,-0.0536854210493907732515417,0.224551161774539875803924,0.723020071174507727995717,-0.0547406549679121806617488,1.70576893248423733240315,0.282147164273134409828714,1237.92662959872541250661,1229.5955158561148437002,1243.63024180858155887108,1173.13978212695792535669,-740.780057618622208792658,-1810.36801254918009362882,-253.805307726816067770415,-1040.79745430863158617285,164.329907261501858783959
0.0625,-1.15608047577806116734678,2.32603087773692385198387,-0.411421788596829429707213,0.580620194651630949778109,0.00548637845585925494618085,-0.00399983992920882516081127,-0.0392270422442329153023266,-0.0104389378767053130764308,-0.0147489337324326306999378,0.999066877055330593293547,0.0887180558185073353527628,-0.017326864227438426580008,12.0200947435641793958894,-0.0539772291460781858396523,0.22775734528754687513441,0.728478881218981522138733,-0.0548944298060283289442118,1.70647920579011214137211,0.283891063600671622602079,1235.62886802714638179168,1224.63894897406885320379,1242.9074451604756177403,1170.40395153518238657853,-914.21237018880594860093,-1786.18439633237198904681,-244.282845760153350056498,-917.175888238806805929926,164.343426372355651210455
0.065000000000000002220446,-1.50616154757940079456091,2.80750019977885267863371,-0.402969546345303852863395,0.579566329599348950551985,0.0126892380449516312124203,-0.003740785962909607895166,-0.0385502719662148551904579,-0.0104027008617235145609969,-0.0147286690573721085889547,0.999093938138137849236387,0.093578975183643303692449,-0.0130020487681389018685962,12.0190619166882477486524,-0.0542615504187200642371991,0.230935577503476374694458,0.733959631112525934248936,-0.0550479123939070710824772,1.70719434290948801624666,0.285646449911256372633517,1233.35556774778137878457,1220.66459387445297579688,1242.40882757978079098393,1168.553902685763887348,-959.566166157355041832488,-1526.03034548424011518364,-158.324397505293603671817,-602.790761176310638802534,164.354016699487061714535
0.0675000000000000044408921,-1.94385678334777578513126,3.19682012921372393776664,-0.40591658916015865843363,0.575615409117964493823649,0.0215132971601031917907587,-0.00470301916743780332869074,-0.0378829388953435541864678,-0.0103492249452158142225544,-0.0147057952440424882789571,0.999120382264251150061796,0.0978842634094150287893399,-0.00911394708057791658184499,12.0147110633363354281755,-0.0545458418645521775358631,0.234086008240641435529383,0.739452445676590741641121,-0.0552019875804946186237387,1.70791468086335851417346,0.287416836241656481476525,1230.83103719635960260348,1217.00879724664764580666,1242.1158231729491490114,1167.38999772930083054234,-1156.0248172302624425356,-1516.13170102436788511113,-91.8046103042342167555034,-316.24748470626371954495,164.363926664192746329718
0.0700000000000000066613381,-2.47788856293362158567106,3.51568143614343764369323,-0.389410634825370083333951,0.5681629877013163465449,0.0331814930280929787365096,-0.00702506444735078589003408,-0.0372229584587676284868074,-0.0102777814764886642195929,-0.014682834910460683050526,0.999146275656074944748752,0.10154133954607982848195,-0.00562111027443987221197119,12.0070151548332209046066,-0.0548340571807408444504617,0.237211901542684205912437,0.744943715943920836686232,-0.0553575104611520943387326,1.7086412385673657166052,0.289205874190239464738283,1227.57544366163006088755,1213.08393536933112955012,1241.94980452825961947383,1166.97266526223256732919,-1230.60542650018987842486,-1355.44210351167998851452,-56.8457617453078611902129,23.4434997708831787122108,164.375055547470140027144
0.0724999999999999950039964,-2.86811961849085550468885,3.65086032497933743456997,-0.3416704083232113831059,0.560381710013573397510811,0.0432017063693413416736178,-0.00926128917965382374155592,-0.0365693384787431352567211,-0.0101914214625141059944458,-0.0146610128121162624353913,0.999171622319214858265468,0.104554611441335348898107,-0.00250963969080228443964131,11.9959809153322858321644,-0.0551239573070379657027118,0.240314671144671226921119,0.750418196824710337367037,-0.055514509486752183775593,1.7093746584005755639879,0.291014845364684748840745,1224.67801006385866458004,1210.23158672908925836964,1241.83159436422261023836,1167.50721522815524622274,-1202.17658498600258099032,-1048.89746506169308304379,-86.4080059485333293878284,396.754752801735605771682,164.38371067471823039341
0.0749999999999999972244424,-3.14776742926126651411778,3.66904501070107791349528,-0.257787387077589302819547,0.551857637878008344678449,0.0526383817237265697053239,-0.0109081859155414802320383,-0.0359233165344628874171562,-0.0100935320901508630148102,-0.0146432194646429862661119,0.999196313015623061026815,0.106940939378664612302572,0.000178961334297095264744826,11.981652387007637017291,-0.055413682004958345062029,0.243391610315945972065066,0.755860028101741021622217,-0.0556730174608491557020074,1.7101157473164159128487,0.292843943581306997980818,1221.56456073670005935128,1207.83944804402267436672,1241.51776449851695360849,1168.95643902624124166323,-1424.91256573512009708793,-942.047622768767837442283,-230.350848019088317641945,830.047157892340010221233,164.391743600637283861943
0.0774999999999999994448885,-3.32247861732110738586243,3.60004140600554167761516,-0.138383817202423875514228,0.541624970481696110802261,0.0625663790967143501609016,-0.0116892507716718635490949,-0.0352852200237457544473862,-0.00998531785713719331754046,-0.0146292415055422463793233,0.999220337477840780948668,0.108674796290001485221666,0.00242304590308931033781903,11.9641119172237981871376,-0.0557031758612800548258193,0.246441165243067195067539,0.761251919461113812914732,-0.0558328847538694245100643,1.71086482386225724461326,0.2946936323448238748135,1217.55344723518305727339,1205.52134861524541520339,1240.67984012412716765539,1171.65745101761694968445,-1513.66668745558718001121,-758.654397215149629118969,-406.925786310011631030648,1124.63120069100932596484,164.400687278630613263886
0.0800000000000000016653345,-3.32485022548144470988518,3.50143875974072704693185,-0.0479579954905884897620183,0.533267162416499407306958,0.0697298912411050131332502,-0.0112986291458047425489974,-0.0346528563446001705572463,-0.00986768680192168928799745,-0.0146158721889276324579221,0.999243821636320084245142,0.109733849347702111520775,0.00426047799970100116162541,11.9434789290524410176886,-0.0559915886435175050306334,0.24946563513289640723336,0.766575515393562390009663,-0.0559928981005664433423519,1.71162217262797922145978,0.296563555198837813797752,1213.99622729942211663001,1204.04617605794692281052,1239.48313556696689374803,1174.57959502969629284053,-1450.32836154964434172143,-504.964012754634950397303,-588.821347562360983829421,1262.46087313984276079282,164.407577595691094529684
0.0825000000000000038857806,-3.17784020802213751366594,3.38712832377825101559665,0.00737364392126835244134497,0.525067958239218479654653,0.0766196180525520326165534,-0.0102230891681056781233883,-0.0340228388508017343117018,-0.00974424467674394820249084,-0.0145972703482395212842837,0.999266943938227902854976,0.110171258432698704332608,0.00575809295863974335283331,11.9199076734655946552266,-0.0562728409128245496417797,0.252469495762391082926968,0.771813318336460718604997,-0.0561524156643293873014677,1.71238724513333862020659,0.298451984643437528976762,1210.30180542743482874357,1202.99652855147223817767,1237.73573338631535989407,1177.96975538331616917276,-1476.91332203939828104922,-364.899838643486532419047,-778.828677125010699455743,1388.73241884748381380632,164.413904147356674911862
0.0850000000000000061062266,-2.91196832863110754985314,3.263591051811550958206,0.0249397726378827559734486,0.517345090377707816919894,0.0840173023672282082152662,-0.00908206143836019774706614,-0.0333947868520207691300783,-0.00961674438917640810042808,-0.014571392983746468685613,0.999289738437297625495148,0.110002075620310696413284,0.00691052099642033845761091,11.8935866753592680566953,-0.0565458332986444670020809,0.255452254335271411456176,0.776951216884530282413834,-0.0563119635473702806471863,1.71315884853035038659641,0.300356830289730758476452,1206.61166068922511840356,1202.22167686472948844312,1235.58899218134183684015,1181.5232571239337175939,-1438.56888817212939102319,-272.260290913481867391965,-925.53103720469982818031,1395.7346589321775809367,164.419778316042481947079
0.0875000000000000083266727,-2.51541741716704914111347,3.11986215691113821790736,0.00323696757297694398536336,0.51061379573359388928111,0.0921441801563569751198912,-0.0082190297400150848922129,-0.0327676615605387647200963,-0.00948501174971972879634841,-0.0145399141904190842833344,0.999312224785942726512644,0.109201595390776035054969,0.00772844264140895575998513,11.8647333889146580077067,-0.0568147375944891841470508,0.258414168496447216316625,0.781977276157335809969595,-0.0564716199977923147268477,1.71393665600698352768916,0.302275627535660451616906,1203.10896098657417496725,1201.63522709690482770384,1233.10807820029185677413,1184.94842867797706276178,-1453.0434076717510833987,-258.865960190815314945212,-1121.98164492979435635789,1388.54204963249958382221,164.425125155804096266365
0.0899999999999999966693309,-1.91168842476463174406831,2.913675541247898514996,-0.0417055927197251888327578,0.503726300543084093419566,0.101704989510106424965841,-0.00786753442371003128275042,-0.0321438072576359853971262,-0.00934851997002849634255117,-0.0145073128647511991051733,0.999334271589997436002761,0.107746307528381213280966,0.00814365142425124699521177,11.8335896061901095777102,-0.0570860644535848699154812,0.261350130172328554145622,0.786884286981525793436276,-0.0566311339097864754887901,1.71471985501364265758184,0.304205535731720100312003,1199.34644365086637662898,1200.92734706377541442635,1229.97908395669287529017,1188.46596737209620187059,-1283.07130035509794652171,-292.273802008367624694074,-1140.0705135583414175926,1133.00588967558928743529,164.430954989094800566818
0.092499999999999998889777,-1.32412462433033950581773,2.71556635952274794121308,-0.0673029466719375635275213,0.49903094236140965733739,0.108746774720013525405982,-0.00843702015897170379266079,-0.0315279634119327509256259,-0.00920456977696476781602986,-0.0144779064524806592995088,0.999355690174750899146261,0.105574330285019390984758,0.00803307090884616825654518,11.8004157665294844292703,-0.0573698655407585134113901,0.264251412064720747618907,0.791669071293118697951741,-0.0567899824073185982564738,1.71550681880518918198675,0.306145264412085560401522,1196.69360448479869774019,1200.17385808686299242254,1227.40772563250015991798,1190.61345812635499896714,-949.711132778883552418847,-363.658761528585841915628,-992.100440587636512645986,651.348812236482785920089,164.435341069011741410577
0.095000000000000001110223,-0.685240064431135720290911,2.50169145714307461503267,-0.0486220501269275517941537,0.496065198106987348403152,0.114716984874999372578941,-0.00981614731689766165101396,-0.0309230323238981405498116,-0.00904968682400399300480576,-0.0144527068233903290689346,0.999376403133091617547734,0.102620739556927326185942,0.00732002207847079477964769,11.76548314192003807932,-0.0576758126620406721962731,0.267112596815561098573255,0.796330078798196172584767,-0.0569476827253740172651852,1.71629670182088323038272,0.308094522877972620822362,1194.59788798697195488785,1199.10905325613248351146,1225.01858175375468817947,1191.72271143327861864236,-798.429926088419279039954,-549.8814123312508854724,-992.482361350447717995849,242.432413033293187254458,164.439255884683944941571
0.0975000000000000033306691,0.0841377554760835422165144,2.24135096352783591555635,0.0443318477127872673237974,0.495352661485926715201344,0.120923745848494940124951,-0.0115574118360880460920637,-0.0303261574722778898260955,-0.00888531055464027684498429,-0.0144308771630838692662246,0.999396492297343508326435,0.0989478594362338259582401,0.00606815555720094379488216,11.7290651893191917309878,-0.058004927226828137398762,0.269937593316099677664965,0.800865374566173016113169,-0.0571043084398669548162886,1.71708996088188770023919,0.310053124884694109031358,1192.70145485435659793438,1197.42445102520673572144,1222.44531382574791678053,1191.82562019152146604029,-604.076780311060588246619,-673.716199807631141993625,-893.463270894107267849904,-136.478351214827739568136,164.443429298459307119629
0.100000000000000005551115,0.682710123239668398298363,2.02709479819973381609088,0.175803799345996297764927,0.497194363476984924066215,0.125701057200993421281154,-0.0122762156313676127489254,-0.0297314819322248777289097,-0.00871330397185536911774939,-0.0144103701496432392431535,0.99941614370967368774501,0.0946381564071417380468176,0.00441377432993697582652715,11.6914341602986162627076,-0.0583565639888620202313518,0.272734990572000901565275,0.805273065806689336554314,-0.0572601777631205482999022,1.71788754591795633785978,0.312021191873499859070762,1191.57750408541664910445,1195.74047225709432495933,1220.55126539928414786118,1191.04031967720447937609,-374.600230753321397969557,-699.841928576096847791632,-714.605463924817058796179,-423.900081897090387883509,164.446484209397254971918
0.102500000000000007771561,1.19298317396138209289802,1.81584894600469337611059,0.337530998793496461729546,0.500928128162037911152993,0.130461432574052682564769,-0.0117321623799157889050937,-0.0291321783098205354389787,-0.00853407500899571770658358,-0.014391871464090605012287,0.999435544724498470259277,0.0897461335251397984702493,0.00251729035829964531423286,11.6528573210123589376508,-0.0587335108132256977775398,0.275514136854481672678219,0.809551762279496212038055,-0.0574161082344782081055001,1.71869033097910461904689,0.313999823727443672094495,1190.82845370058998923923,1193.92524138232624864031,1218.87228650612382807594,1189.70611978203601211135,-270.500871500917639878026,-782.586314592391886435507,-708.130575245696945785312,-609.138989961048764598672,164.449115800198455872305
0.104999999999999996114219,1.67750244876812248939757,1.56494937113592036403986,0.525782851480740331950869,0.506457113524633628642846,0.13583198593674755683125,-0.00962860639147515399993704,-0.0285233868650016202106467,-0.00834901024676848110828153,-0.0143784376780681944635321,0.999454779239480006758356,0.0843557356013765746727273,0.000495679636025619929640129,11.6135929198571012932462,-0.0591378167306824548132838,0.278280418774068671883271,0.813702217562047747101417,-0.0575727660062875651325598,1.71949997119749675711375,0.315989592874724001259068,1190.22499972791206346301,1191.82754068413237291679,1217.01061252305566995346,1187.99462472739924123744,-193.960796755300549421008,-725.482094979226076247869,-674.0041588617272054762,-574.124236822354987452854,164.451801121574703756778
0.107499999999999998334665,1.97429755412862006913599,1.36216471403640504433952,0.652618060480413597623794,0.511273201537575716635331,0.139549318909991781900715,-0.00706485977824759803223031,-0.0278993715155470556332773,-0.00816260293570727699097311,-0.0143731453117774670563689,0.99947392863344031166406,0.0786291660491937050014855,-0.00151006245529031191132674,11.5738854966065556340027,-0.0595660323607018343805564,0.281040308359576440633276,0.81772593926790537732785,-0.0577302035695014190141983,1.72031785441218176835321,0.317989684759124702218003,1189.85864971681348833954,1190.29783090743012508028,1215.50226571181519830134,1186.83549859792424285843,-143.954333384908636617183,-543.885180535925883305026,-614.042559002882057939132,-349.576456443173526622559,164.453656413899210519958
0.110000000000000000555112,2.17339178104907437827364,1.17650752670689850987173,0.734169903677334589886527,0.516071397030520406801202,0.142303953060147037046335,-0.00449666522587740310340498,-0.0272582319058241422105038,-0.00797897034257314709260189,-0.0143800132278242964040116,0.999492955207897049163535,0.072724573498666150728198,-0.00344511613674500227766373,11.5339655068810014171277,-0.0600152457347234713491702,0.283793836494396434222409,0.821627422356333902975223,-0.0578871950463216572435599,1.72114502503204924721558,0.319997856482753528784002,1189.50522806098751971149,1189.10811478145274122653,1213.9403997280412568216,1186.24674244518337218324,-155.692237913672073545968,-415.487334565341029701813,-644.066207077639205635933,-126.04221739416050240834,164.455127176888794338083
0.112500000000000002775558,2.30387669630256386454903,1.0131511837338189607749,0.780865438011513979255085,0.521169403673661602027778,0.144513397879680316471251,-0.00238033615176143700797873,-0.0266075194218075225527365,-0.00779889992081875520896217,-0.0144015629157727264447741,0.999511600670934474699436,0.0667307817044752588087064,-0.00546965659128698100666099,11.4940496094647759406371,-0.0604862766724727773937076,0.286526004266855538471503,0.825416922837117428279896,-0.0580429148472904610223111,1.72198006810686687906298,0.322011742839491965639809,1189.08018852724512726127,1188.22039423460341822647,1212.28193467642699943099,1186.20528751095343977795,-200.417802765741555504064,-291.909759717827625991049,-688.570574675940747511049,97.5429354737115374973655,164.456287695059728548586
0.115000000000000004996004,2.36386974234774749348276,0.881744210757875346295975,0.7979560969239976042644,0.526944786519865870921819,0.146562883650472403074261,-0.000848687813388362944332088,-0.0259551679127283316250718,-0.00761518670166594097842294,-0.0144300184536963471693127,0.999529798633588151268725,0.060564442746813412776774,-0.00774916275539963561591605,11.45433800068367524716,-0.0609860855879580943117446,0.289223117691360498415776,0.829104384992497056572347,-0.0581984771337858766693252,1.72281936620845632646137,0.324030710175414904394842,1188.50313904715881108132,1187.64856598286360167549,1210.49754685466155024187,1186.73445712255193029705,-293.881516119199375225435,-202.985309259247344471078,-799.060681667105427550268,307.439318709338920143637,164.45708388206855943281
0.11750000000000000721645,2.37035396611589099791217,0.761970546052100461409395,0.799028147862087534392117,0.534294106371121735321594,0.148890818208445574466481,0.000630736285067961220673904,-0.0253050112294259076095582,-0.00742208648452516526333733,-0.0144568217190367241664628,0.999547591764115672674507,0.0541765974541607159276069,-0.0103491142907447264409626,11.4150113838634990059973,-0.0615182033902907376976543,0.291879413709947466148975,0.832697184413945468151041,-0.0583558494829863813602167,1.72365995631304991242416,0.326056231048744260547778,1187.61078094664912896405,1187.20546768830718065146,1208.28663126809146888263,1187.74248410450013579975,-354.555183687580893092672,-142.572404797556629318933,-799.754889706584094710706,377.85209348371682835932,164.457629944910081576381
0.119999999999999995559108,2.3376641541205258612024,0.693204520934389556430233,0.787262015529196723662153,0.540132533284268911977222,0.150535358777284883347036,0.00188721180536144199878235,-0.0246578033853287019450118,-0.00721948671744740335526336,-0.014476406369089419440277,0.999565016708488407459754,0.0476424365399502058870951,-0.0132592147974043561564628,11.3762317754057242780164,-0.0620781493958784472142476,0.294494862508391130884178,0.836200480808033885793407,-0.0585156877476425418826977,1.72450057275304091675139,0.328090698075230779995337,1186.73036312872091002646,1186.93570395887581980787,1206.49877240612863715796,1188.62371758997051074402,-364.161893575556632640655,-107.44333134530299389553,-668.952774483569896801782,300.597443832248814032937,164.45775192001423192778
0.122499999999999997779554,2.29102140193719883143331,0.655333730441170270175633,0.755561382269733350369734,0.545257772839991328162057,0.152044410317637546103953,0.0034764938455921173647567,-0.0240117326597891651840389,-0.0070087569358775652153537,-0.0144844455304098205378205,0.999582146674579452572118,0.0410654363953118217711591,-0.0164083192429642921172928,11.3381453676743699787721,-0.0626592931227224758661265,0.297074016484530412096632,0.839616636318060272081709,-0.0586778121813411393525861,1.72534165933328798026025,0.330135314722686978861077,1185.78997147877134921146,1186.66825103158066667675,1204.9418673956736256514,1189.24547132366137702775,-403.282935782862864471099,-126.180659165129213761247,-590.604764984618100243097,167.628300778733176912283,164.45753709127711772453
0.125,2.2468475399041794027255,0.642193086124083212240521,0.677327261834446359145545,0.550784950155695285367585,0.153585764752240450103926,0.00579143825060045216307492,-0.0233623017627475441926332,-0.00679270014835727051899505,-0.0144783801098449949745772,0.999599084966627415838047,0.0345741089718419603027399,-0.0196631713472341373982744,11.3008847922425221810272,-0.0632535105032639988209553,0.299625600585451679069848,0.842945045199070208674641,-0.0588415965348374550569766,1.72618473679054340585992,0.332191850800392429743368,1184.7139484498065939988,1186.30480066305017317063,1203.54574858120554381458,1189.46185909386417733913,-370.658174749132399483642,-133.487777585150865888863,-409.463983471232154442987,-19.587258161891423213774,164.456899395178055556244
0.127500000000000002220446,2.23199532532139199858534,0.65334302089172957561658,0.565901969812876548537872,0.555134564093300864051628,0.154690308871631904130695,0.00773468851688005349515054,-0.0227028575366627592690971,-0.0065733200445364514674651,-0.0144542700439360335962213,0.999616011169381590839578,0.0282729021157199708613739,-0.0228421405661527188168947,11.2645718961688636738927,-0.06385307882234103615815,0.302161614821628787819208,0.846182353433676537335373,-0.0590060394510417488000975,1.72703218957004178690795,0.3342600002219690558114,1183.93668060502568550874,1186.00081214365491177887,1202.89454747831746317388,1189.14753503285191982286,-278.846861543160912333406,-97.2002623150273450391978,-139.828487478052807091444,-214.474381434228945408904,164.456057733660514941221
0.130000000000000004440892,2.23956132451961931195683,0.676100110183348590453534,0.396913884078379242126289,0.559710645523885164109856,0.156262131739991233514431,0.00933941329905927687671241,-0.0220281621776347059926682,-0.0063493175879164517882991,-0.0144144818837824428836569,0.99963300093060369899689,0.0221810259785838598256547,-0.0257972234769234809448335,11.2293209185295470575738,-0.064459847420707622189795,0.304690026233516597642392,0.849324660246071116986855,-0.0591705912636461273113042,1.7278851911384089934387,0.336338477219612408397609,1183.31971414209078830027,1185.81879935147503601911,1202.84660614381527921068,1188.38948718669303161732,-245.389344641443813088699,-6.75086082592314884465168,112.029839064734815679003,-395.031235755277180032863,164.454901012425949602402
0.132500000000000006661338,2.25610776978609672838161,0.699265692113207881774883,0.126100086139247447025724,0.565967491515206533314597,0.158809411194534594313765,0.0107229883684530277743185,-0.0213360053083029958809202,-0.00611899680705104732914013,-0.0143629001247856952910853,0.999650043145902666985592,0.0163025736341192856171389,-0.02844847758037497009731,11.1952399567499085719646,-0.065077371637835307316422,0.307212778731227487138966,0.852369184521797995657266,-0.0593346340283553916328252,1.72874389074761514173417,0.338425921407105756433253,1182.70973388181846530642,1185.96705783952529600356,1203.45469667364113774966,1187.17237885407553221739,-221.839088182559663664506,154.205865025733004358699,312.669737397845608484204,-459.366563982575428326527,164.453156740814790737204
0.135000000000000008881784,2.25651939427452363773341,0.705823569156857621997858,-0.150361336195475564503354,0.571674378764970181343585,0.160853066941454542204681,0.0113547967229612519618476,-0.0206280536918213540376055,-0.00588015636962469466497705,-0.0143059563930266978731831,0.999667011607205946432941,0.0106234274385828275644172,-0.0308020374722294820735158,11.1624321999490607737471,-0.0657116682314639183326577,0.309724340472520343059415,0.855315026498522423814563,-0.0594978062565248294601972,1.72960866649188904631274,0.340522667095014552884891,1182.21051870117798898718,1186.58982867660370175145,1204.40995483080450867419,1186.09265436678015248617,-228.008374330374664396004,396.402334999265463011398,430.948248874846797207283,-401.331343628180206906109,164.451412624222399472274
0.13750000000000001110223,2.2213699989969208914431,0.695275814263540348214576,-0.462929070177722445933455,0.577274867202339225791263,0.162234309474476451340408,0.0113942894233376064427876,-0.0199095551307761492454418,-0.00563368081773312368715212,-0.0142516540833757306833141,0.999683663857921733786327,0.00519169260948107447184441,-0.0329413467527306935700437,11.1309959801063769191387,-0.0663643517297364399221138,0.312212629247080986072405,0.858163661498012264594593,-0.059661129386118387507576,1.73047947191444562164975,0.342630459076343762969685,1181.56969201016659098968,1187.94906951452162502392,1205.60943791801537372521,1185.16572213593462947756,-299.845243173694768756832,688.531336343839370783826,475.189890529372462424362,-320.903400326232883799094,164.44937500343974079442
0.140000000000000013322676,2.14434757300883882535913,0.668623791691865920761018,-0.784219185626358394891611,0.582559568804140170961148,0.163218228328917774883067,0.0107777388746071647179781,-0.0191809709250606585939636,-0.00538740766836062236200267,-0.0142061667108083176935818,0.999699842136679062143401,0.0002019248903084545909703,-0.0348394770268484199604586,11.1010226458337744048777,-0.0670238126661232141989544,0.314674249564081853769437,0.860914552523786902327174,-0.059825809666618059989851,1.73135626391604113827327,0.344750598755857229349431,1180.71129248530951372231,1190.03248535832290144754,1206.78590428345137297583,1184.48813736514898664609,-408.648980162706379815063,1013.3109072821744121029,401.197597838335809683485,-198.958794578038407507847,164.44710047612036873943
0.142500000000000015543122,2.00450679938971676463666,0.613382064753666300660484,-1.07818962450566258048923,0.587506606883040127797813,0.164354790392501504125988,0.008751783692813347448336,-0.0184454558431091132641999,-0.00514455298495052927576499,-0.0141718437653998493436225,0.999715419404347716003656,-0.00425960033590378969736712,-0.0365306195944488099058844,11.0725981128436288258854,-0.0676833139163171004781816,0.317102129666897103454914,0.863568904347340682292611,-0.0599926245713511899215753,1.73223852348014162316758,0.34688252988841644652851,1179.52644710935305738531,1193.01562405093250163191,1207.61542590720705447893,1184.17092816304443658737,-593.223305613312732020859,1490.52880003915356610378,202.790324212765909805967,-65.8515488775722985792527,164.444548666744822185137
0.144999999999999990007993,1.74903229556534700606107,0.492507352028836054014249,-1.34113814127787422947335,0.593176253679964515796996,0.166359054869111122609837,0.00406424126415105748527656,-0.0177030633804853392010425,-0.00490791031902907976675055,-0.0141489513455500953709176,0.999730367844261502696668,-0.00812376196606809375388991,-0.037981138124673574640866,11.0457993868160606609763,-0.0683353365253778072263557,0.319495684906147991988234,0.866127168008168024648796,-0.0601624019029501216904166,1.73312578640947734243127,0.349026998656130460485514,1177.74517595724296370463,1197.48512935851863403514,1207.79985590451519783528,1184.15887962076112671639,-695.632262706752612757555,1737.35657314433319697855,-115.254247764142377263852,36.3052037985200399816677,164.441177495488773274701
0.147499999999999992228439,1.45389227164802936620447,0.330286954547222288969266,-1.44856770475706286838147,0.597815553236746954901548,0.168397802161022874800622,-0.00109105258553720109795937,-0.0169563130652969108747019,-0.00467836982895333038795505,-0.0141362568751749913265048,0.999744656069459947111966,-0.0113692958380407077578766,-0.0392149249090298079867267,11.0206932459319588701874,-0.0689746479634754106058381,0.321851401948618387471868,0.868593039955685153330478,-0.0603350441563005948641951,1.73401630860143218804126,0.351181747759835072297818,1176.04828579581931080611,1201.70240691665412668954,1207.03915466838634529267,1184.35245418203703593463,-688.33125279620560377225,1701.76157987902865897922,-521.435472782377019029809,90.1863824781684400022641,164.438119645972989246729
0.149999999999999994448885,1.07100894771110977110595,0.0966588811426133537318961,-1.41999696627749560917664,0.602147622295212459064828,0.170040409467636044471561,-0.00610967804243369751182602,-0.0162123251905211158974129,-0.00445563518471938594528448,-0.0141346370024896788447633,0.999758157934776292563583,-0.0140072272465923686191047,-0.0403611221329537861457482,10.9973335847098212525452,-0.0695998147926229632220796,0.324158670884266697509446,0.870975540481264354220059,-0.0605096499157062941987029,1.73490699435896433833193,0.353343479594621867612148,1174.3035196932619328436,1205.99393725791378528811,1205.19267854060331046639,1184.60981153315196934273,-730.416098610384551648167,1783.06358139220560588001,-1047.68737703661736304639,103.228604535252003415735,164.434814985083278315869
0.152499999999999996669331,0.529890727683260731595283,-0.252200713552636623937531,-1.24103576352567457341536,0.605937443348772752926834,0.170756944187417269986895,-0.0110508329534562167728584,-0.015478242371730548815334,-0.00424071295844664301194493,-0.014145536420739441771377,0.999770742499413667125907,-0.0160254070223963956953739,-0.0415530170219769179329461,10.9757572653599275724901,-0.0702082992281055640049203,0.326407759425628996030611,0.873286616125623638140496,-0.0606850397122217707912561,1.73579561354548705942591,0.35550944083224139680155,1172.39620530276738463726,1210.61772482361516267702,1201.80071778320325392997,1184.86859720471329637803,-634.408679392981298406085,1518.97866867316088246298,-1398.9649886684208013321,81.1491500458941317219796,164.430576477298046711439
0.154999999999999998889777,0.0436622017719294555626597,-0.576300943471195314948829,-0.998230915331899226750068,0.607233480833074046323361,0.170186200702635154202724,-0.0137925155270519142480801,-0.0147606675420467025466875,-0.00403230840560323249704977,-0.0141675505899224018352411,0.999782345818197248910053,-0.0174649898726303917650959,-0.0429177309370173398761494,10.9559812494003701033307,-0.0708005083339863783287171,0.328590710240605432534977,0.875540050472688680116562,-0.0608600145526618091507132,1.73668218368399429607507,0.357678266423853030708813,1171.1314762962970235094,1213.58883060127959652164,1198.19785359726120077539,1185.01555728338144035661,-406.828753452009209468088,920.789626956183496986341,-1530.75223394521208319929,53.0582483604120582754149,164.426824934378657872003
0.157500000000000001110223,-0.42516849133217882172886,-0.897285476880365195917477,-0.698285837631845485162785,0.606306607781364470532992,0.168365927619187033537074,-0.0151945877542753286781885,-0.0140628121795876512289958,-0.00382872513808721684491765,-0.0141992674192972859192885,0.9997929619089939157206,-0.0183799123755786671108314,-0.0445142528263214320993768,10.9379996595488382382655,-0.0713784525018710674926226,0.330705329204514064667109,0.877749252889502340480021,-0.0610333202211189168595595,1.73756783008123671940837,0.359848488309272573903996,1170.36206153550733688462,1215.22167295839608414099,1194.14695661347718669276,1185.1338884465153569181,-205.121085481732563948754,361.318094915213464446424,-1792.96087045063200093864,67.2694896217762448031863,164.422853703138287073671
0.160000000000000003330669,-0.903684795383322247985802,-1.23149606363555608190552,-0.313172588668422458013652,0.602841568173874908787013,0.164715156307639221111572,-0.0162881205804461422215201,-0.0133819967041637153531974,-0.00363333959947662868059104,-0.0142383950070655660585794,0.999802664779874228351275,-0.0187167211161734965696457,-0.0462778613244592684772272,10.9217817884857524290965,-0.0719354002613802334664683,0.332759342573501537554392,0.879925491019819427940263,-0.0612043322077797727343018,1.73845409221266722354926,0.362018304761105857991765,1170.105870868888359837,1215.39542107585566554917,1189.23304924500803281262,1185.35190473149032186484,16.337311802772077840018,-225.8473627709916229378,-1747.34137071695681697747,110.41642374034371698599,164.417841870406505222491
0.162500000000000005551115,-1.19778515551660347249197,-1.43672401181039011142104,0.00523085191115576098735973,0.598605427090588282368344,0.16062274619697428090781,-0.017035239262784052094446,-0.0127161604462887097705126,-0.00345199346002752474257824,-0.0142837376868874803975684,0.999811490385764112254208,-0.0183704397501891665556162,-0.0481635818691420192205754,10.9072731396242001977726,-0.0724611590760424612023272,0.334758323544965041840271,0.882080852170503915132826,-0.0613740037707329252891775,1.73934218277782681738586,0.364187099000245984026236,1170.44374809452119734487,1214.09243614454112503154,1185.4102497598923946498,1185.68597056521707600041,231.154196373790711049878,-761.964395319272853157599,-1411.81668675262562828721,182.258319082347782114084,164.413464455815926612559
0.165000000000000007771561,-1.36751591133353178619814,-1.54122299551559116537192,0.292701671920899020307161,0.594142628653415494355272,0.155848619987598885350266,-0.0170766888493501037271649,-0.0120592015128175838317715,-0.00328533635726106082453057,-0.0143317123057499495875078,0.999819574218932194398235,-0.0173509338181958121249959,-0.0500459006315532306530258,10.8943956334579343803171,-0.0729528999587721743713686,0.33671411301446879660304,0.884222987240124269625596,-0.0615436852571199441430672,1.74023322341240227473236,0.36635698579707504096703,1171.26164185075731438701,1211.58559909925929787278,1182.17396581124489784997,1186.26319632690206162806,383.215722078375279124884,-1129.17897312658988084877,-1165.04364927663914386358,277.302829664585942737176,164.408882434514822534766
0.167500000000000009992007,-1.44224605311892517534034,-1.55696258387496122566063,0.528645913697159519628599,0.590110515751358533087512,0.150886155993657289364762,-0.0161411436169964575548796,-0.0114014783171102283138021,-0.00313525227640649127580641,-0.0143760393394231199976074,0.999827125226179669326143,-0.0156420715130176600504708,-0.0517272482647302550562429,10.8830496113269976632409,-0.0734035080306698339835947,0.338644253444375376016495,0.886355288459489076835496,-0.061713511403958663803504,1.7411284801818511791538,0.368531988277314592750145,1172.3598267049130754458,1208.44654127890817107982,1179.58503151350919324614,1187.07248471354000685096,473.740049820434762750665,-1304.51638139083911482885,-854.559194249440338353452,375.872050532506932540855,164.404132661789162739296
0.170000000000000012212453,-1.42776468759206931480321,-1.47797868640113549965065,0.66795047380797112346329,0.586848341257809158477698,0.14646640255462206603454,-0.0139251828755947264226744,-0.0107340811423859081030763,-0.00300141163309570113346125,-0.014410371566136084137133,0.999834346550950159304705,-0.0132768213122001002557404,-0.0530314826041195508388171,10.8731177144101529563613,-0.0738092811917040320102146,0.340564215378568957426353,0.888478781556888197457056,-0.0618830623471161161974763,1.7420292104432186786056,0.370715738588504151174163,1173.63034209985949019028,1205.06301719230509661429,1177.90116983999769217917,1188.14255657956459799607,559.255651714738178270636,-1420.74659257764187714201,-512.367664563589187309844,509.506889009434871695703,164.39918179718841884096
0.172500000000000014432899,-1.34384396003345063519419,-1.30905092830646108126302,0.687069917664255735978429,0.583721529248012460655559,0.142538106514893930798493,-0.0101677959658200717935062,-0.0100529659687152318064962,-0.00287999064508088478339665,-0.014432248688606942252366,0.99984133252946882919332,-0.0103653092373394706271483,-0.053893264954976760616745,10.8644693198075046325357,-0.0741748621959125303826355,0.342479770372321634663848,0.890594847589301186197019,-0.0620522478693718779196864,1.74293530149918174387835,0.372909040765707022746511,1175.15610496348676861089,1201.3428083160199548729,1177.02319319069124503585,1189.62001915858718348318,536.999604727634050505003,-1239.3843310466752427601,-125.254986522531794435054,546.299411902463816659292,164.393009481941135163652
0.175000000000000016653345,-1.23892562938836259256448,-1.137443173385114913998,0.568990223292010321998191,0.581510433199410647908678,0.140385003900609039995118,-0.00667050752908617417685777,-0.0093555790538011694007503,-0.00276636258128235609093926,-0.0144446616329684876522954,0.99984807796708685678766,-0.00703783248280196588320123,-0.0542828515893407775871893,10.8569639324713573813597,-0.0745097135944072785918024,0.344393210823598083791808,0.892703752812338713340523,-0.0622221875314965741643469,1.743846384808090510532,0.375112959599748940764385,1176.31534012349766271655,1198.86609553707171471615,1177.27489490738503263856,1190.8740536390769193531,422.411273020090618501854,-819.377974967305135578499,300.20697990344302752419,463.894820793122903523908,164.387675008182071678675
0.177499999999999991118216,-1.10867935279571439011193,-0.963569272322182590606587,0.328070319504365714990968,0.579380194309222495974154,0.138977305909978421372131,-0.00387501793895180489391006,-0.00864316354560784941285512,-0.00265470580660991323576625,-0.0144500066039715286542178,0.999854547881427691002898,-0.00345052428035649144666408,-0.0542557340953118694137913,10.8504557743058729357699,-0.0748245643019195688649958,0.346300579677007114298704,0.894806775818708932668244,-0.062393284207967525389904,1.74476149525923895922119,0.377326563793213221043032,1177.2681613285872117558,1197.24591844118344852177,1178.52422809020845306804,1191.93949326255278720055,360.592131107979980697564,-516.31354212436474426795,750.993776072349533023953,376.576479229381163804646,164.382146304827813310112
0.179999999999999993338662,-0.919631254927814723032498,-0.767243935240183083656973,-0.0452528620706095716097472,0.576703691306663324134263,0.137574255505227810436608,-0.00237768022024692667060197,-0.00791820408112777797404735,-0.00253945014707590522792802,-0.0144486441613259439936678,0.999860723174110122002389,0.000245214649955204783138285,-0.0538967449458653130589525,10.8447973577587362115082,-0.0751279862533850983918882,0.348196816293270872133547,0.896905237668455423971636,-0.0625650687227801566292484,1.7456789456358920986645,0.379548096361698394929363,1178.11830077903755409352,1196.28452782644990293193,1181.02986378774676268222,1192.75693603522381636139,259.968130650576995321899,-215.203401453118004837961,1042.82064363064728240715,198.295315391260203341517,164.375294008477027318804
0.182499999999999995559108,-0.726261280210370618881655,-0.610914910762433538415905,-0.365849156079599391322432,0.574417405209279752220652,0.136345057543370201669219,-0.00302993140620026746301363,-0.0071858808043720225067208,-0.00241342354931278280441576,-0.0144422205140325721206551,0.999866548418118394891962,0.00386137473970293854108604,-0.0533525573156276161634892,10.8398436851724184748491,-0.0754321234287984171418273,0.35007276137758464029659,0.899001653318009519288978,-0.0627376911161365846680837,1.74659677832518234197323,0.381776997008549223711071,1178.56800198184009786928,1196.16990143391785750282,1183.73833130836169402755,1192.93096983950908906991,127.623332929306229743815,48.6956382782863812508367,1131.70474944845318532316,-41.6281634526057686684908,164.369408563243609933124
0.184999999999999997779554,-0.486496230749317026820222,-0.447497042920917853514595,-0.618302231144602698620361,0.572233303492314604454805,0.134969002635782431287481,-0.00571128702269499671090314,-0.00645143092554652589076802,-0.00227179546096279534259099,-0.0144329205427392980726209,0.999871957569373526197865,0.00725818270359010475623052,-0.0527735438100207510103701,10.8354550606725457129187,-0.0757452913927516707781606,0.351920022574062074660617,0.901098658589681966724072,-0.0629112349236020940157488,1.7475136975736988986796,0.384012942369538312625821,1178.75641744368408581067,1196.52800601784133505134,1186.68838753498903315631,1192.54879521796078734042,30.2038067394732649972866,206.753111197485679895181,1235.34259727743915391329,-269.577490350093057713821,164.363350593997978421612
0.1875,-0.145792075791670167062009,-0.223171989326449354829052,-0.769970815500127025998722,0.56986896134537601277259,0.133143895245620091927208,-0.0107500987722131992330166,-0.00571960001622323545994453,-0.00211240448362228850145983,-0.0144237548131655630989645,0.99987687548881210020113,0.0103509654723847877022536,-0.0523020515688260717590552,10.8315000549372850713326,-0.0760716715696389961243185,0.353731658276747573665943,0.903198762420635681280601,-0.0630863310853969211366987,1.74842881278654838084208,0.3862550866435713881053,1178.71902101553746433638,1197.20366698990528675495,1189.91504429474889548146,1191.58308238775862264447,-47.3827906342193756472625,250.621729985868796575232,1043.02407047962242359063,-400.172572872224577622546,164.355894647997644142379
0.190000000000000002220446,0.167899227929358824118466,-0.00407397901970798104881455,-0.745645443863321433219937,0.568506596892633386808313,0.131663349080898578469245,-0.0153990228494096798028679,-0.00499413871158037488140469,-0.0019362710131586543301635,-0.014416236490706214184998,0.99988125434550390036037,0.0131220931521054129387238,-0.0520614214877551245708176,10.827858131954672060715,-0.0764088382669300125726863,0.355503060292039096967898,0.905304047551806156945986,-0.063263197934347814577194,1.74934265767709073990943,0.388502530958856062692774,1178.51950349051298871927,1197.78111466777068017109,1191.90350788738714982173,1190.547932353599662747,-96.8858554575489563376323,203.478225993921853387292,566.604799597598230320727,-406.04800627906990939664,164.349537008373687285712
0.192500000000000004440892,0.47401514604690148102506,0.242848373115450544279526,-0.580139688955343846288315,0.56882854595496756822115,0.131084254504617608860784,-0.0185010665829903782342303,-0.00427823136452471289303823,-0.00174405028275895993689071,-0.0144089014252701246715516,0.999885098502972691214552,0.0155451793724148690234443,-0.052166156571151464649283,10.8244225304652541552741,-0.0767532397319856951600769,0.357230911847473464604263,0.907415829675741636428654,-0.0634417905025865813684049,1.75025600288793903303031,0.390754973513393555339945,1178.23459173824971912836,1198.22105811987489687453,1192.7480682927368889068,1189.55284235636327139218,-112.188394312124628982019,145.500045071321295608868,115.737762613116402121705,-352.715502990849586240074,164.343043347142383936443
0.195000000000000006661338,0.733006299090322777090023,0.495488510731991460556145,-0.337158074509947003338795,0.570821944697056604667296,0.131746853204377983859175,-0.0194970320945877829965642,-0.00357232738592407408906304,-0.00154124015490550892067134,-0.0144023432688553231634243,0.999888392033746242759662,0.0176965231115611826284706,-0.0526723658130356375828285,10.8211016606897469927162,-0.0770946694497312567939673,0.358916161293439173185504,0.90953363193150005283627,-0.063621157688347362846315,1.75117011874574002305849,0.393013404347502481872567,1177.95856151895236507698,1198.50861489312728735968,1192.48219670045273232972,1188.7843548386454131105,-90.4158209224077893395588,88.2352374608216507567704,-367.180326541756244296266,-221.465945420868393966884,164.336446720415523259362
0.197500000000000008881784,0.886558581141722812368755,0.725855646089459516367981,-0.0591688673650179047802666,0.574166439823314500578988,0.133503011816920341692239,-0.018620841023731904417815,-0.00287909649587624787495099,-0.00133416264925575924621404,-0.0143987830615662816546863,0.999891089476831251836586,0.0196709047259610927960161,-0.0536850158674984923035112,10.8178222397754737471587,-0.0774232268840814308319409,0.360554842580536549778714,0.911658006359951866848235,-0.0638002161779612081415891,1.75208553835239633222898,0.395279380669015134586175,1177.78251263363767975534,1198.66223430717900555464,1190.91216666002810598002,1188.44551262925892842759,-39.5154016623109427541749,67.5111515566640605356952,-927.557071427417326958675,-36.8801316800272260820748,164.329736864695661324731
0.20000000000000001110223,0.906287521468428836080022,0.940275965692426218822675,0.255236962180550475132179,0.5785471051798293240509,0.136187619615731309030693,-0.0168149917109726848574169,-0.00219991455794970106052411,-0.00112894595277639826422234,-0.0144036737611772068523575,0.999893106097037076551715,0.0215593922354374578631564,-0.0552804239566736244082534,10.8145303763647699923922,-0.077732492637642341959392,0.362144141784641715453574,0.91378789304408425397952,-0.063978385804121698510194,1.7530023123639011384256,0.3975537132541768770011,1177.76098451064081018558,1198.84617065091060794657,1187.84441134331564171589,1188.59995418024527680245,26.0392397683972127708785,94.5500911630460052492708,-1245.5173387369075044262,139.45553899934554920037,164.321567063966199384595
0.202500000000000013322676,0.774677548580589458993018,1.04431390488472608524262,0.475973055370560338417363,0.581898813183839513918372,0.138904429138006851873754,-0.0151706142406916374282266,-0.00153171834477647760518193,-0.000931207815812306574816681,-0.0144191548509248063103527,0.999894419071800211185064,0.0234442337979082759957805,-0.0574370533937920146883016,10.8111922437055358869884,-0.0780153863369248273818002,0.363689250131108143815339,0.915918457452303713672848,-0.0641552141413342519316032,1.75392040509001878589856,0.399837788806215732595462,1177.91270883247966594354,1199.13498476299423600722,1184.68457996634356277355,1189.14279032425565674203,89.1423122944615045071259,169.604832136474072967758,-1283.06448470939244543843,271.405664228904925039387,164.314669179862761438926
0.205000000000000015543122,0.499808433202050483856738,1.04849146696820438862119,0.641070336135988738668345,0.584467046090272779323982,0.142156250090022834298153,-0.013531291474526162266212,-0.000867682799007427432193273,-0.000741903580049898983377055,-0.0144443813338349224401069,0.999895062072702733857454,0.0253099806804843036056596,-0.0600497665983161510450117,10.8077953929266747934435,-0.0782718473253128238509291,0.365202120273604768918574,0.918041281365897465782666,-0.0643300883679426560579628,1.75483946089160469661294,0.402131722509603606319217,1178.20669607211311813444,1199.69419481159297902195,1181.42908891976867380436,1189.95698250138980256452,148.044959238495579256778,319.414822032785821193102,-1338.17323914263283768378,371.344115091005392059742,164.307687462427480795668
0.207500000000000017763568,0.0415572527677818340241522,0.923937419758104616640537,0.771627819504216549972853,0.586148250287022998250563,0.146377485651707883729244,-0.0114182778527500243537229,-0.000204648284800393971336052,-0.00055748384111463215612875,-0.0144743473381886006423613,0.999895124180226746446465,0.0270500079339279636547744,-0.0630886228177705149500198,10.8043501421832495168474,-0.0785073439803992551011547,0.366688117777809297059832,0.920150234145925560724777,-0.0645020085378642388240777,1.75575925815677491570455,0.404433050539396099498646,1178.65293362867214455036,1200.73205887315816653427,1177.99371377063039290078,1190.99951089971068540763,169.901113789092846673157,433.976903301210995778092,-1114.2101511720336475264,357.456270458489427710447,164.299222081223774694081
0.209999999999999992228439,-0.407568287577679433386635,0.715201822002458187377272,0.824215214637053605883921,0.586060947215508387664329,0.149698422384285684261229,-0.0093907720283733283478389,0.000460214089435206008191215,-0.000377977432101631971410327,-0.0145030860289115347272482,0.99989470147829984103538,0.0286398049852177802310216,-0.0665219819421790509172965,10.8008876490476275478159,-0.0787201507798757499356768,0.368151823168652136963885,0.922240541813421077499413,-0.064670569553934700857134,1.75667934421042737369589,0.406739860631245009336965,1179.05620164105857838877,1201.86407932809902376903,1175.8580381639085317147,1191.74426385368224146077,163.347296037955715064527,483.232786369401310366811,-655.91438480701378921367,241.625965989261430877377,164.292101103726054134313
0.212499999999999994448885,-0.870658207901963354657937,0.421871551934798805216786,0.82010604615726967470124,0.584247510139117687266719,0.151986759588828568290353,-0.00718327976289379055430118,0.00112623671375744775421945,-0.000201511786076210744995604,-0.0145261849396013352497814,0.999893864548433652927883,0.0300192528465879557297846,-0.0703843050675552472927876,10.7974600189089375845697,-0.0789127559849172460770816,0.369590606464367643635427,0.924310361694401061427584,-0.0648370629797764691515383,1.75759865890240885022422,0.409052312404550200142239,1179.46967010886191928876,1203.14822280500516171742,1174.71414184659533930244,1192.20764072965698687767,189.590012943290105340566,561.676749441221090819454,-267.187228522561554200365,131.349946736099695954181,164.284918047090457093873
0.214999999999999996669331,-1.37740077259396698217131,0.0240893863500061811144803,0.755430915765147426021997,0.580268973282787259293514,0.152548041671809242458835,-0.00446020243023236180601732,0.00179263533774055979982953,-2.41080567010667309489017e-05,-0.0145380906407559361975812,0.999892699353857494770637,0.0310874511924657814798678,-0.0747015413325442384495645,10.794138451572759862529,-0.079090061957315327401119,0.371001120504050707626931,0.926358167982263891460093,-0.0650029069122423641680086,1.75851730536113226577299,0.411370697657313877382279,1180.00415170577502976812,1204.67246307530513149686,1174.52210202129572280683,1192.40101358736274050898,211.238739818190680352927,531.641258117951565509429,99.6353461283887611443788,27.8343409739136156133554,164.276234525320944612758
0.217499999999999998889777,-1.71757099387242107013662,-0.301446625658244482526271,0.660396236927422775053742,0.575634617341788445976647,0.151040812211443858936732,-0.00246133026282062622805413,0.00245891447840681674416596,0.000159887255872952216417815,-0.014535476751991403474018,0.999891258023030138346599,0.031711234932202597702755,-0.079480149400908806089916,10.7910114655347175727229,-0.0792609776957830525212501,0.372379370846268320516259,0.928382400990719003353036,-0.0651691915885308920008967,1.75943648287099496663188,0.413694352425929556815731,1180.52586380795287368528,1205.8064290955949218187,1175.21231857723728353449,1192.34681243452655508008,236.203632247906881502786,411.545534986634834240249,390.985482190262359836197,-21.7791874977592492257372,164.268950855618186324136
0.220000000000000001110223,-1.93676461207627248484187,-0.579060395414777384637262,0.538683730361519508278434,0.570113693668232279776475,0.1482683334187699097928,-0.00104519060130790699021663,0.00312593206437062395147697,0.000350659082297750718162227,-0.0145177398395209909104375,0.999889548864165256247816,0.0318787613582938583745019,-0.0846803834237889602176708,10.7881819166784538310822,-0.0794256131447427654590498,0.373722759132257276171174,0.93038159840218492835362,-0.0653369236104482109528391,1.76035753007247142143399,0.416023597125825650433484,1181.18516986701456517039,1206.73019075023830737337,1176.47702943224703631131,1192.29211764987394417403,331.184200405322997085023,367.471462964067200118734,599.289301123416748851014,42.1446239253782195532949,164.261624992075866202867
0.222500000000000003330669,-2.0406818575774607893436,-0.838744350543776828743603,0.383415405889614757661832,0.563409990732617105280156,0.144883798688956261235816,2.55758843047406244546396e-05,0.00379467488413030417521155,0.00054413526338111006027537,-0.0144851274694193492970085,0.999887567732011040000373,0.0316735488330707054549507,-0.0902423903208182665025561,10.785765120834998498367,-0.0795762342442125764074845,0.375028222078084949586696,0.932355004461998815301627,-0.0655066683576916580777905,1.76128140090616858159933,0.418359267388052846747826,1182.18178480997949009179,1207.6437864104152595246,1178.20876508285437012091,1192.55753555415344635549,401.553140201803785203083,323.928564334800910273771,608.261623963016404559312,195.683297540244723222713,164.252793442385780053883
0.225000000000000005551115,-1.9943690223342269707274,-1.00054294671307242303726,0.260639623461643765711671,0.558132036403421460946106,0.142517801724906773008783,0.000545821943341297157598069,0.00446611061981215615862562,0.000735793763280430065422399,-0.0144427027991618946167751,0.99988523983423616137145,0.0311922220241803091478339,-0.0960896659799929386824857,10.7838869462611235405802,-0.0797076005939796883303927,0.376291532967275466070589,0.93430208639901701772601,-0.0656789664733361533421885,1.76220802256750475045521,0.420702519802649277380624,1183.19293556802358580171,1208.34983357191231334582,1179.51833755206212117628,1193.2705341375751686428,438.134980764652539164672,304.2180617851497004267,442.248202333439223821188,416.439480286816944953898,164.245406205726595771921
0.227500000000000007771561,-1.82036749593360913657136,-1.1244842463120665598808,0.157843366686856528824379,0.553178611470071857070252,0.140542752142914006974195,0.000870407643064798151183448,0.00514322737520062078786509,0.000920875624123347006483309,-0.014394744128036495584011,0.999882495184537756216514,0.0305397008649017573378437,-0.102086181245000004458312,10.7826810326103519344088,-0.0798136926118126616147563,0.377512394966077857727527,0.936221071263192428091315,-0.0658527005417825495037221,1.76313708292060855598038,0.42305413663942043056565,1184.37245971380275477713,1209.16487671934100944782,1180.42000609452156822954,1194.63973295558753306977,493.362199267948653869098,365.868454354449227139412,274.667540061363752101897,655.891886354810935699788,164.237997818299987784485
0.230000000000000009992007,-1.55360681754319185365887,-1.22928899753842313380403,0.078712200307520741038303,0.548627408480016121039569,0.138553562805234703469992,0.0011266131363467648748844,0.00582408634775818164625028,0.00109821904221425042935678,-0.0143460761087139399005963,0.999879275703513537010281,0.0297488829188758685528882,-0.108188209326991774394955,10.7822868515542715783795,-0.079896098786206765085538,0.37868152633452206723419,0.938113876742766805705287,-0.0660260949305998684488728,1.76406782537429807078411,0.425413548084156045714366,1185.65974656436333134479,1210.17917584368456118682,1180.89167525236894107366,1196.54999356934922616347,531.531260665587524272269,464.718121093209958871739,88.2996008616827623427525,868.950662528776888393622,164.230577645705551503852
0.232500000000000012212453,-1.19765484761448171013853,-1.31557103497790328638928,0.0352670175577363687047239,0.545024870486093715449272,0.136073105717131687120158,0.00130828530015506916232837,0.00650618983296622887396721,0.00126589445665551704987839,-0.0143014942030039154258203,0.999875529111314165220392,0.0288737415223585189294475,-0.11435054917717928091303,10.7828454183781552444543,-0.0799557352914789798425943,0.379789330331022856324097,0.939983765159886797135869,-0.0661977971169866036271756,1.76499872985118488877276,0.427780238964105219423573,1187.03011601713069467223,1211.4884673248070612317,1180.86150409882998246758,1198.98448626823142149078,611.160523423176869073359,630.834614041668260142615,-103.918306546802256207229,1140.0139653288524641539,164.223150192167139493904
0.235000000000000014432899,-0.70470578975073061567258,-1.39055988588393808491617,0.0339586923872934529078371,0.541987697909235954796259,0.132186023451425688213234,0.00128307900204894208273654,0.00718679431135177144290838,0.00142354198699206897608949,-0.0142629052774903702927034,0.999871247026635656673932,0.0279387771743362725573867,-0.120523342105363806542329,10.7844960850557480824818,-0.0799950563541412251744589,0.380827072260462029529293,0.941834961354940158884119,-0.0663666752301574763839298,1.76592908518445557142229,0.430152390567271614152389,1188.71554918147921853233,1213.3333489138929053297,1180.37208371963492936629,1202.25006339599349303171,618.780041010585932781396,694.293367376894252629427,-230.798112254796961906322,1212.40364928112171583052,164.214236993123648744586
0.237500000000000016653345,-0.270516664671209716708233,-1.42017886748823585207901,0.0819956622277966673539851,0.540582198398469992994819,0.128403625245845809388356,0.000971967192596485431155262,0.00786286211050823795332132,0.00157517534276475912324855,-0.0142307774402915861861052,0.999866441354515966821737,0.0268785073534128574057611,-0.126656765891576594817991,10.7873732623991749335346,-0.0800242244568629829126749,0.381786562178795696453903,0.943672303251333666196388,-0.0665325955364169802086494,1.76685888294770343520668,0.432528540509840464522995,1190.12401622218362717831,1214.95993416169153533701,1179.70751353755599666329,1205.04650451463703575428,559.838239005969512618321,624.518527346620658136089,-293.069218006259234243771,1087.58406142301782892901,164.206814283887950978169
0.239999999999999991118216,0.146758783652017416043734,-1.40853100287456611816594,0.184736861956027065279073,0.540450359091904974917497,0.124813792007780560711083,0.000652560961804458505158832,0.00853017769402757662644543,0.00172637464025560648239743,-0.0142042082257976924608567,0.999861149483803779425273,0.0255978850565528187610553,-0.132722703986652645902211,10.7916024467472482228914,-0.0800555674840506409362106,0.382658597145450973808778,0.945502170629841653948233,-0.0666963097107191593693187,1.76778858171666608534167,0.434909596801806241916921,1191.51474037650905302144,1216.45594155062599384109,1178.90673762960364001628,1207.68798370310855716525,606.407491682332988602866,576.913027412822884798516,-362.537421296430579786829,1080.54623266808039261377,164.199401966277662268112
0.242499999999999993338662,0.577860382683437423523287,-1.34517624584674666543549,0.364297816777728544757053,0.541779375857829315066283,0.121140048137818229223583,0.000728176884537497150912122,0.00919060535375344246633578,0.00187979935325372892601647,-0.0141805257984113398939119,0.99985538963632925035796,0.0240661328101714200311534,-0.138560607015456888069238,10.7972961090645451776027,-0.0800946635573557136345002,0.383446980264358361356614,0.947327393778239823518561,-0.066858084892970043311422,1.76871835562454160495349,0.437298335195162257704737,1193.15605368059527791047,1217.84449929875563611859,1177.89482643107385229087,1210.44923567797741270624,598.816065209620660425571,412.743066091206515011436,-370.019697601764733008167,915.795549482162755339232,164.190524165475949303072
0.244999999999999995559108,0.843934313681604320045437,-1.2498745911592388235789,0.547172747025380878937995,0.544060854824042094968206,0.118415743274652207617237,0.00144111220654740096284996,0.00984801349570170111991096,0.00203830904867126306775904,-0.0141536454674774398593273,0.999849212028273370833631,0.0222493607358211081814758,-0.143970385688363983200944,10.8045509859238677563553,-0.0801446589814354820591191,0.38416124247517885459402,0.949149941195718160891204,-0.0670181024635840838499234,1.76964873117691201542812,0.439696405725982619738801,1194.50882070255715916574,1218.51965688108202812145,1177.05663914159481464594,1212.26696145051937492099,543.095625682235095155193,152.940895539222623256137,-327.279144015119243249501,599.092124270509316374955,164.183143058746821907334
0.247499999999999997779554,0.97838363825839258502981,-1.10374234357020739594191,0.740563744371626642148954,0.5472445376797311356043,0.115629124535347210800396,0.0030382590663551875889703,0.0105058571496235101522254,0.00220354864972680843104857,-0.0141187134159361949575784,0.999842656369895221857291,0.0201416064060995630979889,-0.148767272412124673675038,10.8134447780553308859908,-0.0802068143042619086102718,0.384811645472697416714425,0.950973336891612230914461,-0.0671769370873311622016644,1.7705785870995571773534,0.442102789353849612297154,1195.87153180900645565998,1218.60920377645174994541,1176.25843071099825465353,1213.44469629932996213029,610.313068978893511484785,-89.3139563975636576742545,-333.558796637089187697711,350.287675713434225599485,164.175782320450764473208
0.25,0.963810075592899551111259,-0.85800531057801665557605,0.953876769219712428160562,0.551408105357512501321082,0.112008665335000881513317,0.00594197438771102391663614,0.0111640622913310328528924,0.00237705500113272226794803,-0.01407770498434071995697,0.999835698734712563506832,0.0177424279134286017045596,-0.152852476348724231058895,10.8240332579299707305154,-0.0802866055961305724597565,0.385402543394665952902756,0.952805293021474541959037,-0.0673354713048862629776181,1.7715049658515553687721,0.444513956737147386544251,1197.56038604745162956533,1218.07308709909420940676,1175.38884515840936728637,1214.01839982908654747007,633.356744846286687788961,-281.909156233541352776228,-294.158181411148405004496,67.5186808145553527538141,164.166975102674683739679
0.252500000000000002220446,0.802547654894974815675823,-0.590793146783607392436011,1.09663487196572106974202,0.554834420835904396085425,0.109118568417586173091571,0.00885066213707468713023374,0.0118223499757697369377807,0.00255777188021494945521783,-0.014034796634544047938542,0.999828289892355948076386,0.0151078474150962149824551,-0.156144888022668154592409,10.8363476171240069589885,-0.0803855499599713529956801,0.385939407002549472736064,0.954655603577496125744517,-0.067494396380103946486706,1.77242579647616071980565,0.446926837310057667451701,1199.0383155332378919411,1217.19965799528404204466,1174.78763980394251120742,1213.78228970340273917827,606.565657706050274100562,-398.320841945223605762294,-197.553141932985283801827,-229.047705115135414644101,164.159658246516414692451
0.255000000000000004440892,0.503752199818550572274489,-0.269268079458294118389006,1.18735895594368345840053,0.558069061870985594353556,0.107296153291351045733215,0.0117863181127618940613466,0.0124808688754235869167175,0.00273646276585627580210658,-0.0139915963503116965588324,0.999820427139421541440356,0.0124690594285018704900914,-0.158569295611844268689694,10.8503923862022588764376,-0.0804869193521485920550518,0.386430536849529326914876,0.956536106636701410899093,-0.0676535201957526727278847,1.77334027529207927109667,0.449339530135761999751765,1200.593214335981883778,1216.08148288936808967264,1174.40107944874444001471,1212.87316130351086940209,629.087640990837257959356,-455.648367584171467115084,-104.22146229993803956404,-451.735980052853449251415,164.152365997482945658703
0.257500000000000006661338,0.122204860394743805573903,0.0770280393477182911965429,1.22765837379286701924741,0.560415244947386925744581,0.106719498929490397287623,0.0147373508117766838232399,0.0131384025575024994403339,0.00290756065348050192140295,-0.013948761382206223760627,0.999812126405340118040499,0.00997574215377872164367545,-0.160100672431514712279466,10.8661457203803308857459,-0.0805796629125113406111325,0.386882418424137675128094,0.958459541503059786471397,-0.0678125580473640798828683,1.77424761643053718884744,0.451751943639887632020447,1202.18375373819208107307,1214.92141615736318271956,1174.26653249244282051222,1211.5236098031384699425,629.953825523943464759213,-441.582430034122410233977,22.4704438928256209351275,-603.018855033769227702578,164.145095209275012848593
0.260000000000000008881784,-0.297159835590833698582003,0.420034115535805496755017,1.2005304603884132674807,0.560413899367869894341254,0.107407603688753211512719,0.0177750080661666434722612,0.0137924607993709785747072,0.00307238703950288164282179,-0.0139047866853638634604406,0.999803422640713757019171,0.00762391934146853383902354,-0.16076464426650732830737,10.8835596799922225130786,-0.0806638608600584589014559,0.38729922185060594586048,0.960438076788705519248879,-0.0679711716885299660484421,1.77514795340269904144748,0.454165169590829531642839,1203.74298346360160394397,1213.87357073919747563195,1174.51343166820856822596,1209.85806702834202042141,650.894277461838441922737,-408.153244714639754420205,208.130778402710149066479,-736.769896578743328063865,164.137851754688540495408
0.26250000000000001110223,-0.748358962496825874666229,0.783149150926640169601001,1.08361461185658858319414,0.557475955901716724305572,0.109508099958478571922527,0.0213262224707367747944531,0.0144499834161112370584101,0.00323117317994982234871659,-0.0138584176937325311007587,0.999794220818127521432928,0.00542516727472134446808028,-0.16040170633620814966136,10.9025610920141335924427,-0.0807375153024037645055344,0.387702471752971011831335,0.962475330995851030557731,-0.0681290071776595035357715,1.77604259034487799162605,0.456581648875141521415344,1205.43822512550127612485,1212.88064993378998224216,1175.30718638445637225232,1207.83976032024474989157,567.86331778916928669787,-311.117194771622678217682,373.792480703786736739858,-688.904911901908576510323,164.129193353409931432907
0.265000000000000013322676,-1.01800240268012287536692,1.01527582060392762564049,0.913708850330369082293203,0.553350037732797228606785,0.112186282854622398907907,0.0241578489207924795856286,0.0151181634900643332986014,0.00338489542064051955605475,-0.0138099188963935939206129,0.99978440003777901967652,0.00336917217716758282675116,-0.158865388422005815449722,10.9230531917279574116719,-0.0808007725487172173695072,0.388112644099409653808408,0.96457259806406270286061,-0.0682860692573983157904749,1.77693328082570012327324,0.459004407638635258948057,1206.5823000525474526512,1212.31798476533936081978,1176.38239407172750361497,1206.41354246883247469668,373.717709459196726129449,-167.705597837766475777244,506.63427274180276072002,-458.296276179361996128137,164.122007919290723521044
0.267500000000000015543122,-1.12951278759649165195356,1.14572011515861982289266,0.671382958432680920779489,0.548370969334420532703689,0.115575255068477780739933,0.0266778181891486332322216,0.0158020220396294513998114,0.00353349266336112520156543,-0.0137624188394364355136901,0.99977383420843601857797,0.00146334189361222583025679,-0.156072783671247716785757,10.9449178113295992886833,-0.0808533748426651516227892,0.388543941318112040494981,0.966730778628672404728661,-0.0684432209445435535410951,1.77782223993232024739086,0.461436075243513432742049,1207.3068136727972614608,1212.04212194460114915273,1177.84035774816538832965,1205.54827893934793792141,200.953119579707902175869,-55.4115196676775170203655,712.099223875247162141022,-204.411846440552665171708,164.114855933148987787717
0.270000000000000017763568,-1.07196837713552683979401,1.16579405766132393473811,0.311461401478477284410218,0.542606529747271193464542,0.119957146883822141081311,0.0289064406712369603713597,0.0165053369324532107909054,0.00367881308904448832419742,-0.013715938876189054038135,0.99976245463943536062601,-0.00033432467077913752273588,-0.151984161708367510046358,10.9680184184933047220056,-0.0808959786309735584541869,0.389006816026828794452541,0.96894937428461791473211,-0.0686013028708220840012899,1.77871134594377200421889,0.463877706843168591266391,1207.58706565044599301473,1212.04092716700097298599,1179.94289019110374283628,1205.39148323662971051817,3.46460204882532396553074,55.3591488742312733961626,814.623995007695384629187,101.255747316827097392888,164.106315422247746482753
0.272500000000000019984014,-0.890374455054909752504955,1.06669867139341145723108,-0.0261218043657125698064903,0.539094197262792285130217,0.123626053463608290283737,0.0297415113512722491251328,0.0172240913636149232945893,0.00382371203825034944659422,-0.0136696827099587279313875,0.999750328176896463361345,-0.0020929732358973829331461,-0.146744255190117245390979,10.9922028152251662902472,-0.08093015758393933001269,0.389495124606362874697396,0.971232149186940119101052,-0.0687603626595977290847372,1.77960134164144312407529,0.466330081025527920512985,1207.32413668304138809617,1212.3189176889723057684,1181.9134777232038686634,1206.0545576759320738347,-191.072234692546601309004,171.900512151660080917281,812.788445668547183231567,414.603159950956637658237,164.099235855530480421294
0.27500000000000002220446,-0.628226529979261316682937,0.860438225863384475999851,-0.36961091553709202184308,0.537984675583078053584529,0.127049530808599042686069,0.0291416681907317419442105,0.0179466484918120901259631,0.00397055328998166361109678,-0.0136252480841736224592697,0.999737618081006362835694,-0.00387432904525229770964501,-0.14067706674122903987012,11.0173062171203142156628,-0.0809581418245309686332334,0.389986278117626594674761,0.973587788691700262155848,-0.0689209209523292815058326,1.78049175871935538850721,0.468794095065389271326239,1206.63170447698325915553,1212.90042972775927410112,1184.00683241944648216304,1207.46449903638449541177,-368.616977124292702683306,328.524254048397494898381,917.510761485890839139756,741.644155894072582668741,164.092198760978220661855
0.277500000000000024424907,-0.292643783269725954454543,0.526521150126586290340924,-0.74643473227918166745809,0.538640929285053027264496,0.130022048229358894166907,0.0269474258532945640243206,0.018663813405636286296696,0.00412333477830735973396203,-0.0135829010455642690269329,0.99972446283571225755793,-0.00578289191415268244433889,-0.134064732580726875266208,11.043154307439870365215,-0.0809847500142694687319533,0.390461701477649913982759,0.976022358379706855835423,-0.0690830336610388506812797,1.78138215099471430846734,0.471269755971063852850733,1205.48105179741992287745,1213.96153895921429466398,1186.50103153063332683814,1209.76277845540244015865,-448.349399058860910827207,447.429402421266388500953,880.75779764831088414212,889.946116771260790301312,164.083807955736858730234
0.280000000000000026645353,-0.0314540748960261407063399,0.217393303125913234241651,-1.00441441539938547400368,0.539506575914477370936595,0.130706752354580152397645,0.0244118788357256151499985,0.019369958427541196510635,0.00428360129842377500286599,-0.0135436137554656166326339,0.999710945648195958845861,-0.00787383583340938580930057,-0.127118771647488831844086,11.0695649699883702510306,-0.0810112627499561949173668,0.390909330330210635917609,0.978539661514905234618311,-0.0692464622189919026817861,1.78227199703522232177022,0.473755328284102050773186,1204.38995748168895261188,1215.13757673986560803314,1188.41062140768804056279,1211.91422962024080334231,-439.967833060427039981732,519.729583330217337788781,684.926789018799695440975,836.873410845873081598256,164.076864106766407758187
0.282500000000000028865799,0.19254427318105360456002,-0.070006977428954564324215,-1.18074661009279013867967,0.540109945220232479101696,0.129329410455956528291921,0.0214536589472956729096609,0.0200626861717403508211799,0.0044503050184708133063527,-0.0135084993630751760279596,0.999697106904519960934863,-0.0101473340167271205980448,-0.11998523117024256778862,11.0963497797129999611343,-0.0810349822988652018773692,0.391323497125074082347851,0.981142004620182639484938,-0.0694107405172885022492935,1.78316093018842303230542,0.476250408360823607178958,1203.28121263211778568802,1216.56018687586538362666,1189.92566547572732815752,1213.94714550963180954568,-436.715484825890200681897,594.427008644515240121109,506.881823775347129412694,742.914993248859218510916,164.069975511933392908759
0.285000000000000031086245,0.383384853649771206729469,-0.309387078085023803364351,-1.27693907426302555307984,0.540616293971708294918699,0.126958607890642394266933,0.0181305204203724944223008,0.0207411884433357888990468,0.00461937113714529831026701,-0.0134789449099119475194986,0.999682972504392974855136,-0.0125352556348691940302231,-0.112779012137776107893572,11.123315296686484998645,-0.0810486392968250285440135,0.391702081311453842449311,0.983831851631236209421161,-0.0695753098163793548547318,1.78404827662280296429742,0.478753845984877912655975,1202.20638005755949961895,1218.10971178308818707592,1190.94503052656477848359,1215.62880458648510284547,-416.891611959999465852889,626.007373668834929958393,253.731524885324461138225,545.928600769502281764289,164.063136789075855404008
0.287500000000000033306691,0.533288186465690317028532,-0.480536880843639879756779,-1.26712413350236574594021,0.541183010074802739453048,0.124564666413370966902008,0.0144042380243984777937749,0.0214078187839828529281938,0.0047882724553236569176029,-0.0134549259269971209496131,0.999668523180102130964997,-0.0150009374751140789339132,-0.105549020348657734968967,11.1502644112929090169928,-0.0810483872348482237146783,0.392050011034342560378718,0.986610037282590446316988,-0.0697389113420628370398902,1.78493374928924009026332,0.481264681580955144823974,1201.19675457231778636924,1219.69022374420956111862,1191.19432310015395160008,1216.67678851347932322824,-423.783767787885835787165,670.510532218766002188204,-95.8947124554025123188694,297.144377677753539046535,164.056363589075914433124
0.289999999999999980015986,0.65709285066663791763375,-0.62592562207118151995644,-1.13154528976036017340334,0.542057027054610784944089,0.122432285988260225462199,0.00988834818267932472157788,0.0220649302304023672838262,0.00495825851963983040698869,-0.0134345086446103732791268,0.999653753427165225886597,-0.0175861677586888476287896,-0.0983479198432649359684632,11.1769979274105892841362,-0.0810379135693504448756386,0.392373259622921022327091,0.989477861368517896956121,-0.0698996904336277313785075,1.78581674466161488545879,0.483780946573530545862241,1200.08746121862009204051,1221.46226444418198298081,1190.46555696428777082474,1217.1145264748738554772,-381.017706458946349812322,609.339930095172235269274,-442.260150579072558230109,37.5361746584534756721041,164.0483190937427764311
0.292499999999999982236432,0.698294571378730855037986,-0.724098442635225048036318,-0.925577560059051229757188,0.542962136846767418063564,0.121324819754021706597058,0.00680050857291929471831748,0.0227100344845561248618981,0.00512969893035879719034309,-0.0134188108572203465551631,0.999638725694012908462582,-0.0203021297952416177046153,-0.0913376885847914099514355,11.2033167783916969284519,-0.0810226390841067706238832,0.392668694964179054718301,0.992441294209515434410207,-0.0700564598228826523884649,1.78669568875852569078688,0.486299952638879928734639,1199.29166604002307394694,1222.73692339468539103109,1188.98302234725861126208,1216.86446938677158868813,-271.11534554028344246035,452.717996204682606276037,-757.470348511923702972126,-190.057178631968611171033,164.041690742060524144108
0.294999999999999984456878,0.645132948953960672078267,-0.83014779379627667843522,-0.647695080457141414420619,0.544287560021672889298827,0.120621496496395891329101,0.00497458464420292949259572,0.0233421253105659358417778,0.00529673906123734501705247,-0.0134104246597378275185353,0.999623478670582765737151,-0.0230099098062722523527768,-0.0846464850095398346763176,11.2290242035241778495447,-0.0809975404182416425236113,0.392936835482105228933847,0.99550615573143008685264,-0.0702088732053615383055245,1.78756861016037404965573,0.488820724889177493643899,1198.73188449091867369134,1223.72585442520539800171,1186.67820522172814889927,1216.16424058171401156869,-156.113818400899475591359,364.207020915773341585009,-1156.80615305736750997312,-359.709312828908537085226,164.035148019776897854172
0.297499999999999986677324,0.427023178071498143992812,-0.985918213981776370147259,-0.265686308553923444808476,0.546617105167352956840432,0.119668067694818539004054,0.00390540886347879711432141,0.0239611483281318357607681,0.00545798150191165783867708,-0.0134092960954805794082656,0.999608042081502889963929,-0.0256596633999086193300698,-0.0783825640702143500160304,11.25392935702269170406,-0.0809648953536740850767117,0.393180760891262859324513,0.99867596696454374871621,-0.0703573084141493609866558,1.78843374193713278152984,0.491343081161545292001591,1198.51109694801857585844,1224.55795849926425944432,1183.19899158197176802787,1215.06592282262704429741,22.6838664088972805643607,251.435751375811150865047,-1343.26855092976870764687,-411.97791511790421736805,164.027404588180132805064
0.29999999999999998889777,0.08610451438598913653788,-1.1358179964628434266416,0.0695779238177835768208723,0.54889574967581344910883,0.118298789396361112014056,0.0034735593540149004888884,0.0245676004894998765981651,0.00561636792097797415274085,-0.0134137072055072574527923,0.999592432066820135716512,-0.0282881900169868472083579,-0.072641012480676725449058,11.277851308081544345896,-0.0809344023524158767690651,0.393404536893366185701382,1.00195123004440977965146,-0.0705030983295582835967963,1.78929092902439523804503,0.493868596250351510335008,1198.84530382296316020074,1224.9830331820844548929,1179.9618624670792996767,1214.10435100612448877655,268.837828529694661483518,131.313192679271992346912,-1288.05805800075063416443,-366.510315252798704932502,164.021048249832659848835
0.302499999999999991118216,-0.437667300084962129780308,-1.28122518705102494962489,0.394805264262127308949601,0.550693897588036995749405,0.115806144111801193052891,0.00339786973490507687375994,0.0251627782147999939921235,0.00577263317853293767001333,-0.0134204711308432630967324,0.999576677211882813622879,-0.0308724243163206041318247,-0.0674936039202996829189374,11.3006236091138685395663,-0.0809098076091558648936797,0.393613115890921738682096,1.00532927635251723152976,-0.070647073368176049878997,1.79014164374053441619594,0.496401287394370172023628,1199.85528609066705030273,1225.21452446266061997449,1176.75870129196800917271,1213.23337124636304906744,614.481005153538148988446,88.2267170515205236824841,-1301.39561908081191177189,-348.134757496290774270165,164.014800320494146035344
0.304999999999999993338662,-1.25743903197473239075066,-1.40505377484074811533787,0.732896420256310521246235,0.551060121427989990650076,0.111238183573347707011614,0.00444710565564907824021024,0.0257464084678161626851267,0.00592576194500289178679342,-0.0134286404002518632710972,0.999560822879119625916644,-0.0333380609710380443333477,-0.0630389954742403280096852,11.3220997624027894801202,-0.0808921948034206500510734,0.393806337617484125690481,1.00880548663037727941116,-0.0707893107696716122889669,1.79098812317280953188003,0.498944636627638160586429,1201.91770884873085378786,1225.42416676734205793764,1173.4548843716752344335,1212.36367721864303348411,892.221711421688382870343,92.5212570478378495408833,-1048.98175902662751468597,-289.408307099210730939376,164.007438062049800464592
0.307499999999999995559108,-2.05326683454046587939956,-1.43426296717983414730213,0.933462101330254534481412,0.548528429420226837365249,0.106420996020965510919787,0.00673954942594339693334726,0.0263187459182918845335131,0.00607662484813046698678418,-0.0134369082058762735060187,0.999544892945741558776263,-0.0356451345605692387907837,-0.0593537261300098040184281,11.3421579743889200386775,-0.0808853262774785475297534,0.393983009471927159150795,1.01237099964958865427889,-0.0709299355365830136443961,1.79183194918181620813868,0.501500706989502220700672,1204.31639464777549619612,1225.67713074789980964852,1171.5137924968348670518,1211.78632971086699399166,1074.43273632588807231514,148.278194035583368304287,-533.375739573602459131507,-207.086319874087905645865,164.001423081034999995609
0.309999999999999997779554,-2.88047316498382999228056,-1.36586937824323118029213,1.00350334705643762234217,0.541838550818591446756045,0.101528712113475264033902,0.010457009744367851827862,0.0268827612335582957769908,0.00622436266067392680173542,-0.0134427077488930915571963,0.999528866584614150703203,-0.0377096744212048889943745,-0.0564381258587115242075782,11.3607052015105765008229,-0.0808875692769664977888056,0.394145526475068286309522,1.01601183122559657334705,-0.0710696320165366129950613,1.79267392835966665742831,0.504071439696147094444711,1207.28987253036029869691,1226.1655577375199754897,1170.7880056738072198641,1211.32824561927259310323,1252.6213262458884400985,251.373132415437567033223,-50.1714520706172635300391,-169.355293514172302593579,163.995542232927334680426
0.3125,-3.66481658103243157498241,-1.21960890741943561721428,0.940629548066287846097566,0.532213348856031776001885,0.0972247845682753936147336,0.0147184128078609102741048,0.0274424032679164466019817,0.00636475469016354981899308,-0.0134444462789112748057896,0.999512702751208292895058,-0.039367543557262685283149,-0.0542515604622741676177355,11.3776808351211542458259,-0.0808900179179564970954885,0.394296269601462467946362,1.01971107487441936534367,-0.0712086058737042143507168,1.79351495796577253827309,0.506658320606779954964338,1210.57950127900494408095,1226.93399640997699862055,1171.26293523648178052099,1210.93955324329613176815,1343.3691101943611556635,383.038369021869243624678,496.269373705672023788793,-140.886934764193824776157,163.989779913598994198765
0.315000000000000002220446,-4.33394634542112644481904,-1.00394170914973646091539,0.71256735362804612954335,0.520660553743171550244995,0.0941483770178579842946576,0.0185996221782886057838358,0.0279977368124059051990304,0.00649509396379697664936081,-0.0134410099717962652765557,0.999496446295891405320333,-0.0404867550181718660606833,-0.0528222261495983058665615,11.3930594576518995353354,-0.0808859778333371193248524,0.394427896650068832151703,1.02345283713540746717285,-0.0713472514563745635607361,1.79435599614436513959959,0.509263404787792750560982,1214.00671808133211015956,1228.08074958262932341313,1173.26935254233558225678,1210.62381094545162341092,1473.02915704894849113771,585.175598929981219953333,1214.21631150837924906227,-112.907892168823209999573,163.984169967953221203061
0.317500000000000004440892,-4.95955808419713584100919,-0.711537791568987998402918,0.279012752445422007596676,0.505872771665426990139736,0.0921016302930859620534676,0.021963650435092338386589,0.02854970698763697675715,0.00661340548105817001289797,-0.013432462914435864750895,0.999480094902614246699102,-0.0409542985756915917106014,-0.0521370689493109717993491,11.4068502183263476013053,-0.080870079348448836720209,0.394533379585492394170387,1.02721966703600919856854,-0.0714850625809426015733195,1.79519870770179545971246,0.511888884874238558886361,1217.94464706424969335785,1229.85987440462690756249,1177.33401679402368245064,1210.37501378245201522077,1368.99465650003435257531,703.832272480894403088314,1719.14212592714488891943,-53.7917287123490908129497,163.977627366769951322567
0.320000000000000006661338,-5.3233075421170035212981,-0.474565708387882645435951,-0.1681060650529009325993,0.493198776406435168695452,0.09152537291877586855815,0.0232141878992194773678737,0.0291013247460509862085676,0.00672361554035243256383092,-0.0134166499626490898916531,0.999463576889161653404869,-0.0407995081985599306051427,-0.0521159774257946573072786,11.4190947029274525448272,-0.0808466824719210191974028,0.39460950677363237915074,1.03099219195606672805354,-0.0716218217509121124475513,1.79604373356828128649454,0.514535527278688009644725,1220.85169136383228760678,1231.59991094503379827074,1181.86506317197131465946,1210.35485230188987770816,1040.42656096626069484046,722.408299695779760440928,1963.82480191691502113827,56.0335423838750514846652,163.972343321322341580526
0.322500000000000008881784,-5.52594539208619206505091,-0.275765186512206161850713,-0.625788235340283272023498,0.480186229753939652908912,0.0915248368296327219351127,0.0221171713250300078223987,0.029655559248741341499267,0.00682698054175870025495065,-0.0133948691928290203323471,0.999446792005945772174869,-0.0399986026014231693670453,-0.0526569172683208630569851,11.4298637141417209761585,-0.08081630203313203142379,0.394652906971883155051728,1.03475360498878510284726,-0.0717579474163377584172707,1.79689058281528124538795,0.51720150126860897632497,1223.14677986908100137953,1233.4719159031058097753,1187.15314080360826665128,1210.65518149437139072688,836.451835930619495229621,817.793695784438796181348,2378.17149254223977550282,234.257568972679820262783,163.967247017577847145731
0.32500000000000001110223,-5.59137681350247284228772,-0.0994844395922071939031284,-1.08655416447152042280777,0.464064662645503001048297,0.0914947340023488375759797,0.0176704053802939006767581,0.0302109273315037674123573,0.00692771612206396440042377,-0.0133688958105632697132004,0.99942974425690900286412,-0.0386058530262176347047642,-0.0537407693944059461355067,11.4392524756156053200584,-0.0807850728876465806749252,0.394652043862388557382559,1.0384937417744046772583,-0.0718940632140265267757684,1.79773753769151456438635,0.519883066876740795869694,1225.03395054348538906197,1235.68887942395599566225,1193.75592063468252490566,1211.52614014675327780424,540.60398781384674293804,781.172973564888934561168,2369.01338252764389835647,418.053674467045823348599,163.961365012071013325112
0.327500000000000013322676,-5.50565218122332833416976,-0.00877581715343274913754268,-1.33591600527855480784467,0.450664981063353842216657,0.0913887324385829202810783,0.0122359534209250803149516,0.0307640300959425468108055,0.00703021306780891776927467,-0.0133401879277884067437343,0.999412499441120094623159,-0.036693724937832100652102,-0.0553757639888007024975281,11.447373397980376452665,-0.0807585663402796277710038,0.394593296734989884555489,1.0422085044910494033843,-0.0720303758888300033058627,1.79858332792341690797855,0.522574376842403820475624,1225.84979980815023736795,1237.37778077093025785871,1198.99820771624649751175,1212.74544986670662183315,181.322285846681381826784,613.907608305179905983096,1940.65263582187799329404,593.44384003220454815164,163.956670802843888168354
0.330000000000000015543122,-5.28650082785644492844312,0.0220834470020139228552125,-1.40835408264155992341671,0.437805069662949408737518,0.0914371366675144486846349,0.00679488352380294615556755,0.0313132167158832255826617,0.00713952460965184155378127,-0.0133078346327746271232639,0.999395101340441960324767,-0.0343682751807905528806941,-0.0575178345847330574347467,11.4543478510584773033543,-0.080741561123152713608242,0.394469359070892644503203,1.04589720790575424480551,-0.0721671511397765919060276,1.79942657607491174331926,0.525270977509472936084478,1225.94056197271879682376,1238.75841746548189803434,1203.45918381379192396707,1214.49335934691430338717,-90.5754601998977761923015,512.703211337929587898543,1699.66081276106547193194,875.804524535896348425013,163.952208180173641949295
0.332500000000000017763568,-4.88529087117915050697547,-0.0111969353732356211028609,-1.2969880600406726856022,0.422928575758722224975372,0.0917891161335894073536323,0.00141585989082616847158091,0.0318513135209035763706353,0.00725559521822073238278561,-0.0132748132762753236896236,0.999377750215458937610435,-0.0316327524797875014872517,-0.0602387621616674306945782,11.4602996781755237520883,-0.0807303379642017038264612,0.394263576099861456913942,1.04956878584459256664729,-0.0723045517721834091195987,1.80026526837919242929331,0.527970262623290942372023,1225.39692250715074806067,1239.94129682761990807194,1207.49651178005183282949,1217.12447248938610755431,-269.142519037268129977747,348.509279068957482650148,1236.3330382032006582449,1030.5255888025831154664,163.947140228429191211035
0.335000000000000019984014,-4.44945785709580921007955,-0.0963450656678829231438499,-1.0671728756957747918932,0.411080164948482373876715,0.0922433642215214205650753,-0.00197533735900283806061206,0.0323707840648522482407401,0.00737265748737114812172422,-0.0132462315554414331031374,0.9993606717255593130389,-0.0283765818654736073911593,-0.0636126398003113158186039,11.4653469993461154530223,-0.0807101925179952023325924,0.39396089837379522080596,1.0532368589175782336298,-0.0724428783810728421643788,1.80109709405773177337551,0.530671416008124952057301,1224.594849377532455037,1240.50096386082668686868,1209.64084900480793294264,1219.64598729092722351197,-338.74965894656241971461,144.601230216357947711003,620.716043930041792009433,1041.22429206608921958832,163.943169646254062854496
0.33750000000000002220446,-3.93243581411368570144305,-0.232770566897623210067536,-0.743419813809857776831791,0.400379125564875315568258,0.0925248599056106568738755,-0.00432303242558403078010798,0.0328679335816235221323645,0.00748863902738845961526426,-0.0132285872171336218311444,0.999343926492810341599693,-0.0245925267207482561859777,-0.0676265714619355973180603,11.4695955132241618201761,-0.0806750760353999452068052,0.393556241843858845008697,1.05691379647057570601021,-0.0725823845322275534863721,1.80192033585294808517574,0.533373932460516231301995,1223.70317421241793454101,1240.66430297870169852104,1210.6000919997020446317,1222.33059394971655819973,-330.030881088032117531839,18.321509257475536713855,227.908643633372577141927,1074.47383938974689954193,163.939475480625958425662
0.340000000000000024424907,-3.37512564370366741073326,-0.3978203898138994443201,-0.382762115375163691766147,0.391188608297841911021209,0.092231323650566465754963,-0.00571547905254164712030018,0.0333417752998399555264264,0.00760418870734986922232945,-0.0132239180116188528857357,0.999327528707588563783304,-0.0203571344338180082456091,-0.0722111969841341128084622,11.4731344849247989259311,-0.08062166045530323732482,0.393052476628511060496862,1.06061049329660184170621,-0.0727238018820572651446099,1.80273401439685820868419,0.536077727676748883034463,1222.94469497209229302825,1240.59257140711406464106,1210.78039222297479682311,1225.01835648787596255715,-228.446939461309540320144,-54.4934984648988987032681,-47.8430368670614853954248,1051.06999030285714979982,163.936019645005330858112
0.342500000000000026645353,-2.8108432983486926204364,-0.572330798016918107506967,-0.0286148655409440427765944,0.384103096951678990578216,0.0909110966437099293768753,-0.00556097788762764579789666,0.0337954781125016368026337,0.00771659153947632566600268,-0.0132315356118261617801579,0.999311417985537020491904,-0.0156896377856484969814943,-0.0772085559058938442067443,11.4760340532456819317986,-0.0805379576634283611547005,0.392462746243701199322373,1.06433485595661725398031,-0.0728665045757517365609957,1.8035388871657063170062,0.538782968758661939823185,1222.56093951511138584465,1240.39183548637720377883,1210.36087681536673699156,1227.5859439012308484962,-47.8869909381955523031138,-79.7511965366992825465786,-236.876475361213834958107,1082.10334005316235561622,163.932860508107239638775
0.345000000000000028865799,-2.18058235915834552898218,-0.758344501745441101903111,0.329671344729257798089606,0.377935487488990529136856,0.0882600806459390846425705,-0.00377403037815552669029251,0.0342355088438734897482441,0.00782278594097131005358214,-0.0132470183881493331484736,0.999295474930050109385604,-0.0106197351954192692469192,-0.0823952151748083283511193,11.4783448217982968486695,-0.0804093264206252322789936,0.391808011962875735179068,1.06809078401510726408219,-0.0730096299967086942439565,1.80433570994836789402882,0.541492077714734953985953,1222.70526001740131505358,1240.19381542443056787306,1209.59600984616872665356,1230.42887318814177888271,157.44823176196391045778,-45.3213937852069221889906,-275.337530115029721855535,996.242866108649650414009,163.92942240579782264831
0.347500000000000031086245,-1.72743238116160569006752,-0.874247408528372793590222,0.541821130981495313605478,0.374472401263289178530158,0.085357484707616518293527,-0.00157245531427885765901609,0.0346665747827715961526529,0.00792458153210614385519861,-0.0132648743201565621346871,0.99927961390739827862717,-0.00530159684689281152092377,-0.0876007855757996167778145,11.480099785725412786519,-0.0802318332045146714870398,0.391105078946728523803245,1.07188032210054906556707,-0.0731523196120207053194662,1.80512595937034503457141,0.544208552379489951533742,1223.34818067392120610748,1240.16522851745116895472,1208.98418916479158724542,1232.56715823177410129574,342.277974669968614307436,27.9073492586576072937987,-206.540444793199469586398,808.085379963812783898902,163.926857008728802611586
0.350000000000000033306691,-1.37142758260597918962276,-0.93955482626823783043335,0.646851150407001584952127,0.372366340793989614166293,0.0821442243191406601399152,0.00090494486225799241133072,0.035092287315882056408789,0.00802184715302021317251402,-0.0132777871566469828079615,0.999263822552106995011911,0.000144899250593480410920222,-0.0926912660242360242346393,11.481316334172772641864,-0.0799972524792867123455409,0.390367822534367581166492,1.0757035335048676927272,-0.0732944898496336594284628,1.80591106370917708900947,0.546936626243400447755505,1224.4166498907511595462,1240.33335217072385603387,1208.56330762220272845298,1234.46930008796084621281,512.592442675537085960968,118.920289018707379113948,-133.078115343188528640894,793.616051600755668005149,163.92460758505669105034
0.352499999999999980015986,-1.0533254353442049744416,-0.969004832750177680367187,0.652336498499374251025529,0.370622376215899440587975,0.0785866924242237530062738,0.00391248187253415060510298,0.035518409190562288957338,0.00811238697104415922012333,-0.0132814427114388428075031,0.999247985266351834710008,0.00564320581948835053864855,-0.0974926772434225041852329,11.4819990168962675625153,-0.079696312643522920771133,0.389613272780152175567281,1.0795558907808839865794,-0.0734362272743156324628089,1.80669124545776238477401,0.54967942303189121222573,1225.91114288729886538931,1240.75982996254469981068,1208.31879858807565142342,1236.53523848977783927694,533.514220609873518696986,189.147967271812490253069,-54.1149560296622524901977,736.208380029537011068896,163.922277151605129574818
0.354999999999999982236432,-0.856055525866328381745518,-0.971983509284103264214139,0.572781986423620215198582,0.369035059106328500178051,0.0762809928150220278864069,0.00613380008820125968010961,0.0359449515039302197605409,0.00819699953323087086853871,-0.0132717088925295365053891,0.999232155673518640526254,0.011048793696079778348107,-0.101973498168528325935611,11.4821441492905158554549,-0.0793276326991830121881932,0.38884475777277571761914,1.0834341586032831816766,-0.0735774914249717054692823,1.80746646452263859394805,0.552438902193721381728153,1227.08422099380049985484,1241.27909200708290882176,1208.29273284205441996164,1238.1503419881084937515,400.770119735943467276229,233.917533897374397611202,11.2705260616621565361584,647.000667908104674097558,163.920644096477388984567
0.357499999999999984456878,-0.684115171266585053722054,-0.981231041787753555105667,0.439366461679846498356028,0.366561692504906999623415,0.0745236832069499366415499,0.00757383226850564215959505,0.0363713942962776148881687,0.00827447401621892245082712,-0.013247053695196358766295,0.999216383196574797764811,0.0162685593320860133470518,-0.106120834908749878122691,11.4817424394784737273767,-0.0788887643400931759529726,0.388062920047458237426952,1.08733385668873028251369,-0.0737173054470252331338287,1.80823698894353368515908,0.555215020897117716991431,1227.914993485978584431,1241.92941763203157279349,1208.3751512183839622594,1239.7702418293183654896,252.136503856081390040345,302.726920398299341741222,48.4446528458647236448087,739.510939445062149388832,163.919332669161036619698
0.359999999999999986677324,-0.454848689071874645595273,-1.02687946229246529483703,0.266044996438185965548229,0.362677609486400154281682,0.0724502586277425697502963,0.0082078956397126541510989,0.0367999671209422382633925,0.00834460927735202612209875,-0.0132077725351234208372997,0.999200582894641198272723,0.0211944411458950265902956,-0.10986406760099379220641,11.4807821487222945222584,-0.0783823702489235968338122,0.387272961259370662734369,1.09124721512165967496344,-0.073855053468654355275369,1.80900232219428236390968,0.558006065928410399656912,1228.34490351308090794191,1242.79272660907440695155,1208.53495610628374379303,1241.84789668533380790905,64.3144706076326997390424,315.621920500870771775226,66.8677982661847067902272,794.313926590620440038037,163.918130682211369730794
0.36249999999999998889777,-0.224699952327125501705396,-1.10505999520349562637023,0.145821442493350467151103,0.359759394172346869122947,0.0705267374028567400889855,0.00796387877921739782693944,0.0372330310700467181916906,0.00840880309199838055222997,-0.0131576197001953294068999,0.999184604090596617531617,0.0256962736259897100987715,-0.113132587704442871823218,11.4792519425068775262844,-0.0778185915491975410684944,0.386478850668901752207773,1.09516596126712051351149,-0.0739895309307346815685946,1.80976234037450778302514,0.56080829469378545848457,1228.23656583901674821391,1243.50752723453592807346,1208.70949020971488607756,1243.74181146227147110039,-109.233650238866076165323,263.378534300136152523919,83.8816799043797090007502,784.920196292522859948804,163.917437946203961018909
0.364999999999999991118216,0.0365216302692096261850452,-1.22787996591895898212954,0.0837862408458670410160707,0.358628166514178225998677,0.0683443215096366379901482,0.00728714267580070525209823,0.0376717745551617272381506,0.00847028546560989192837354,-0.0131036392035544149020643,0.999168278304837120806781,0.0296206866142167818400921,-0.115883909251690592201456,11.4771427979440350242157,-0.0772152873881938039968276,0.385680530773256202703436,1.0990827544658288150714,-0.0741202576436302135176604,1.81051740606364397478956,0.563620552781201600289762,1227.79873526188657706371,1244.10961928057508885104,1208.9543645058056426933,1245.7724976667964256194,-192.07365011411621935622,206.974464648283003498364,114.97735019415803492393,813.992071394613276424934,163.917063932420944638579
0.367499999999999993338662,0.296660520718045772614602,-1.38236670724452337388755,0.0842746113258565632264663,0.359325856452636649418508,0.0659180741500789979525621,0.00643022725151917110691935,0.0381171955910575149806263,0.0085337120745460955800743,-0.0130484537407413725418337,0.999151488088629968764565,0.0327970884510272037148937,-0.118081985826556906671314,11.4744489834797054328419,-0.0765916328799256529435979,0.384877163964107149585203,1.10299062252466129052664,-0.0742470530896278402277488,1.81126951448833817259754,0.566444345911107927094008,1227.27619758844616626448,1244.5423995577773439436,1209.28437696068567674956,1247.81177181924454089312,-179.809359125283492630842,121.871443345116745149426,152.953430795605385128511,776.904729007264222673257,163.916952104628734332437
0.369999999999999995559108,0.518342744825415646658939,-1.55887876055704310829242,0.162276521852031785364545,0.361623812561872925996909,0.0631969862978200291880881,0.00563282177622349659873446,0.0385722028511465003797198,0.00860043373466291838358444,-0.0129889192907257904757712,0.99913414585531712397426,0.0351464071656951981825756,-0.119647339048371520453529,11.4711676991396114289046,-0.075956458802801524177184,0.384072330120971361377968,1.1068821442542873256798,-0.0743693894309257752528453,1.81202040833398325681003,0.569282118793991376293206,1226.8996884662601587479,1244.71897649730067314522,1209.71913165978367032949,1249.65702131183275014337,-78.5003593202872451684016,20.7261386876780129284725,202.354059641311152972776,707.602465279841680967365,163.917153054707171122573
0.372499999999999997779554,0.708976135218772118840036,-1.76106430651788015140369,0.327427881889430949513553,0.364889805588746063413907,0.0590956004401990211971629,0.00549195890232885217119296,0.0390372856590853120617446,0.00866918485581838309250724,-0.0129248827391945514397875,0.999116240020448187486579,0.0366751453063545729271766,-0.120553521722865292220561,11.4672989125233222296174,-0.0753152611916420439142072,0.383263778704624025195358,1.1107530055031806792698,-0.0744871185660525708671642,1.81276984961721443490035,0.572133353365494201625552,1226.88369579184472968336,1244.64603025121573409706,1210.29614725889223336708,1251.34978414564375270857,90.5482307704914148871467,-62.4122755865755038939824,202.231688750725709269318,495.221995632618472882314,163.917750373677705511
0.375,0.800368167035992783553411,-1.88644062348019603270188,0.498975526864021301509666,0.367257016504020816771714,0.0542754815800949863557889,0.00655277535200922672115054,0.0395105041189837274950847,0.00874166430623688796297532,-0.0128556815431255903880992,0.999097834661507477882481,0.0373450876790955149653328,-0.120830323842587267213489,11.4628453187211363228926,-0.0746799058275212507274077,0.382444246412726285289096,1.11460162992740285936577,-0.0745998837329951008934259,1.8135169946436839882864,0.574994965264228330426022,1227.35242962011261624866,1244.40691511936779534153,1210.73029010353729972849,1252.13313128999584478152,293.145694673694094944949,-113.406059307908336108994,137.897328000371885536879,151.047209760463232441907,163.918540244954868967397
0.377500000000000002220446,0.831482592031103528995573,-1.9248035407110843930667,0.670236316863837444657293,0.368987355541080086496208,0.0480437966287436055146109,0.0088370401658428056335115,0.0399916857202440231833229,0.00881836017041938771687803,-0.0127796249244372644299217,0.999078952434268030557973,0.0371667953241865273161793,-0.12046744094969488725333,11.4578105920538018125399,-0.0740586098750699028947508,0.381611561367099449970652,1.11842673439802364754314,-0.0747068127806130022339204,1.81426146985906799891097,0.577863303818778151210722,1228.34942426521320157917,1244.07899995467619191913,1210.9856338988940933632,1252.10502019444606958132,539.326508326939347170992,-146.812852411176066880216,46.8231598253623388927736,-216.559106115573541728736,163.919626798446813609189
0.380000000000000004440892,0.814164788089784652314052,-1.84404802027274228315434,0.844451477350098844709692,0.370612269270269245602378,0.0404757119185661790039532,0.0120676802867568551402844,0.0404772039222165494476435,0.00889479356935898683722552,-0.0126973501381670347137876,0.999059769223326621379044,0.0362885539728820816218757,-0.119533601690206076062495,11.4521978867373572796851,-0.0734489773645513183142342,0.380757149863897415009717,1.12223158368219944058808,-0.0748081565245517499107564,1.81500179493910351880004,0.580737183479836938104768,1230.04906216174731525825,1243.67285085731191429659,1210.96440590266411163611,1251.05033575941797607811,677.243432167460355231015,-146.964228952628985780393,-70.7792133376187280191516,-554.968283850802890810883,163.921264961304387952623
