t,ang acc x,ang acc y,ang acc z,ang vel x,ang vel y,ang vel z,quat x,quat y,quat z,quat w,acc x,acc y,acc z,vel x,vel y,vel z,pos x,pos y,pos z,mot 1,mot 2,mot 3,mot 4,dmot 1,dmot 2,dmot 3,dmot 4,vbat
8.12250000000000049737992,0.0528652802293213541773298,-0.343539855959582585143153,-0.583931542374184875399123,-0.0173311175737188849499404,-0.0273718699293789349824557,0.0149652652566027149355632,0.00611085587678143488804539,-0.00442209830236152054427912,-0.991000678873885876285499,-0.133639053781430178213796,-0.0801567539169480841598769,-0.0208418811527308553421811,9.81969130927004663078606,0.0265295028285049104554982,-0.000506312323878211440961183,-0.00172329869872173070850796,3.63381703544843359665606,4.89992885699780433839123,1.2329587523270553184318,1133.21131891484924381075,1115.50101812813204560371,1144.54538220247923163697,1147.77325612701179124997,-734.300907196403045418265,-267.285141689133922682231,-264.134212450797122073709,390.256003890986335136404,156.837411111888116010959
8.125,0.477199266969257962500706,-0.494842312143042195593523,-0.445084172748679007813877,-0.0171903381685146253166074,-0.0282540362765856950533205,0.0114299269968563751986856,0.00603995950684607998959486,-0.0044143307313419316226244,-0.991002219381956206412099,-0.133632903147695158985186,-0.0827199189334823087316195,-0.0199935962383702911515648,9.81941760743409908229751,0.0264031656761083838302895,-0.00064382883949427340258137,-0.00174188944682400525046373,3.63374577907760576422902,4.89994718752127411676156,1.23295511621989306583203,1131.33987615246678615222,1114.76968339889072012738,1143.69259928760220645927,1148.76026924319921818096,-609.545202304828649175761,-259.032358589781040336675,-347.125444851122608724836,320.106217544725950574502,156.83624327863259395599
8.12749999999999950262008,0.81119761432468695527831,-0.64059697274497384711367,-0.247722782223786158750656,-0.0159169344908035338692631,-0.0291775272303143283492144,0.00905262176829326088711714,0.00597842704896638706818512,-0.00440961894621884602923911,-0.991004163673181670546342,-0.133624670446511578658644,-0.085216636476727933291464,-0.0192320696191213558190469,9.81928855125511823587203,0.026254422712060295624914,-0.000779041264045080461726756,-0.00176223302515726427779075,3.63367608673148101416928,4.8999669952470288336599,1.2329510987405549737872,1130.16359290332570708415,1114.20585633518339818693,1142.80975497822396391712,1149.3737872147351026797,-365.975809458347725922067,-202.193505115715424835798,-364.314839943051424597797,189.160570272422319249017,156.835277793362166676161
8.13000000000000078159701,1.08995125774926826522915,-0.789354560777108194002949,-0.00418668567270032848659511,-0.0132798794439936730660268,-0.0304838891508947273933927,0.00826929515590309367756294,0.00592982731610338428124285,-0.00440675153964638615516902,-0.991007072164666324987081,-0.133610496892636071430971,-0.0876639663023770915328825,-0.0186098228843956693678852,9.81931254260487840213045,0.0260863040044871409561811,-0.000911883724543521585054195,-0.00178220381889829899632605,3.63360887565800716458853,4.89998736062197082219427,1.23294620992033943096544,1129.50999710517476160021,1113.7587158733119849785,1141.87102508788666455075,1149.7060720945614775701,-155.262387629293982627132,-155.058362464363511890042,-389.668878800314814725425,68.2558482339920971071479,156.834324553100628918401
8.13250000000000028421709,1.3213488657294998329661,-0.942604450397041437881285,0.275543494510729125579473,-0.00890427762343245533804836,-0.0328368062612703348612797,0.00930050239103129977591422,0.0058962996532227534771109,-0.00440590870276393303112128,-0.991011224415849323321481,-0.133588608661014435208259,-0.0900629207124380298798982,-0.018146839271138713589604,9.81949161980254459081152,0.0259027103119152737886743,-0.00104206330583667735462106,-0.00179961184591412109122499,3.6335448522267137505537,4.90000778167070105695302,1.23294070867662841628487,1129.38728096517911581032,1113.43056452286145940889,1140.86141058422208516276,1149.71506645590511652699,59.9300660815634813616271,-79.0075776942260574742249,-324.071133585285565459344,-69.0824422653032428343067,156.833200070668596026735
8.13499999999999978683718,1.40731322256584334695617,-1.0246538158274134389103,0.450375640938311894156953,-0.00474797241832919120901879,-0.0356235699566782790248531,0.0114803842431011743352443,0.00587232786459286875552221,-0.00440913705849106923179148,-0.991016242762978616376301,-0.133562275755816473044035,-0.0922798042675625901365422,-0.0178054962769875965711286,9.81982373527351981579159,0.0257080703193489287783358,-0.0011690438411913559729749,-0.0018126159235389656312204,3.63348389221071421673059,4.90002876902268269532215,1.23293466241009297412745,1129.80964743558251939248,1113.36367798484093327716,1140.25066941996055902564,1149.36065988323503006541,256.3432679720390865441,15.544581277893849247107,-172.913836597979582165863,-219.273451627303046507222,156.832283223201585542483
8.13749999999999928945726,1.37129931293079199150498,-1.03286792928361026433492,0.523359786025078266291644,-0.000661355036353761553333253,-0.0390953367758039155299699,0.0142923459595337819932892,0.00584850829544102633616998,-0.00441877210292192495327823,-0.991021707256912409711447,-0.13353503214139372801128,-0.0941164904819054709550485,-0.017529815234793019035342,9.8203020760188799442858,0.0255069749068634644972864,-0.00129242453166860120535031,-0.00181962071574155313975762,3.63342574481612379244666,4.90005044527999356063219,1.23292813786094046513142,1130.6689973050390563003,1113.50828742925091319194,1139.99684140123235920328,1148.61869919776881943108,442.037589526056763133965,99.4684280470054602574237,-20.0727729717496465866589,-404.179561274013906313485,156.831392461307757457689
8.14000000000000056843419,1.19189384059674119420436,-0.942035012558249840175506,0.476351598022537625620743,0.00393121649192579303289108,-0.0431457041682374448088311,0.0172891710201954311443284,0.00581871175637395030011412,-0.00443573987229736559079196,-0.991027451838009776352578,-0.13350805695990533572548,-0.0954457762239212942345645,-0.0172962085643252848343732,9.82091332743852696296472,0.025303861505875088755424,-0.00141221862284301113120433,-0.00181901208806355628964935,3.63336958827572198416078,4.90007259610186451936897,1.2329206718047309720987,1132.01983538321314881614,1113.86102012507603831182,1140.15030555510179510748,1147.33976207686464476865,520.269684649984469615447,143.352778000758348753152,126.381117616964075978103,-513.217802982818966484047,156.830359956428054601929
8.14250000000000007105427,0.943079064278628753648093,-0.785502566852814165798691,0.33324306407158915677158,0.00737780985539310263376933,-0.0458411081627996611076448,0.0190052971567818522469206,0.00578127559223322491643859,-0.00446230856950444350339513,-0.99103336847439316148467,-0.133481298337686904442734,-0.096241531598773008560066,-0.0170626939619563829098059,9.82163783432686798846589,0.025102764656213825966713,-0.00152892263413649640187153,-0.00180919896856850679137119,3.63331467186790435519583,4.90009400716314580392918,1.23291175230275951157921,1133.27034572828938507882,1114.22505131925481691724,1140.62874698931727834861,1146.05261018285432328412,498.509683838400690092385,139.787376092027074037105,246.025555632289808727364,-525.146332658427922979172,156.829534665928434833404
8.14499999999999957367436,0.621474165599433914231042,-0.562313808919796431773364,0.108809135231767800666702,0.0098808303473206932077133,-0.0477210458829360681387577,0.0197497253093987280847532,0.00573732706293385730927925,-0.00449458707471414847106628,-0.991039497872871488759472,-0.133452882826853885811502,-0.0965257220668904597493665,-0.0169097898579852849720861,9.82245179867972595388892,0.0249071267353505806929626,-0.00164352089369587716152776,-0.00178896074353283168756334,3.63326091215992663663314,4.90011455796815731389415,1.23290155333786155544828,1134.51238380240465630777,1114.55995700553603455774,1141.38043333326299944019,1144.71403041357302754477,482.495786115548128236696,117.877342761839585705275,329.521768413854601931234,-514.266466564514871606661,156.828751827558789955219
8.14750000000000085265128,0.271848961350863171926306,-0.302664660787357986393431,-0.156865764555376679956211,0.0110619469510925740735052,-0.0488661228235978059575295,0.0196971967226753641444503,0.00568703640136568062263267,-0.00452640674454467522441758,-0.991045308159082982690791,-0.133424248650921895009702,-0.0963042956727749727141585,-0.0169558277774494170486719,9.82332960303439683968918,0.0247196693330498686036467,-0.00175715376749392086092039,-0.00175780367614246260492272,3.63320804143521502993508,4.90013479724942779824914,1.23289104396130344554194,1135.68282465886750287609,1114.81443803306410700316,1142.27635583138680885895,1143.48127785003134704311,444.574344575015459213319,78.5413885408038368041161,375.477980479704854133161,-437.262783679602648589935,156.828008872591823319453
8.15000000000000035527137,-0.067161168258947412379456,-0.0246305410640077562800521,-0.439053120877431757307363,0.0103926293061606840606448,-0.0491078073628627084779019,0.0187411500679013805215067,0.0056317698509968554601568,-0.004553504484781631389545,-0.991049841237847894959145,-0.133398607099784682894494,-0.0956186701953052470281946,-0.0172803300535372683643942,9.82424409536082521299249,0.0245423020410917604172685,-0.00187113816842347552467374,-0.00171592889312799021239719,3.63315605297069055268366,4.90015555237698574586602,1.23288195432019698216664,1136.73525552528008120134,1114.95266394824011513265,1143.25782323566181730712,1142.52771649517467267287,434.579861871038758636132,42.3421827378745234682356,434.521324383645207944937,-333.619772599443422222976,156.827319900952318221243
8.15249999999999985789145,-0.413390701801221394084962,0.297912534461939659813368,-0.756644343238719097044509,0.00809146962727995931741187,-0.0485189691934282824048452,0.0166882274642494894678624,0.00557052076717164893621126,-0.00457498518080337070179642,-0.991052100346966557964379,-0.13337941249970347579179,-0.094478431392728198789932,-0.0178854308745245854650463,9.82516910765673223693284,0.0243760468256183950030991,-0.00198705464087556684174563,-0.00166431890532002090682395,3.63310467413524351698584,4.90017677275570040507091,1.23287498719993671159045,1137.85572396822226437507,1115.02614894675343748531,1144.44896245330460260448,1141.81317898703446189757,386.949175949425466569664,24.5576171599672044010276,429.347564050016387682263,-191.301745038837765378048,156.826563093940393400771
8.15499999999999936051154,-0.631891163031718439135886,0.535875526813437641493465,-0.978100189522474905423621,0.00581427724593210504960838,-0.0474448818242337796990959,0.0142806287432400702552826,0.00550370456127275906044183,-0.00459249792681432067453784,-0.991052024370712270062711,-0.133369861960711932891144,-0.0929312060245409826686469,-0.018721574968861402071818,9.8260794579251058422642,0.0242210280551245077385047,-0.00210680637494542986887236,-0.00160433062300330687814653,3.63305299735477404965422,4.90019771394086944837909,1.2328695128109825596141,1138.67000140502682370425,1115.07545203403992672975,1145.40456105591147206724,1141.57120776998067412933,297.367993299120712435979,35.1217177799244026914494,362.342252684163895537495,-42.8679229463729214444356,156.825995858535833349379
8.15750000000000063948846,-0.77454242614657387022703,0.718485726034022498254217,-1.12960867810619802753536,0.0036262803374321117208523,-0.0456264497095121845937626,0.0110960112790298402740685,0.00543191276656922183985188,-0.00460722600470568014602302,-0.991049970056638418469674,-0.133371591525969251934569,-0.0910289436157926262760398,-0.0197425699649656644085738,9.82695273205162145302438,0.0240765135030698053386633,-0.00223262697715657671554412,-0.00153754876268546113692037,3.63299970170552333215142,4.90021762337221300498413,1.23286437730176356986078,1139.34256393471810042684,1115.20175753565308696125,1146.26067371672570516239,1141.59883937230256378825,253.473391780386407390324,89.907761673552656134234,334.754577637606814732862,37.7476930713724101451589,156.825500050544064833957
8.16000000000000014210855,-0.87066760477705062992726,0.851013870923544413216177,-1.21222842201700609088277,0.00106000131830985598949124,-0.0424353952661715438932077,0.0068098692581873287998917,0.00535621504705603018736682,-0.00461984443982359303110252,-0.991046397096632558643137,-0.133384104870628295014257,-0.0888322239058674939515825,-0.0209074058091435546757886,9.8277700668214791335231,0.0239410803240464320484904,-0.00236692715551312148417051,-0.00146565059090915080289297,3.63294459343172748688744,4.90023641563539147369966,1.23285913749644326919963,1139.93736836392895384051,1115.52499084240776028309,1147.07833394409976790485,1141.75994623533756566758,173.97373104298645785093,153.474156293835733322339,248.568896142527933079691,53.1244460947724448374174,156.824993440763108765168
8.16249999999999964472863,-0.902109873550000052055964,0.8803984187051764331855,-1.19505677369986162972282,-0.000995512986977724854964489,-0.0393081367320370148044084,0.00327427241917919347249932,0.00527654441067776196205852,-0.00463185535743996894264551,-0.991041801874399497229717,-0.13340553949624142648922,-0.0863809897637390217139952,-0.0221508598309276723281602,9.8285172519347092645603,0.0238128609427324215708222,-0.00251199371636163029664068,-0.0013904611097381605697848,3.63288823462725529722661,4.90025404113776019698889,1.23285370058697019146621,1140.21243258993285962788,1115.96912831712211300328,1147.50351819743809755892,1141.86446160277637318359,56.455886005133194771588,214.768221279212497165645,99.1598665750943411012486,14.2226357534105360969079,156.824648662043358626761
8.16500000000000092370556,-0.900437410670084981134664,0.830385942243040187094039,-1.09650639116997150601662,-0.00294882867001510125259944,-0.0365083484571357766435007,8.10630711042607506391922e-05,0.00519719057778491103083418,-0.00464036386548858596073908,-0.991036477361934453611525,-0.133434684151658322637246,-0.0837867956457712254048076,-0.0235011289062232453517254,9.82918358134268999037886,0.0236897991657336950965806,-0.00266959794517825218726492,-0.00131379257872086207224738,3.63283089120744007161079,4.90027130007122924126861,1.23284889466171043714837,1140.21964779395466393908,1116.59883194880399059912,1147.57413327697531713056,1141.83105941410462946806,-58.7171318282252343578875,315.435695459378450777876,-61.8738200341698458828432,-45.4625652777323807640641,156.824388169278222449066
8.16750000000000042632564,-0.877582023891447016161749,0.703027336098510424733377,-0.905266121196340978194428,-0.00517988003624924794876527,-0.0340762836314102215973243,-0.00332535898453692772488988,0.00512435305187869741261331,-0.00464285804723898066354026,-0.991030936091216840821971,-0.13346799391492625286304,-0.0811972810098795655386894,-0.0249808626437983856416469,9.82976251760755204145426,0.0235698229181608223670175,-0.00284094382506414619773971,-0.00123749530639401836111524,3.63277248210749981183199,4.90028878815474744357061,1.23284562008261833199185,1139.91884693079168755503,1117.54630679441925167339,1147.19414909726719997707,1141.63714877638767575263,-153.656835161412914203538,374.609400326000411496352,-214.536876283634171613812,-75.6507337375447121985417,156.824176925606650456757
8.16999999999999992894573,-0.85059240324792695364664,0.565271559278431978690094,-0.706868107014446578340028,-0.00706454321214383760413336,-0.0329762310451637494224109,-0.00577819849482948816321581,0.00505738757122155702800059,-0.00463489552830952979134427,-0.991025940519147163776381,-0.133499985444560181901963,-0.078619330159910252864286,-0.0266308094068611958538106,9.8302544988565756511889,0.0234510182102282450922193,-0.00302653048617839131456675,-0.001163759994251030134918,3.63271321917640754861623,4.90030737271217731176876,1.23284392987927970963824,1139.45136361814775227685,1118.47187895043362004799,1146.50144889555735971953,1141.45280574541698115354,-213.734833562645462734508,392.543823887113717319153,-338.397738646403013262898,-34.8244251829397555297874,156.824087739462214585728
8.17249999999999943156581,-0.822782405700389074532097,0.421828750299216126418145,-0.501761346332001090253527,-0.00882437416883879131856983,-0.0325810240282249502508094,-0.00739540905567019190430811,0.00499030490642162274927962,-0.00461535316254454899137505,-0.991022022216915376979784,-0.133526715833875958550081,-0.0759619240362505859787134,-0.0284137303547831142347402,9.83066553288739441995858,0.0233318728323625781961859,-0.0032259871186718584029629,-0.00109477624031136845650369,3.63265299748735071005967,4.90032749644241327757754,1.23284379038328806288405,1138.85017276297867283574,1119.5090259138544297457,1145.50216040403552142379,1141.46302665047301161394,-246.47511998737866178999,428.722387714402714209427,-428.084125687270386606542,73.2206103575548894468739,156.82409082581551729163
8.17500000000000071054274,-0.797323223668532143904031,0.286667866624520539797771,-0.320992987534668594573617,-0.0103310789288093268084578,-0.032348707944587690166216,-0.00776233983595355555434869,0.00492274972313939528784088,-0.00458629950555318726540532,-0.99101951176377356400593,-0.133545283504261702578475,-0.0732501573264452837674909,-0.0302470718723979042907857,9.83100295348710773168932,0.0232115261561491904862553,-0.00343816958950285932183899,-0.00103202285718570268766014,3.63259261026561475205199,4.9003494444978610289354,1.23284411471310484387232,1138.21898801821066626871,1120.61549088900596871099,1144.36102826712067326298,1141.81890879720481279946,-243.927203204119052770693,452.325590619759395849542,-454.755982612206764770235,259.473141536050547983905,156.824171156164766216534
8.17750000000000021316282,-0.773408104525485029512311,0.166786092947801695141052,-0.202138994251258918843916,-0.0119106869477048731009727,-0.0320060441011687443757516,-0.00672530589738510198999366,0.00485922152427587482337312,-0.00454927533074871680296436,-0.991018479847761701861941,-0.133554521173195411831713,-0.070600839675279650209383,-0.0320749348074404611041999,9.83127503696696081192385,0.0230899499670068307499715,-0.00366127283866200846709771,-0.000976226219837296005192584,3.63253337268456322206589,4.9003734498922284501532,1.23284456571006750813524,1137.63053674695788686222,1121.77065386695358029101,1143.22838049097413204436,1142.76039235815346728486,-239.562724486543089597035,507.339811547181852802169,-446.591684064103617401997,561.689753051016737117607,156.824344277051665130784
8.17999999999999971578291,-0.738040700820020934003196,0.0400880362375879706338111,-0.149831992055275808883863,-0.0141150722735576897304277,-0.0314815142158990576848332,-0.00522674171633108908957555,0.00480519484936740501335173,-0.0045086596799062900534083,-0.991018499069433511650118,-0.13355684301187631390917,-0.0681562245843538166978348,-0.0337938366856456173792367,9.83149103728847428840254,0.0229679995005720519185566,-0.00389297759150475115169643,-0.000927457622833891578810472,3.63247672788743214411511,4.90039894769773720639705,1.23284516266020371944023,1137.02117439577818913676,1123.15218994674137320544,1142.12806984680059940729,1144.62735756245933771424,-208.532497231966914341683,494.427134545744593197014,-327.521313575192550615611,787.206345113749875963549,156.82465725341876350285
8.18250000000000099475983,-0.695185117052214085475725,-0.0514417993207130844202091,-0.171976943133756998705053,-0.015915473854251464130849,-0.0312197154372515044140624,-0.00467431889031686993024595,0.00476488970379887553235898,-0.00446413094936399124784687,-0.991019015753617282804555,-0.133555853938071011910438,-0.0660215155562603323025073,-0.0353941883917620256361225,9.83166093223105441722964,0.0228472419303818313762733,-0.00413079720832212719805465,-0.000885329081576519539946435,3.63242332197870121390793,4.90042550251242836623078,1.23284607545897118008327,1136.58787426079788929201,1124.24278953968268979224,1141.59077392309791321168,1146.69642408372283171047,-165.014955390662748868635,408.097338749603181895509,-108.175084032274213541314,877.486793399974999374535,156.825003129085786213182
8.18500000000000049737992,-0.630272280251162886344218,-0.124761617583267481190745,-0.229400383293404508400215,-0.0175884762352276312336041,-0.0313927203919666317211146,-0.00524415411708544203922555,0.00474042529375576834199668,-0.00441494076532281468083774,-0.991019782498675727566706,-0.133553050949023977000962,-0.064260293589884207032803,-0.0368748224555792356027517,9.8317942065954717634213,0.0227296074909426951138336,-0.00437246109351472483917078,-0.000848957036936059147684552,3.63237343816362434623102,4.90045269904446101350004,1.23284760329878628759559,1136.19609961882474635786,1125.1926766404897080065,1141.587194426639143785,1149.01479152945989881118,-170.870829392458631446061,366.30424841380784073408,133.49754895123550113567,985.76207577722527730657,156.825432805861879614895
8.1875,-0.519398387011969053794758,-0.184260212434145337345726,-0.292050727439198631874007,-0.0194250007713924963126395,-0.0321749741638123754050582,-0.00686765522241930374824914,0.00472784575510058931169244,-0.00436430668087578205877053,-0.991020758251572875252577,-0.133548559942641337228153,-0.0628287095034556625217093,-0.0381475646677592108990673,9.83189974722996318234891,0.0226169752869921428239941,-0.00461605424347803858925454,-0.000817027489900381447343602,3.63232634517224717285444,4.90047977290413694362314,1.23284886964065920622602,1135.7335201138357660966,1126.0743107817513646296,1142.25826166785395798797,1151.62523446260797754803,-170.119969588119801073844,266.103230260803854889673,350.286359776443191549333,859.616541482353568426333,156.826038380501813662704
8.18999999999999950262008,-0.395906460867375908918575,-0.206302782918307392456825,-0.310581582605547690256742,-0.0207071580527104226465696,-0.0331892044879348382946382,-0.00843071000814381125987307,0.00472003566807089724316482,-0.00431965573071355687234663,-0.991021872581586582562352,-0.133542762515820007118705,-0.061632627199544973151113,-0.0390406957012352090474749,9.83198404559574079542017,0.0225107963598822728712445,-0.00486001663220841234602787,-0.000787652204541266424790702,3.63228062483802638382713,4.90050689486373958203558,1.23284913120040906520103,1135.34549977088431660377,1126.52319279179346267483,1143.33862622552101129259,1153.31287423687081172829,-151.321803166614699875936,103.804798504627029842595,509.189911075384316063719,509.680678178312859927246,156.826611828867413578337
8.19250000000000078159701,-0.23859888302466908394095,-0.202119320651615752559849,-0.27362140272320728540123,-0.0216604887892098176005451,-0.0341505009816195082006374,-0.00989689751282423618716777,0.00471211958029983061374546,-0.00428462342648577507175922,-0.991023285595003189385466,-0.133534426831678931790748,-0.060611530839466007392069,-0.039468765233077407472706,9.83204916173303899995517,0.022411819462258827928558,-0.00510320427901108947948972,-0.000758367387339213029628926,3.63223513850917312240085,4.90053394415171439391088,1.2328473893244038528394,1134.97691109800257436291,1126.59333477427458092279,1144.80421122323127747222,1154.17363785349994032003,-146.565384850896236912376,-73.9358590755612539169306,675.268482214945834130049,155.955115671052396919549,156.827248398917902250105
8.19500000000000028421709,-0.0130079323802738192061845,-0.179985998246957268342783,-0.158410230068970037109466,-0.0222426943965144431614167,-0.0344877030573912876643128,-0.0113423833646918784112678,0.00469999643080334233991024,-0.00425869567700430228657238,-0.991024671500294940251763,-0.133526078522210350785215,-0.0597078586010375139681017,-0.0394366879644363343970781,9.83209286965488615805953,0.0223200609730410358400032,-0.00534457716484792316746777,-0.000726463663166920683815497,3.63218856309680937499706,4.90056043764725490774481,1.23284289031862548391416,1134.61267284662972087972,1126.15351349641559863812,1146.71496863659626797016,1154.09264981522619564203,-111.614515610312466264986,-258.648108471021771492815,675.733502255841699479788,-203.698202147001723005815,156.828075552868597242195
8.19749999999999978683718,0.201258507526260260744877,-0.158959841059306605792756,-0.00871572414059147704268327,-0.0220927306713426356565844,-0.0341109510742158630880461,-0.0119354662935103519177948,0.00467819225985116951549436,-0.00424425938513487560621584,-0.991025496826969498620485,-0.133521763990199354710242,-0.0588430790559239663695124,-0.0388961318197794253537225,9.83210928239254222660293,0.0222348793196295302365684,-0.00558315833859847690523459,-0.000689336842629549389170618,3.63213986206877637030743,4.90058622679555000445362,1.23283581931670438436299,1134.41883851995112308941,1125.3000942319197292818,1148.18287873450981351198,1153.15514684276513435179,-47.4878983302554757983671,-448.532621606953512127802,505.791450699198890106345,-503.601565646895494410273,156.828810756024410011378
8.19999999999999928945726,0.435623898817383947701387,-0.141118751086388549698114,0.181621627660122075820226,-0.0213407518083735883718255,-0.0338153831292385895213037,-0.0114928370219176123612215,0.00464730325577157859368027,-0.00423887519912696797419471,-0.991025625326723558217168,-0.133522526747815062364566,-0.0580420460066512627905766,-0.037914674671051869225824,9.83208749384512792346413,0.0221551728728373135968166,-0.00581798871277459245243691,-0.000644703187166898133812765,3.63208949626249211206641,4.90061197532271997090447,1.23282731824661717645597,1134.37523335497849075182,1123.91085038838127729832,1149.24392589009175935644,1151.57464198699221924471,8.20652163920257393669999,-641.993055964066684282443,327.470158784757302328217,-680.478350740061614487786,156.829585805273893583944
8.20250000000000056843419,0.68082865962915983804038,-0.12125876869626310561312,0.39307698440802374406644,-0.0201488411398213079772646,-0.0339693035070348439696808,-0.0102904565298609067952595,0.00461064049005899603828063,-0.00423702853655816627509445,-0.991025107559901030640503,-0.133528042558953896623564,-0.0573712918296713364485484,-0.0366329985146841841103793,9.83201359685056353043819,0.0220796672653278923392772,-0.00604784416553514735798158,-0.000591039543479217484821253,3.63203861102740610533601,4.90063792161509681477582,1.2328186425998706177154,1134.45987112814714237174,1122.090128952098893933,1149.82022952843385610322,1149.75275508906429422495,59.998731493614911869372,-817.759165698916604014812,99.3788308529318982209588,-710.825122142867144248157,156.830388310937422602365
8.20500000000000007105427,0.931015128134555003391881,-0.087256985045543897228093,0.620454913428765908456342,-0.0183568616057661095075648,-0.0346528321634650762761432,-0.00872849378502909244159635,0.00456720735619225819135192,-0.00423232748388764189878541,-0.99102435129086829945777,-0.133535521555569025586863,-0.0568073369435795755277852,-0.0352031416963809878906133,9.83187399968061193078483,0.0220070812569004292669206,-0.00627116907988522521988362,-0.000527995055312634534172567,3.63198832210624766858587,4.90066473189709128632785,1.23281043985652827288391,1134.67522701244661220699,1119.82205455988605535822,1149.74082004435649650986,1148.02051637627732816327,115.72366797965997875508,-1067.84812980884771604906,-177.416981962813963491499,-660.888190555255846447835,156.831217458289245314518
8.20749999999999957367436,1.22397897357258567119231,-0.0183516172655381545886222,0.907634541478098078037817,-0.0154357393178890921897617,-0.0355143499799573589270629,-0.00706228514796380935081288,0.00451705069777526193458561,-0.00422042561007506065312578,-0.991023795254444506142022,-0.133541853103542607072995,-0.0563478682042361650461615,-0.033745567508543843071589,9.83165532808617470550416,0.021936208830907830830137,-0.00648598051964928163509727,-0.00045611263429689045609261,3.63193944406482271958225,4.90069324757965230077161,1.23280356046926731217184,1135.0384894680453271576,1116.75088830305571718782,1148.93314461861996278458,1146.44831413628867267107,145.401073287962390168104,-1152.00075628440754371695,-392.429784738426462809002,-458.483557374594226985209,156.83223524647229396578
8.21000000000000085265128,1.45057792305859489800923,0.0638228339666070121349861,1.15519710467593084146642,-0.0124914172959719581984528,-0.0358930061275135672826941,-0.00562550819266002203461463,0.00446313842541731786717207,-0.0042020514094953300560098,-0.991023666083295395878849,-0.13354524245583465624776,-0.0560556726236958874354244,-0.0322947140667675797187641,9.83134530253314764536299,0.0218658733079786365971486,-0.00668994792930689002874445,-0.000376575615895814307543948,3.63189294863233858023932,4.9007244465730446236762,1.23279847703064415753715,1135.40223237888653784466,1114.06205077846311723988,1147.77867112066405752557,1145.72809858940399863059,157.654556390682870414821,-1060.79506339785234558803,-524.031428980979285370267,-161.774897803909141202894,156.83309684506028247597
8.21250000000000035527137,1.64236507997841663097915,0.16480196063571161957384,1.39505518258832417188842,-0.00913438317007372879707816,-0.0358475679367401614539013,-0.00331184497583295392453273,0.00440837494683610740808799,-0.00418010632158252130180509,-0.991023886085615646202029,-0.133546092391671783472518,-0.0559924129106883355921909,-0.0308469500190342305057101,9.83093502496939208867843,0.0217947857638916449307676,-0.00688065392162740506465379,-0.000291183504823329007086402,3.63184790844316829350191,4.90075804640559109515152,1.23279455876739363340278,1135.82676224999886471778,1111.44691298606562668283,1146.31298747371465651668,1145.63943964726900048845,210.566692865128118228313,-1090.79666719611714142957,-669.521047716531484184088,70.5498278379449743624718,156.833966058629755480069
8.21499999999999985789145,1.80716878075610920539873,0.292779299324973873996925,1.63712855659504930017079,-0.00406209698677375500436293,-0.03517928737705134506486,0.001139882281557996583643,0.00435382231640807533523674,-0.00415940868682966851527238,-0.991024501094776910647965,-0.133543895091657288665132,-0.0561832367687683104096052,-0.0293590772862147818267342,9.83042062799048643739752,0.0217213623264888265607109,-0.00705607958838504797233204,-0.000202232919929692099049456,3.63180334820881078883303,4.90079303560654988558554,1.23279168824397133974458,1136.45506584321196896781,1108.60806744248361610516,1144.43106588208206630952,1146.08084772859365330078,263.470487498268653325795,-968.006190612469936240814,-679.583106143353347761149,208.752835422088224959225,156.835010947940162395753
8.21749999999999936051154,1.87003797482829448028951,0.392609823190787299296289,1.76927186347098230889685,0.00118760899956122495911559,-0.0340249957782736978106897,0.00605450152433755373754254,0.00430233617310655114956974,-0.00414383901231832069839145,-0.991025890180580182331482,-0.133535642486661110250878,-0.0566800421626938860653055,-0.0278116492494052541806226,9.82980323114930598649153,0.0216436586382964327168743,-0.00721492530916051279937795,-0.000112262842581101966298734,3.63175858502506621050543,4.90082959365000725426853,1.23279067032359845867973,1137.14411468748994593625,1106.60688203300423992914,1142.91507194299856564612,1146.68320382437923399266,327.251569538378817014745,-707.965953734336267189065,-568.381635882635464440682,231.069492944707491233203,156.835878379545448524368
8.22000000000000063948846,1.83986221796266047334711,0.473446641376882526586201,1.79975861469503928269376,0.00674854237811282724190942,-0.0325814216953728280623537,0.0115097918562054868374389,0.00425780710893681069856287,-0.00413958987089090447303308,-0.991028227023362684455776,-0.133519738505859020261113,-0.0575549390406111111007093,-0.0261425536525513625696338,9.82908953505790705662548,0.0215594892789323748505392,-0.00735661019533600038511345,-2.38276530390397488809277e-05,3.6317129023279548505343,4.90086755755778202825468,1.23279167614999818347599,1138.09132369090411884827,1105.06823767381138168275,1141.58915770266844447178,1147.23619519331737137691,486.61107449644657663157,-559.607592905971500840678,-524.825489297663580146036,177.415375368872901162831,156.836736895949059089617
8.22250000000000014210855,1.69870127221800881756053,0.542489876058498965427646,1.70626486222514728297028,0.0126014476492743963953469,-0.0309027831066669006476744,0.017859937383819211864644,0.00421702704490694788019844,-0.00414974713236707527103109,-0.991031431805828977310568,-0.133496774889153291265842,-0.058727765474680213020342,-0.0243294098940924699570054,9.8282944670307479384519,0.0214666100199596109054934,-0.00748136817715858593730305,6.03115845200717615951641e-05,3.63166590325818017248594,4.90090640628346907448076,1.2327940318257595286866,1139.57717005997255910188,1103.80884406847394529905,1140.29094449650983733591,1147.57028070122373719641,597.291915216129041255044,-358.62515840706549852257,-428.388121082519944593514,47.4627876373782626728826,156.837750814160415302467
8.22499999999999964472863,1.50799258298592775418001,0.576440074012556591398493,1.52687090109496925727228,0.0163733834888385998418414,-0.0295725376597598781092113,0.0225503780093479870572093,0.00417572950839872111122864,-0.00417485668136054460103379,-0.991035730932435465767583,-0.133465187412942581923758,-0.0600860524753149133347918,-0.0223915014004962206750626,9.82743929919480230239515,0.0213628913310739375341907,-0.00759049966677594490499503,0.000137660487783106339539779,3.63161777088508674893319,4.90094506115534844781223,1.23279668757893423602923,1141.07778326698417004081,1103.27511188177641088259,1139.44721709725627079024,1147.47350913150421547471,630.606780094277951320691,-100.826890448600053673545,-301.07316493840539806115,-112.965937897552592517059,156.838578024729713433771
8.22750000000000092370556,1.26330526005442589365657,0.587106760163073948532997,1.2662900943505990269955,0.0190417064718261357103568,-0.0282073637078423741786359,0.0261869464756987122000531,0.00413078564986289233085248,-0.00421606140679356769518371,-0.991041332791269935498235,-0.133423499302719295034336,-0.0615366450806690140629129,-0.0203328557416961597237304,9.82655031660006628158044,0.0212465717659342072376472,-0.00768622900277663757828694,0.000206243156693173055162352,3.63156909037586839161804,4.90098294073496099088061,1.23279912248991974088597,1142.73020396044444169092,1103.30470961623086623149,1138.78557867181757501385,1147.00545101173588591337,658.800735901456164356205,107.763728915944270170257,-249.757965074383776027389,-228.731480975339479755348,156.839382182557983469451
8.23000000000000042632564,0.986262793062270382016266,0.579236311782524104785352,0.963919285528602287627109,0.0211796308223567812667465,-0.02676763347870035267273,0.0287480746738480730240184,0.00408167133327460521924346,-0.00427041182578106158496123,-0.991047531150610727657124,-0.133377064816880719355652,-0.0630226332312133069590843,-0.0182370347417930810107745,9.82565777838685150413767,0.0211165141064291843331358,-0.00777128473452270811250298,0.000264555061696552086623196,3.63152001273283264737302,4.9010202778135179002561,1.23280162943270954478692,1144.37178694649196586397,1103.81393052635621643276,1138.19842727188415665296,1146.32985172662733930338,618.127135316567773770657,316.883164125483119732962,-237.47640418132681361385,-284.624379537592403721646,156.840163949380922758792
8.23249999999999992894573,0.676475282821029089141973,0.550115104404801824600213,0.643469997198667154059137,0.0231981971340620880817074,-0.0253585757978368013521031,0.0300813983878761535828428,0.00403013389965427033106993,-0.00433256538853580858844383,-0.991053432518020693819949,-0.133332648569071621214022,-0.0645228226426283052452604,-0.0162306429265669585615406,9.82479480412886196916133,0.0209722152884242278580995,-0.00784898958606235729040801,0.000311557557768546043372448,3.63147097916660932526156,4.90105690984893005435197,1.23280484945948565211893,1145.82083963702666551399,1104.8891254368579666334,1137.59819665091117713018,1145.58232911404820697499,553.073356049681933654938,590.123314763813255012792,-290.906943542962494575477,-299.62151306050651555779,156.84091504384321069665
8.23499999999999943156581,0.270761121079841571290814,0.493154459751114049304022,0.272496741741032555417235,0.025368745843270829737337,-0.0237912935084186039080834,0.0305571168355533891169973,0.00398182903181592672686717,-0.0043934962566254788865483,-0.991058557700983722149601,-0.133293950767795599254839,-0.0660816858645705690333827,-0.0145107329218592435993163,9.82399565337384039764856,0.0208137723615774775098863,-0.00792330864289370745412455,0.000346749751903546352908153,3.63142278138681184884717,4.90109207983402317410082,1.23280913417225490569251,1147.13715372673982528795,1106.76454710017469551531,1136.74389255416963351308,1144.83174416132510486932,391.010783386293780949927,766.85097626547599247715,-348.111370534652621699934,-226.148469377868536867027,156.841776763468487843056
8.23750000000000071054274,-0.087489757621960664857319,0.430020291296303147632329,-0.00896836263050020641995896,0.0263302398441329528477883,-0.0225383664584580430123584,0.0302325517694326979800667,0.00394470313129623943032565,-0.00444290144842353351695152,-0.991062876673248438486041,-0.133261306860759681791606,-0.0677854028270720582183273,-0.013293008406665710041672,9.82329453024637544444886,0.0206418161109613550185937,-0.0079986834449894649023971,0.000370251731814981921084295,3.63137613484594234947167,4.90112574283617252746126,1.23281393990379806169244,1147.77589355395843995211,1108.72338031818594572542,1135.85763979823764202592,1144.45158676715868750762,144.802809600810292067763,834.989245955381647945615,-396.351732071190667738847,-89.0552203672856990124274,156.842459407494374090675
8.24000000000000021316282,-0.445377604676895466617736,0.355465347095737904670187,-0.253622097894144471474931,0.0258009871364946914706895,-0.0215374450820387010330226,0.0293561922570701669399362,0.00391831344583349738125433,-0.00447640871363225341383885,-0.991066014053001320682768,-0.13323765455404762425573,-0.0695737430249439708918047,-0.0126448011071321995968386,9.82272660491283211570135,0.0204574478193777047063673,-0.00807956748573281091641007,0.000382632175994240277504266,3.63133064820202022815465,4.90115720396854914753249,1.23281836579413361931756,1147.86116777474398986669,1110.93949332995225631748,1134.76213389381337037776,1144.38646805948860674107,-97.8941480548395901450931,989.708921772595658694627,-520.240725752695425398997,35.957518659968506824498,156.843102986774880491794
8.24249999999999971578291,-0.841018975245798161566313,0.260608680239102108444627,-0.507980533234793085739511,0.0233468668422303418652497,-0.0207978892773091270096408,0.0278745311303582633810638,0.00389600237361206877192976,-0.00449464380416559044356672,-0.991067801881683863030048,-0.133224411386191232686826,-0.0712812877622030910407247,-0.0125087505691142998609511,9.82232591057799808709206,0.020261981830967647211228,-0.00817033955620945911979547,0.000384986790398402737179567,3.63128535434630661526967,4.90118646866656870741963,1.23282194408082124148507,1147.2864228136843394168,1113.67192492704793949088,1133.25643616947468217404,1144.63137436045849426591,-322.432223975960880579805,977.513368740148507640697,-563.47353355982079392561,127.42809095277888786768,156.843828340807590393524
8.24500000000000099475983,-1.12074939236522230778803,0.18241689655444237594395,-0.695725031569421337174219,0.0201181029652649223660177,-0.020527075897297044487777,0.0265072455273610008141816,0.0038706817398747261037284,-0.00450286379069301644778589,-0.991068779742459549098044,-0.133217596029994722606205,-0.0727502338701452727631747,-0.0127254261270000577910277,9.82212225435220354086141,0.0200567671230657273984122,-0.00827513231706671244236606,0.000379066715006649217027668,3.63123923204538101572325,4.901213754600544980633,1.23282441942257525724358,1146.24900665486393336323,1115.82706017365376283124,1131.94476622601382587163,1145.0236085142526007985,-520.820332124103970272699,793.476711180540974055475,-498.422761143105446990376,173.174551008396747420193,156.844392944919718502206
8.24750000000000049737992,-1.33454127643271314163087,0.108265132753296244860763,-0.870634799003853210308534,0.0165051605779276723551252,-0.0204502477394206023941781,0.0252143911921215470306468,0.00383871142502692540635079,-0.00450466551899308172840497,-0.991069722511270345677303,-0.133211439402902670492423,-0.0738901253559399867620883,-0.0131685180861041105371267,9.82213930320640926652231,0.0198432684879069100303273,-0.00839733161319369120212386,0.000367140426014530738777625,3.63119242222335492087382,4.90123980522617941346653,1.23282588025008288390438,1144.68232115306341256655,1117.63930848295126452285,1130.76432236375876527745,1145.49724711550061329035,-787.282224874499888755963,676.834367394802029593848,-436.049706252102055259456,206.166617205958658587406,156.844915953235101824248
8.25,-1.51483736281088021691232,0.0221396310456839565117271,-1.0731224147789701905964,0.012617147261566022745094,-0.0203316753996112785374262,0.0234175799116948420153239,0.00379948010238708496627558,-0.00450758740187677010846645,-0.991071069552797223600749,-0.133202445089667997901728,-0.0746848446381910974212204,-0.0136378771809219541399916,9.82239328231138664193622,0.0196232346400934017094375,-0.00853910466325429919065559,0.000351930225176291485485874,3.63114611734582970470342,4.90126497593511611938766,1.23282617408674299852578,1142.31259553049221722176,1119.21123201062709995313,1129.76451769475374931062,1146.0544416002821890288,-923.59351429299931623973,457.725144622463744781271,-260.709374840605050849263,193.915402065015229027267,156.845496032850633127964
8.25249999999999950262008,-1.60485129478793564494765,-0.0508080951669858948971381,-1.23110337459874408239102,0.00948422626064795472322633,-0.0201607670308724916397036,0.0213699818229898148846946,0.00375600685906728832749724,-0.00451226133687793531934496,-0.99107307059101545920754,-0.13318864529602156276944,-0.0751764308131675079716061,-0.0140747939425483678532736,9.82289291623239790851585,0.0193987280107422825625729,-0.00870123902066074518535377,0.000336221370660292327194052,3.63110178325574173285872,4.90129029343466182666589,1.23282534695291290383068,1140.064353581599334575,1119.92793420606312793097,1129.4607754895559992292,1146.46682412582549659419,-913.981204169424813699152,161.718047563383350961885,19.9659602230863733041133,151.744048122985901727588,156.845940620619330729824
8.25500000000000078159701,-1.63001312214268723188582,-0.128017243063808044967189,-1.35984525109092624362006,0.00569324248055524256839632,-0.0200428720200022496278347,0.0185181339484009367668538,0.00371181971465385463979092,-0.00451422108655732436111041,-0.991075002082978939732527,-0.133175463492658824327108,-0.0754090151696706206818632,-0.0145228712149126637509511,9.82363987465566701473563,0.0191721278268812446443636,-0.00888285934296650057928613,0.000322607023034793185395364,3.63105997003941149969819,4.90131627727656926651889,1.23282383610032497678333,1137.74268950964437863149,1120.01982224844414304243,1129.86434749586919679132,1146.81316184089723719808,-904.617679816642066725763,-52.4812235078033850754764,289.369474291288724998594,129.39341246945127750223,156.846345696188507190527
8.25750000000000028421709,-1.59525103838180015713988,-0.207786939778865392680629,-1.44464595624977665266897,0.00135667317563164971198908,-0.0200752944187414378296452,0.0148616812175572012705294,0.0036702576045932614259848,-0.00450953193444777588466676,-0.991076197763833488529883,-0.133167900736721772636528,-0.0754302994836531098821197,-0.015017597399165420052336,9.82462850361074835348063,0.0189457853871805546874807,-0.00908181981858145574715291,0.000313450905345754530628016,3.63102059815776234685814,4.90134341802234452245557,1.23282200024801791293783,1135.54126518251541710924,1119.66552808852406997175,1130.907622861012669091,1147.11379118817285416299,-808.911354477756503911223,-218.252129358550291726715,567.197815343137449417554,112.633987038020350723855,156.84671815812166073556
8.25999999999999978683718,-1.48384855588205288867698,-0.28418911619532083445705,-1.45333261610728969870365,-0.00307230868369629591535519,-0.0204089260642635120235333,0.0102788410472390429051259,0.00363336265178186698307505,-0.00449440824079902923743335,-0.991076634532568112589956,-0.13316621382578749943626,-0.0752689393000860046401002,-0.0155924833133714562521943,9.82584643925198264469145,0.0187217075131955908162684,-0.00929504019180354100482244,0.000310760479381677677361562,3.63098350838400873996648,4.901372676704922604074,1.23281992920797245361086,1133.69813273725640101475,1118.92856160165160872566,1132.70033657258431958326,1147.37633177608722689911,-685.571486724256828892976,-368.682327060860757228511,936.047359121816725746612,111.605406665852939340766,156.847050915838707396688
8.26249999999999928945726,-1.26835766366783930791939,-0.35773289332704771847915,-1.36094663497632062387765,-0.00771455631783351386543401,-0.0212888464747889062655961,0.00455432587225118156587511,0.00359893236732688418660908,-0.00447356664481788832143927,-0.99107675841932008076185,-0.133166979483118397276087,-0.0748984553553130177894204,-0.0161111461910507965111794,9.82727541886200128828932,0.0185013824886444931683283,-0.00951871287153557496529821,0.000316241473856219978966209,3.63094739548417466679098,4.9014043955718316070147,1.23281752602429883758361,1132.11340774889481508581,1117.82211645322013282566,1135.58785965662082162453,1147.67181822150200787291,-460.449357585794928127143,-416.55960402447669821413,1149.82044812905064645747,110.419423882359311051005,156.847403121461638875189
8.26500000000000056843419,-1.03504378017739262496377,-0.391408028158453824563168,-1.20536360593227231952085,-0.0104203854757202538788841,-0.0224603663005078120484814,0.000645983530170277510211452,0.00356423941601067325452012,-0.00445267962233934951055137,-0.991077109250748322644142,-0.133166069379123758187333,-0.0742890931774609214466309,-0.0164264631127629748275076,9.82889136608920921389654,0.0182857627950877531242124,-0.00974851011805212032401702,0.00033123054976168795401209,3.63091212266365737093565,4.90143892736798836295975,1.23281523895819478120472,1131.39588594932706655527,1116.8457635815288995218,1138.44943881323047207843,1147.92842889549910978531,-163.25336839465484217726,-384.047382615139213157818,1189.31454417347185881226,113.795758124324891014112,156.847655980064132563712
8.26750000000000007105427,-0.767490849481412329424757,-0.383594041186453404979062,-0.995307972984949662631493,-0.0119620174681023330731655,-0.0239589054993263085580057,-0.00160081380737676914893797,0.00352726064288946860106333,-0.00443598742027530995590823,-0.991077680928233339940903,-0.133163452582236219168266,-0.0734244752964230279479452,-0.0164326596009368997020061,9.83066498461618820670083,0.0180754023791635520801435,-0.00997974710527153342776163,0.000356664158893014494617485,3.63087731906574573415014,4.90147567433024811123232,1.23281292861058666687768,1131.29714090692141326144,1115.90187954014413662662,1141.53443237748911087692,1148.24079701212372128794,75.8344209061457092957426,-403.18459959952468807387,1340.77760082986355882895,158.167762822026446656309,156.847864374405787657452
8.26999999999999957367436,-0.42520574798295701635098,-0.320288482919591832587258,-0.716601763318229112442737,-0.0133787519360498464993103,-0.0256031437988190752053086,-0.0029309486482519790662149,0.00349433156894691111099549,-0.00442224868368271822882676,-0.991078369480563492466274,-0.13315975992249551307367,-0.0724395289642955769737753,-0.0161640570169530595201479,9.83256057593117027693097,0.0178704791675040018661402,-0.0102078242201421344470536,0.00039322986345551611073873,3.63084274232316994712733,4.90151435482961517209333,1.23281122910982943174929,1131.77505805385771964211,1114.82984058353167711175,1145.15332681737845632597,1148.71926770960908470443,249.125917702174035639473,-385.614783169952488606214,1260.94882601526774124068,190.367061007798184846251,156.848059637414792177879
8.27250000000000085265128,-0.129929101203354130378287,-0.225975575704374792573859,-0.479468653493907714935318,-0.0142624108763783341569109,-0.0263528812534541412304634,-0.00367023681562555484023114,0.00347050915683189955748822,-0.00441020988941356363588486,-0.991079021609436616735422,-0.133156028028409922914221,-0.0714463173972154780289046,-0.0156631967722554513167132,9.83453965069273472465738,0.0176709063619087426710852,-0.0104284776328978905785005,0.000441208657426663192809707,3.63080833679172743089225,4.90155468232587221422136,1.23281049203367021327438,1132.54277049543247812835,1113.97380562429407291347,1147.83917650756643524801,1149.19263231716286099982,352.922513079183147510776,-338.320968723784858411818,948.937593887910111334349,188.07062874868069002332,156.848173841317674259699
8.27500000000000035527137,0.167133001951035031762416,-0.0976078048827829364286757,-0.244067160887267792235278,-0.0143757010013819529897772,-0.0262557106368471321333757,-0.00460317672425362024030138,0.00345814230087234438654198,-0.00439822672667881508362653,-0.991079851754035123789777,-0.133150655431922393390209,-0.0705045833394506576974337,-0.0149831194188762110985902,9.83656236229112401758812,0.0174763860805990760283191,-0.0106380795859785329954272,0.000500522593839732910826756,3.63077432277127165605179,4.90159649879673242622857,1.23281047190123271839468,1133.53967061925391135446,1113.13823573991248849779,1149.89801478681874868926,1149.65962085335263509478,463.469788891008079190215,-361.540243762582633735292,714.340240717370988932089,170.180753966303399238313,156.848234513851593874278
8.27749999999999985789145,0.511788932898021964312818,0.089413753178022026268934,0.0348476609178026142110696,-0.0136506468346942935049304,-0.0255263021577004332873795,-0.00598126506399320866796954,0.00345435478655718893048476,-0.00438400375555759915652265,-0.991081181675882882942119,-0.133141406550139090869678,-0.0695711926515009265736822,-0.0141851644098718622510891,9.83858921129411001516019,0.0172865491865182123454314,-0.0108337270305067338849181,0.000570757450352390983093487,3.63074077186199550837387,4.90163963763690357922087,1.23281063618393837977294,1134.86011943988705752417,1112.16610440548151927942,1151.41087771115257964993,1150.04353608699420874473,490.72482171860190192092,-344.30426269188984633729,382.356877790183375509514,83.6386272344664547517823,156.848242516489136733071
8.27999999999999936051154,0.776271769808171030469168,0.275905971293875673655549,0.256080374969868462819989,-0.0124124894087144516802157,-0.0248666146613570615553357,-0.00684042121456274448271229,0.00345517932227815474655053,-0.00436907383056652550562537,-0.991082921281722595274744,-0.133129014219926150586204,-0.06859172619114610458535,-0.0132616592164757247929163,9.84058032917971736708296,0.017101095096240848808522,-0.0110132573433835163206895,0.000651469319720604706815126,3.63070835475563002958665,4.90168372357601889177658,1.23281084546031216575557,1135.9932947278464325791,1111.41671442645338174771,1151.80979917576928528433,1150.07781398952488416398,448.535634223274371379375,-271.346591060594960254093,-3.35205104397521047587816,-73.4180081565567661527894,156.848193595737740224649
8.28250000000000063948846,0.997791520063161518905304,0.505346724666549063087473,0.438478982769946623587742,-0.0104328627415012954726681,-0.0244615179100890617336361,-0.00630819539364244150775329,0.00346111483253740571247592,-0.00435626791609779184799578,-0.991085032290914602626231,-0.133113662300329227416995,-0.0676020202581053969437264,-0.0121970161685489714153974,9.84249482647952511626954,0.0169197067038361972923788,-0.0111755011324752295820417,0.000742294846097431163314817,3.63067757127239909564764,4.9017284015687563325514,1.23281123407364567867717,1137.10279761100377982075,1110.8093714501783324522,1151.39411745593270097743,1149.67644604621136750211,433.460363887275434535695,-203.932164150150981640763,-267.141275707403167416487,-244.372044832432948169298,156.848085724998782097828
8.28500000000000014210855,1.16644279862177135953516,0.777502138322099689560218,0.558281541852852836171905,-0.00800052313542652313027581,-0.0240922461724119955917001,-0.00426527767462007122156731,0.00346982113686341697017523,-0.00434986425712541140142786,-0.991087002747658374346429,-0.133099079362002686854893,-0.0665856354915970033436778,-0.010944452864393498098261,9.84429377207140454686396,0.016742061126734476134148,-0.0113202268627785301163824,0.000842714514613754762765996,3.6306476061137611388574,4.90177233378796994855975,1.23281184507473628997332,1138.16059654728314853855,1110.39705360570246739371,1150.47409279723206054769,1148.85595376536252842925,404.66701725816938051139,-99.4098959626824125734856,-430.230483882172961784818,-426.765894544035631952283,156.847928516460200398797
8.28749999999999964472863,1.24831349288944992714789,1.09718458310818256506991,0.569939483211674646767619,-0.00478578939600133538428972,-0.0232068192401818015890846,-0.0012481101919593216766774,0.00347947817430323616538779,-0.00434966023217043650656022,-0.991088476909715021534453,-0.133087961852188990663493,-0.0655238414806954966307373,-0.0095472411199279891280689,9.84594038783324698727029,0.0165676288639629229471062,-0.0114482705932996749881303,0.000951992892659464387886126,3.6306172555656512912492,4.90181455977968383308507,1.23281281810275000765387,1139.1261326972942242719,1110.31232197036501929688,1149.24296503652226419945,1147.54261657349161396269,397.624795684834396070073,55.6020750654083215636092,-532.205509549074577080319,-665.401787804590298947005,156.84771184812234423589
8.29000000000000092370556,1.2189618844193386149044,1.50596164224838013900865,0.442322980234484575134957,0.000226896797501062452706577,-0.020800026265071026865261,0.00224498357057566471500776,0.00349168804254545430895695,-0.0043501898403050433955519,-0.991089340971952337255857,-0.133081285281892641725321,-0.0644501547910101696414742,-0.0081594407287387364646758,9.8474000339244867063826,0.0163956376942189126222349,-0.0115613525523431716346412,0.00106924328232539471959794,3.63058601384118073696072,4.90185539945676396200724,1.23281438870356430115294,1140.14872052570763116819,1110.67506398102955245122,1147.81306524948627156846,1145.52894482633905681723,348.979540527980134356767,215.073560054964247001408,-466.231165706694696382328,-778.319837570840036278241,156.84738389087738141825
8.29250000000000042632564,1.07923081106593965472484,1.82847344640479114730169,0.229267501702587805922917,0.00478172120183521787151193,-0.0172950689765434713340841,0.00461568324330602700045212,0.0035070301814867769520101,-0.00434850911876487854212936,-0.991089419881450384153254,-0.133080426539465390689543,-0.063383991794147984122354,-0.00688092570250461305070289,9.84864157307167431554262,0.0162252188561011097267528,-0.0116617093865840435601422,0.00119353517674240078814962,3.6305535902172678675015,4.9018957075903371034542,1.23281688690942137220929,1140.87103039993439779209,1111.3876897706400086463,1146.91180920798842635122,1143.65101738563680555671,259.241435632435866409651,365.582001815100738895126,-264.392730163633871143247,-745.092009193934245558921,156.84705501960306150977
8.29499999999999992894573,0.834389807699088326131687,2.07293683574742937381075,-0.0542356984989459112167509,0.00860024316390402623899725,-0.011892491836894570830796,0.00579185229650416768393262,0.00352182414731165918664324,-0.00434543285703734363800699,-0.99108866901693992712552,-0.133085779738956605511291,-0.0622709417798872205684901,-0.00572281674385128821813673,9.84963872909648685549655,0.0160555632838626435865415,-0.0117519032641175708714387,0.00132389995541430638935354,3.63051971892754155035732,4.90193591572768561093199,1.23281951059102712342508,1141.44492770386955271533,1112.50297399010469234781,1146.49110159866836511355,1141.80348478037012682762,216.826591879405384588608,567.577570814204705129669,-71.127384013121229600074,-751.008635464872213560739,156.846670084333709382918
8.29749999999999943156581,0.470774622635702633122179,2.21078431750699433422369,-0.402777871922197938658883,0.0109186298744123489595781,-0.00336277544003039767506191,0.00485002925599155310099064,0.00353246024789069957422472,-0.00434401426222732946896832,-0.991087342742753008018042,-0.133095440920277779950354,-0.0610636880381517505034239,-0.00464698426096848624111679,9.85036944919256995945034,0.0158861135336451110566802,-0.0118347074546597836458561,0.00145944169819083361359924,3.63048537998555254091571,4.90197549086493467029868,1.23282147346874637605652,1141.95516335933120899426,1114.2255776247104677168,1146.55617228792289097328,1139.89597420831319141143,157.190938891310878489094,679.040104990447844102164,96.6579560620933904147023,-613.51541607750232287799,156.846145519135575341352
8.30000000000000071054274,0.160794666173094319416847,2.16757453288629520216091,-0.641598713777480234021766,0.0106052021416594300512459,0.00447518834315020850450617,0.00193650047000283186300618,0.00353708268235038451529628,-0.00434640338252046364020398,-0.991085772941590725793048,-0.133106917646580863445749,-0.0597470731904839597037338,-0.00363134262425971604537622,9.85081620662413293132431,0.0157167780426432993068353,-0.0119129212109704129413101,0.00159922007259155922118121,3.63045151397764076506292,4.90201422397882602410846,1.23282310261520167138372,1142.23088239832623003167,1115.89817451505746248586,1146.97439137897890759632,1138.73590769998213545477,78.925069560306326366117,695.85902056322117914533,197.458595572075921609212,-345.017792416538839006535,156.845657947334331083766
8.30250000000000021316282,-0.10161641809974167327546,1.96471027158052002903332,-0.773153616989232017608913,0.00867255912637060651093623,0.0112398019209879723029344,-0.00197170103543453482941583,0.0035354262115513874521755,-0.00435304171582489175112984,-0.991084024630674575995215,-0.133119722724308359174117,-0.0583332910910636243118077,-0.00268524018351258553227723,9.85096661750749369446112,0.0155480397876935922535369,-0.0119891476617114151742571,0.00174210155552215347450618,3.63041827217052404108699,4.90205176812830778487751,1.2328246501574509075283,1142.3497887071328023012,1117.70487272752711760404,1147.54346526578342491121,1138.17088524623022749438,14.6047340800152554152191,799.954094151712524762843,226.572289065643019512208,-93.7203505233542273344938,156.845120355017115798546
8.30499999999999971578291,-0.330187279917119491656763,1.58840153084785051795791,-0.785419345638909249807114,0.00586045674071821766359935,0.0169387313265175823429054,-0.00600848674099609646181985,0.0035297309558026822469412,-0.00436164203057629300958054,-0.991082114745775233366487,-0.133133753563578011158697,-0.056877622218787740604462,-0.00187130895285125831151163,9.8508137296414144401524,0.0153808655074266272672068,-0.0120657001551859287269419,0.0018866718391926601619546,3.63038601239289837607771,4.90208863057647548089335,1.23282708812531938136203,1142.30390606872629177815,1119.89794498581522930181,1148.10725282430689730973,1138.26730594736545754131,-49.2715295274061020336376,791.145210854132528766058,151.654283687343138353754,164.707310144259906792286,156.844420396896424563238
8.30750000000000099475983,-0.452563947674606670279474,1.21822513313654234856642,-0.684345273104793982987815,0.00390560199601312774131401,0.019699255692111294208102,-0.00849265386579714336157121,0.00352417235150023679807196,-0.00436618628372903872653099,-0.991080127490176931992494,-0.133148480167487176517582,-0.0554650536298626900544306,-0.00132354502006348795362101,9.85035664431401691842893,0.0152165862923611602819385,-0.0121445159656289412147823,0.00203118855995419213267272,3.63035565288435480013618,4.9021257107231708260997,1.23283040425599255129896,1142.10343105949573327962,1121.66059878179839870427,1148.3017366842202591215,1138.99442179695165577868,-112.825061587664649209728,675.339774473681131894409,-2.79466225697389702986584,411.12798227157264818743,156.843793754289777098165
8.31000000000000049737992,-0.532689775256983466533711,0.852574911914062649742618,-0.498005055631654758308002,0.00277910080980124825356103,0.0209126207120606255607242,-0.010178495451358982384904,0.00352417195010504063698575,-0.00436115474252897743906443,-0.99107796613197995938549,-0.133164673066011374213957,-0.0542080408481343672955077,-0.00116367700171143492737791,9.84960051379402656834827,0.0150567808759517057781707,-0.0122270804083970639764001,0.00217373995172015759685946,3.63032707991945358116936,4.90216336239531536023151,1.23283426191350953260439,1141.73978076078788035375,1123.27464385818416303664,1148.09327951302202563966,1140.32294585872364223178,-168.526300363952827865432,613.154799825482882624783,-151.409903754241099704814,610.4479674829995019536,156.843125163462616455945
8.3125,-0.605945239007603109193667,0.526820998592248401770632,-0.270208594498436205366687,0.00224899019989092258109409,0.0213035227995177732507326,-0.0112440340002937788632664,0.00353408771307788232424185,-0.00434674269352751385664391,-0.991075715097358700411689,-0.133181585759910459110245,-0.0532150584333335036069101,-0.00139329310158784955286926,9.8485566575765801644593,0.0149030193935857854792282,-0.012314572674289656420421,0.00231238796836391981640024,3.63030038275273669867715,4.90220119103705975760477,1.23283898190388541138418,1141.26079955767613682838,1124.72637278092520318751,1147.54468716544920425804,1142.04666163436604620074,-209.022552637812367493098,537.489874412920130453131,-285.157748573885669429728,748.240980480671737495868,156.842424208540393237854
8.31499999999999950262008,-0.698374920495959949917619,0.273986678595033006367032,-0.0309308001635542687002278,0.00197809831868413655425742,0.0211628653152414747395937,-0.0115764517123718366220508,0.00355252454504134109955493,-0.00432658756719386285161111,-0.991073126273702809108102,-0.133200970362273435343425,-0.0524926853549594479853013,-0.00192751626168853953946503,9.84724382539428866323306,0.0147567856619669410256357,-0.0124078295090980696840921,0.00244504707441640413423389,3.63027539155434908479947,4.90223856254260947906687,1.23284474954454714712426,1140.69466799759902642109,1125.96209323024822879233,1146.66749077015288094117,1144.06415076112625683891,-248.098546582429975160267,493.224859281931685472955,-425.580091279177281649027,897.705883499243782353005,156.841687178779608302648
8.31750000000000078159701,-0.845684290637988667072023,0.064350277701861677281947,0.218976783880683145699919,0.00121256091198733732469672,0.0207823891707989011345958,-0.0108304672351414686681803,0.00357839996436433134888166,-0.00430552449853500388693428,-0.991070020893081937707336,-0.133224015145021495998279,-0.0520576096929717541117455,-0.00265503254656545076284324,9.8456864153268668360397,0.0146191690811649527975691,-0.0125074666397218571545213,0.00256967759040377212442774,3.63025187834369766903819,4.90227528109789822963194,1.23285163372454209529394,1140.02030682476379297441,1127.19249707733524701325,1145.41678670905298531579,1146.53519105186296656029,-227.246776461161914539844,409.862416611831179125147,-460.433323869047740117821,869.71858048709736976889,156.840764666542696659235
8.32000000000000028421709,-0.991622147086349325917354,-0.0377150489386226875354602,0.362158731730596261666477,-7.97602818533628827842377e-05,0.0204557059754463012313241,-0.00919461684600481228557545,0.00360821882898879932322078,-0.00428649798596898029545699,-0.991066022128216483899621,-0.133253510368524369367194,-0.0518744680197823909706401,-0.00349259205286430243764251,9.84391490675934299758865,0.0144907398752017486237564,-0.0126137803606990641508423,0.00268423630035871012625148,3.63022901347975190944339,4.90231154483367692620277,1.23285925735220391885605,1139.5584341152930392127,1128.01140531330770500062,1144.36532415080728242174,1148.41274366356242353504,-141.765854943042540980969,284.051210366589771183499,-388.447093159616088087205,666.01041438097649916017,156.839966669010465238898
8.32249999999999978683718,-1.13576140974978279096774,-0.079784564146639369575098,0.408487837153247490551422,-0.00226546157058772883868825,0.0202092573858954349663719,-0.00691973614493448640344608,0.00364023668596517684103997,-0.00426988518510996398896973,-0.991060854090804577154472,-0.133291538621729377389613,-0.0519343700997122598161937,-0.004409617616639681381141,9.84196399493604268116087,0.0143713555457553078531507,-0.0127267591501196916659033,0.00278686289714687130888993,3.63020586440357906354848,4.90234845973111355021956,1.23286805540180943729922,1139.31147755004872124118,1128.61275312916791335738,1143.47455124325529141061,1149.86524312376718626183,-41.4673769941683261208709,208.685292253581479826607,-327.711014044800037936511,504.024387731815522784018,156.839141117766189381655
8.32499999999999928945726,-1.26362606787599607294226,-0.0835417662921278114662726,0.342295454875080951140376,-0.00609982496152957839874453,0.0200300248679397205342489,-0.00425188696152060431610042,0.00367463480432537016942551,-0.00425368338887133299458521,-0.991054785723525677454404,-0.133336160555161759022624,-0.0522577601034345945452131,-0.00542525638424613126931106,9.83987147057230160385188,0.014260089001057104154957,-0.0128461649526499417650616,0.0028759926795445620723024,3.63018230216066140059183,4.90238643677789109887044,1.23287788595336378349998,1139.3510972303222388291,1129.05483177457540477917,1142.72676908058360822906,1150.93286560222099979001,73.7215660943432595786362,108.256324086352279323364,-211.151110232971149116565,269.440105779771045035886,156.838121619132550677023
8.32750000000000056843419,-1.3009685402489450378738,-0.064479580161009228400637,0.197136635804773474589524,-0.0101438027763030621380969,0.0199711488722805474704813,-0.00262798244616109163973583,0.00371336300777146827156727,-0.00423741402093027845487949,-0.991048568478456237684782,-0.13338175561648779599011,-0.052900491147804692970702,-0.0065327048348216426587598,9.83767667149806435133996,0.0141553488052816780345955,-0.0129715608705598083039146,0.0029505844230394498439729,3.63015822230869567022182,4.90242579309634063378098,1.23288826472128643096937,1139.68008538052049516409,1129.15403474959975937963,1142.418795692090270677,1151.21244365266625209188,182.304875612697884434965,-25.8893247166684439264372,-55.9098934862416996338652,-2.2059801542123937956319,156.837250062759807178736
8.33000000000000007105427,-1.23980574762730855198356,-0.0407890072494697386584761,-0.00878300967066242624370354,-0.0143749619492314489876961,0.0199915454267736297788716,-0.00196373831063922487522033,0.00375504112256730849389585,-0.0042200534735658840751471,-0.991042690032994721960335,-0.133424778265759574891192,-0.0538478465958508595301524,-0.00772802834444327388374596,9.83542064452085895709388,0.0140552172208267302233597,-0.0131022663619913704718956,0.00301003062614998897345009,3.63013364519820269649131,4.90246669482500774250866,1.23289948009149274987806,1140.26262160838587078615,1128.92538515099204232683,1142.44721961315235603251,1150.92183570144993609574,283.159683922314741266746,-184.982002453116791684806,86.9632924865700402961011,-217.797660582116492378191,156.836357984093410777859
8.33249999999999957367436,-1.04461249410306566964834,-0.0254740252819635748515736,-0.27334530965238623689828,-0.0189402265267295186190744,0.0200927399433939654627146,-0.00222487214776925963655163,0.00379249981302696168375399,-0.004202547104874067816771,-0.991037391821654289891796,-0.133463609408283112589544,-0.0549724369977907939555095,-0.0089552488241317132477981,9.83314517891199102450628,0.0139576406100224790357567,-0.0132374931951029159438171,0.00305426077420724913918937,3.63010834935015758162535,4.90250922384958531807797,1.23291122642750750060259,1141.09588380013178721128,1128.22912473733435945178,1142.85361215452303440543,1150.12345534975588634552,294.151555495636273462878,-328.609165978008149977541,208.331044992304839524877,-325.389334938376180161868,156.835266257108997933756
8.33500000000000085265128,-0.790608271883351143571872,-0.0349413541424375279076386,-0.46585280800692752123382,-0.021841369251820685198906,0.0202295763316511431617606,-0.0032750375202661267948212,0.00382031968426691220103164,-0.00418709595715617121508556,-0.99103311658337145395592,-0.133495053291085352675793,-0.0561788213918622963971572,-0.0101398520447377425701685,9.83088943947562121650208,0.0138604833948491323880603,-0.0133766008065608447974437,0.00308398841110517482264064,3.63008250250951336468574,4.9025523075916668247487,1.2329232576114630415276,1141.73337938586428208509,1127.28233932110174464469,1143.48887483811404308653,1149.29488902675780082063,197.478548904351612236496,-454.283899761796362781752,311.751587198247250398708,-310.994325342559534419706,156.834340660988033278045
8.33750000000000035527137,-0.46839060130261439551802,-0.0778739180754131204986734,-0.579429543864884877280019,-0.023299695141258496694503,0.0203947813780975470421275,-0.00537898767909117218877224,0.00383428025072344311544037,-0.00417600803352961933573306,-0.991030315084279966875158,-0.133515827731185587889939,-0.0573892516101252997406945,-0.0112103549965654608611132,9.8286888197530846156269,0.0137617305838423770181222,-0.0135191373114737535543473,0.00310070354677410712010421,3.63005696143549938526007,4.9025951345046987484011,1.23293466034094612027161,1142.08327654465369960235,1125.95770523852502265072,1144.41237009051451423147,1148.56848372304284566781,60.9365951086723072194218,-589.863744380435491621029,410.391693301280383820995,-236.67953069630291906833,156.83340111006802430893
8.33999999999999985789145,-0.114105147764550274303019,-0.153217232761274940733287,-0.596263762408011488425075,-0.023582733883072831693184,0.0205415003493428227621109,-0.0083046203832418483831157,0.00383613714955619239735385,-0.00416866893168441662170798,-0.991029303975946351812354,-0.133523559356900939354418,-0.0586284740847203417191125,-0.0121702705476156754216266,9.82657259828175888571877,0.0136595502361627294668489,-0.0136648048570190173978123,0.00310664072533004117712685,3.63003211459031893681981,4.90263719183205370910628,1.23294426340473162184708,1142.0380623614075830119,1124.33302059920015381067,1145.54083330462003686989,1148.11149137327652169915,-138.392898538613991377133,-717.986199311832933744881,482.166515585327488224721,-84.7526905850541396603148,156.832452031591060404025
8.34249999999999936051154,0.252674506416220356896929,-0.26785252987328955764923,-0.476564769578523894644206,-0.0229195823250749608490651,0.0205672764951660598520267,-0.0115649365571483218884108,0.00383079841964660333317183,-0.00416865189704965482392351,-0.991030089121216928305103,-0.133517948565163413476853,-0.0599871827089242942721015,-0.0129525519264981799072434,9.8245631482668080991516,0.0135522930144387279693952,-0.0138132802420851547031688,0.00310473239150605177447129,3.63000812782439652437461,4.90267850038092767306352,1.23295164266147616594083,1141.39131205196076734865,1122.36777424196657193534,1146.82320266844067191414,1148.14472027011765931093,-430.136941773231285424117,-937.204090062449608922179,559.26725893973878100951,147.644960741558520567196,156.831494184491873511433
8.34500000000000063948846,0.682466934034753780480287,-0.441757558019588436604153,-0.183998697129288457663421,-0.0213952697929470012083719,0.0202492177638141090945112,-0.0145587930971842801491922,0.00382489087418611027960336,-0.00417601815506549612494469,-0.991032021067322688168133,-0.13350360888423373761924,-0.0615738450866703951325221,-0.0135665244851199892628379,9.82267626552569161901829,0.0134385015131897773976721,-0.0139640573366690053797035,0.00309804719762646037575782,3.62998445455534479719972,4.90271955701172945651933,1.23295783800636771232462,1139.88737765254109035595,1119.64700014888717305439,1148.33716959931916790083,1148.84971617698442969413,-656.397466878649652244349,-1051.33951794097743004386,511.748005576930211191211,362.987858762233031484357,156.830338464486942484655
8.34750000000000014210855,1.01826468316308438311069,-0.602525418998282380478315,0.151628034142792467164895,-0.0194818468886459456035354,0.019482615570155122769469,-0.0153378413748806105565414,0.00382504365756735405929012,-0.0041899163918766128833493,-0.991034446348216468969383,-0.133485217634489977678314,-0.0634885443158628853810299,-0.0140417998433681606718082,9.82092118181613038530031,0.0133167287124804929049349,-0.0141164680399713873826251,0.00308957165129284793553266,3.62996107766674080963298,4.90276118952046324750427,1.23296343012359876922801,1138.10932471756700579135,1117.11107665226086282928,1149.38194269632572286355,1149.95965956392910811701,-778.754822887476962023356,-1055.7545942949955133372,322.382791181390075507807,519.64647390033280771604,156.829373141807764113764
8.34999999999999964472863,1.31516988816969337960927,-0.753943601632451554372949,0.524357528612012013802257,-0.0166700673941451577020345,0.0179177435209422995787687,-0.0136467163779065703277382,0.00383266703943326665290914,-0.00420940937023511155962163,-0.991036580794113941550449,-0.133468576779431469248038,-0.0657239590718555616311036,-0.0143987124053779266819042,9.81930218362130879938832,0.0131856038587829585417843,-0.0142696261428334001536422,0.00308195874315505364757217,3.62993764530090246012151,4.90280393987396756472208,1.23296780850283971275871,1135.99360353810448032164,1114.36822717741324595409,1149.94908355522579768149,1151.44794854648557702603,-943.866972413104804218165,-1225.32969411276053506299,89.1304614511543036314833,679.97666719391702372377,156.828409407438670086776
8.35250000000000092370556,1.60766979505481510948073,-0.889568771079464082340849,0.948802488086342044049104,-0.0121117584978888449820378,0.0149134100765955859846379,-0.00968986151671343519387047,0.00384548268880629878427313,-0.0042335875551147454307066,-0.991038011959433640107875,-0.13345683883915937517628,-0.0681963000251325640599376,-0.014649245332107017208978,9.81781879496906917381693,0.0130437855281301581106268,-0.0144225909275266968301299,0.00307741983247691473432606,3.629913483045939859295,4.9028477986069054495033,1.2329704393166940334936,1133.38998985550074394268,1110.98442818169610291079,1149.82759500358156401489,1153.35954289989922472159,-915.621477775623702655139,-1225.25150579289356755908,-200.208558596355572944958,669.741353289859830510977,156.827259544330956941849
8.35500000000000042632564,1.78669779029839870254648,-0.941803982683655172003512,1.25257737191005880106331,-0.00761013446042342178027296,0.0115896135433703143663431,-0.00602630734937029816089549,0.00385820515435799510362003,-0.00426151612854571391897363,-0.991038773712738407795086,-0.133449933251752084206743,-0.0707593011872956062502382,-0.0147994667592341207218443,9.81646655218587760316495,0.0128900865136097660806902,-0.0145744749960452502079988,0.00307753085496770013157475,3.62988885311355558016544,4.90289326069113418071765,1.23297175696905925157409,1131.41549614922564614972,1108.24196964844782087312,1148.94804076224386335525,1154.79665531293539970648,-698.18978874777963028464,-1035.93261801136259236955,-515.18847132789483111992,486.11278142530528612042,156.826310198911414772738
8.35749999999999992894573,1.89122356987005213468933,-0.918320935091358370172543,1.48975919154285452172815,-0.00305602726947188773481967,0.00812968277618084447788682,-0.00265687993093448922982125,0.00386798174627990803270405,-0.00429021414819862490636071,-0.991039429211677314057738,-0.133443851189365525478081,-0.0733057652926815545013639,-0.0149025237893476401873638,9.81523669542107413121812,0.0127236020760332531331915,-0.0147245953596466926799335,0.0030830747160656120711697,3.62986444894089332890985,4.90293991578367815975525,1.23297284928449246699245,1129.89904091176254041784,1105.80476509164031995169,1147.25165264694260258693,1155.79010680702526769892,-523.913617582561187191459,-947.999138435086365461757,-904.319347448334042383067,290.440916236378654957662,156.825373576015209664547
8.35999999999999943156581,1.92846219710105604150385,-0.812916792380494301895055,1.69236783281068969841954,0.00222189265027444501909848,0.00475600733069347393622284,0.00127855951213656088283344,0.00387211578302530451053953,-0.00431891138732742527195363,-0.99104039443836600131732,-0.133435604751071718032662,-0.0757352427003425837659378,-0.014970448159848468577815,9.81411780795214028216833,0.0125439903066464960440518,-0.0148724515438146600437852,0.00309402468827237606477376,3.62984105947611190856605,4.90298736121335654303266,1.23297528678250367661917,1128.79592806131336146791,1103.50197395627333207813,1144.42644402500309297466,1156.24885989411700393248,-275.732968063087014343182,-707.191393568408329883823,-1125.95469036296572085121,32.2950002272541070169609,156.82426772630196865066
8.36250000000000071054274,1.88433401277957490727033,-0.682098889470949321101045,1.78599104619209625433029,0.00657889758406053539591118,0.00274351352455638264685178,0.00491518043161751419511951,0.00386727709566241778516016,-0.00434723196817058191165906,-0.991041561018454197906635,-0.133426109052415253763968,-0.0779348963200094252412597,-0.015007610760647084602315,9.81309750594948937418849,0.0123515871876316869065748,-0.0150177699740294667146712,0.00310955876907557937638416,3.62981859655750094262316,4.90303451709982596185,1.23298019544652914802896,1128.52037607144688990957,1102.26880812379772578424,1141.62187919512689404655,1155.95158180816156345827,14.6467915243624542398493,-324.367364969561322141089,-1150.54474186504398858233,-256.070645814730596612208,156.823363289188336011648
8.36500000000000021316282,1.75704240384624599258245,-0.539986653803246396954307,1.78464847980465091126234,0.0108683325158453469860831,0.00159851933537054563885804,0.00930401812401348247971722,0.00385350128424494925427624,-0.00437691055437003199990453,-0.991042999610704744561929,-0.133414786407042657012667,-0.0798631275495925857521584,-0.0149859803259931138874617,9.81216223541125209806069,0.0121471556205068314387985,-0.015160654340250106705823,0.00312847030388656906912948,3.62979768124834434317449,4.90308103111265669582508,1.23298739341635621435955,1128.86916201893518518773,1101.88013713142527194577,1138.67372031567697376886,1154.96850666504315086058,225.069335688476002133029,-8.45021247082681625784062,-1149.88411874114854072104,-492.832273758729400015,156.822478490127167560786
8.36749999999999971578291,1.55528724252254479942792,-0.413283864930773958690224,1.68906047829158301176733,0.01503976892622498583163,0.00116726672651934243636618,0.0141500479123367831763014,0.00383526991177706713317952,-0.00440899553352922142501757,-0.991045030474503874096115,-0.133399100538720977171536,-0.0815643142065511500549135,-0.0149015924551779872786472,9.81129808074982534549235,0.0119317271616473513651258,-0.0153015546587768197506207,0.00314942783044759762323128,3.62977890561816840531151,4.90312734080239920331223,1.23299591837145983141966,1129.64572274988904609927,1102.22655706144360010512,1135.87245860142229503253,1153.48742043936840673268,383.351778624986877730407,306.782684648257827575435,-1024.33237304169233539142,-686.666303064459498273209,156.821610990642994920563
8.37000000000000099475983,1.25822003805472593107595,-0.327353736799567140991485,1.46712160436376737315811,0.0188884020462617638336233,0.00140107718075778019291289,0.0188921863659574258698104,0.003817603532035791433219,-0.00444292046805868853787125,-0.991047443525644888850934,-0.133380492834420799619366,-0.083091069826028138289864,-0.0147832463648631534658406,9.81049285394282044592273,0.0117066021255291009828259,-0.0154410846939913824760193,0.00317111950058668020172026,3.62976208946895839702051,4.90317367350729682584642,1.23300471692880853069596,1130.7859209120604191412,1103.41405055466680096288,1133.55205845046771173656,1151.53517514972031676734,541.755073329847505192447,682.233929694832795576076,-847.682865774326501195901,-926.115079900310661287222,156.820765106872414662575
8.37250000000000049737992,0.79176023567782483070232,-0.281745607687667543039822,1.05510466100789512822189,0.0227076678796581318819925,0.00199711732875838517478617,0.0239102838552030967644857,0.00380384240661327125213043,-0.00447711261590456443409947,-0.991050132182204390751679,-0.133359723678649011446851,-0.0844637243695674638788162,-0.0146732332246528769659211,9.80973734276649445007479,0.0114730028461888892976628,-0.0155801332797432488808109,0.00319235004708919370419729,3.62974667617792601248539,4.90321953685322142746372,1.23301334070061963110732,1132.3544981165387071087,1105.63772670991829727427,1131.63404427254999973229,1148.85684503986612980952,576.959359900253048181185,908.107909930275695842283,-531.67407800157548081188,-1002.12724752229337354947,156.819775413929988872042
8.375,0.320223612435356796979136,-0.282876133259210627013402,0.605681313344285432442859,0.024985511070835630942355,0.00226037425031236404240897,0.027212421238558163333332,0.00379433486224160744157419,-0.00450678456378649557739768,-0.991052812269187954896665,-0.133339064375139065843356,-0.0856396795364119528537472,-0.0146670150922267768234253,9.80902628751307403831561,0.0112319898708291513594881,-0.0157197966284369737566262,0.00321195181489068335919934,3.62973137520428945634876,4.90326459945378179128284,1.23302149237997626940455,1133.67071771156111026357,1107.95459010431727620016,1130.8936880604603629763,1146.52453891210984693316,495.350434734935674896406,963.408664337485561190988,-111.401887056694590683037,-907.088806800537327035272,156.818971658281952841207
8.37749999999999950262008,-0.213246622958535525516055,-0.296316228917476442994428,0.084553873401960244482467,0.0259968253603671539675446,0.00151419293653393431317578,0.0289068812147023623815301,0.00379094156548553202698559,-0.00452789255813814805334827,-0.991055741416192681469965,-0.133316686386600352642873,-0.0866122557053419367401048,-0.0148463743430565578429459,9.80835673368640748037706,0.0109842100792875187187381,-0.0158613708259367700015297,0.00322894858799026253023956,3.62971526349599926675182,4.90330876648873914547266,1.23302910554433231560267,1134.83125029021289265074,1110.45477003160476670018,1131.07703483726663762354,1144.32140100586434527941,445.706113765275745208783,1072.29126350754609120486,271.158984504066552290169,-887.611707711901090078754,156.818189005381611877965
8.38000000000000078159701,-0.877969028205706214507131,-0.28499791125586226847588,-0.556378821494170061612294,0.0251413066164175094674427,-0.000879437911207456984863384,0.0283410255400641380996163,0.0037907370513055043022288,-0.00453693228226041862793938,-0.991059085339035639172778,-0.133291558493859568779172,-0.0872880870327051722190603,-0.0152681023945043202461047,9.80773011948521755698494,0.0107301945354074737548622,-0.0160060478387155924462348,0.00324235899007716595748851,3.62969775894127266724354,4.90335250820285040163071,1.23303649359037326149746,1135.89924828038783743978,1113.31604642185584452818,1132.2494829829809077637,1142.08648037354964799306,323.999772937208319945057,984.266347675503197933722,556.778139339443669086904,-720.936184028711181781546,156.817272796493739406287
8.38250000000000028421709,-1.4073578075612787063875,-0.231982238824397057896931,-1.04733505448255881375985,0.0224486342147673552382958,-0.00332785798928959255724158,0.0257432062179015451464092,0.00379018055468296121909844,-0.00453516997941339362193647,-0.991062537884647154484696,-0.133266010417917440955549,-0.0875797790817870319690641,-0.0158934941138149307682248,9.80715038915164605271002,0.0104706372297568538198842,-0.0161546466670885457972417,0.00325136978155349254393514,3.62967897919205384482666,4.90339606725816778975968,1.23304435426707681422442,1136.4512491548991874879,1115.37610176998305178131,1133.86092553396429138957,1140.71672008572022605222,144.074089874794964316607,728.045490253097568711382,729.119399012333360587945,-424.794117692902489125117,156.816526983629643154927
8.38499999999999978683718,-1.85293758973082645091779,-0.13522594038867544186111,-1.43212667967725826301262,0.0179863038437784554524068,-0.00474620082686101184971106,0.0214656425541237122489591,0.00378582171351843658688163,-0.00452840683782462522649626,-0.991066149713397903653345,-0.133239559882271013657729,-0.0874199367356832540698619,-0.0165934866549295803594966,9.80662344688133025272236,0.0102064538813638073372347,-0.0163075988602209079325611,0.00325536033557278928554646,3.6296603562797025155362,4.90343978795474022547296,1.23305297955751180793982,1136.61961872976166887383,1116.95627387312060818658,1135.89507997804184924462,1139.96250978508555817825,-10.5508920144096087767593,583.036279994328197062714,936.379340409671272027481,-189.91442390514887961217,156.815797319621253791411
8.38749999999999928945726,-2.22885843456540122531351,0.000378185852074244127640767,-1.72116777680881227752252,0.0111018197084852936196153,-0.00482404280678604916593466,0.0151373179311953803133362,0.00377452457401619917778945,-0.0045215334871828022356155,-0.991069725886457586483402,-0.133213577221199475086877,-0.0867517081707116638478183,-0.0172567206878769495437265,9.80615703737083421742682,0.00993910100118500922095066,-0.0164648160011419929238397,0.00325380438377121826085125,3.62964378880211935296529,4.90348475255334914635341,1.23306238025827363813391,1136.39849469482714994228,1118.29128316995411296375,1138.54282223601171608607,1139.76714796619467051642,-141.252133588637406091948,413.627662451043704550102,968.012419271857311287022,30.6967801636298851519769,156.814937209338069123987
8.39000000000000056843419,-2.37419576003717125445291,0.100818515426421728697903,-1.80107209882854113480732,0.0040631275045205318338648,-0.00413966697749717192633678,0.00940908774520694823895184,0.00375630972740962406491994,-0.00451707931913590283318216,-0.991073040516238457087184,-0.133189658452913528563499,-0.0855809320033519976833603,-0.0178251546514512151930809,9.80575928197471924363526,0.00967047931476375244308485,-0.0166258265312716549400029,0.00324636608357297849411505,3.62963008372071538332193,4.9035312146397407317977,1.23307197042472438397454,1135.91335806181837142503,1119.02441218537614986417,1140.73514207440189238696,1140.11599368590373160259,-235.744272206565682381552,248.246622517406052566002,837.59406510153530689422,214.700600901790579655426,156.814230632834636480766
8.39250000000000007105427,-2.32285099152257767940455,0.159658634289643108772339,-1.71878677758094777772158,-0.00386728516687105715668449,-0.00319913986454585172469756,0.00397328050746978671953213,0.0037349380666288822458454,-0.00451033480705743256011786,-0.991075774710639900710873,-0.133170217168463111967469,-0.083975222473592500693762,-0.018390921606615057842804,9.80543813263278885017371,0.00940276983715392089546725,-0.0167900188520937326819293,0.00323279277482628382006657,3.6296188018724881985122,4.90357895388346953780001,1.23308139909737612960328,1135.21977333379413721559,1119.53251628254133720475,1142.73079256152004745672,1140.84065097070379124489,-291.097492902794044766779,192.847176460502112149697,745.526204693408658386033,326.426192573964158327726,156.813530951715108585631
8.39499999999999957367436,-2.11547272282369824836223,0.170062211599231044578673,-1.52315504352826036615909,-0.0114289663646065468155522,-0.0021308205001034350757616,-0.000737285307993405802928777,0.00371425702025281060172923,-0.00449803339335280456118271,-0.991077641008777820985642,-0.133157380592524576812252,-0.0820160504877861101791225,-0.0190180493346968799983632,9.8052012331157794022829,0.00913819621238161176879355,-0.0169568447700475903594519,0.00321317124273549697618946,3.62960892445583915844054,4.90362746950551553482001,1.23309075039417037622513,1134.45787059730469081842,1119.98864806767846857838,1144.46277309786819387227,1141.74812464877322781831,-292.778479420894370832684,196.001364180089069577662,613.928725152522474672878,380.598783334912297959818,156.812834229744851199939
8.39750000000000085265128,-1.76260103411115909288753,0.115057590266135018053362,-1.23189437115890521035055,-0.0171235139740495007076859,-0.00113671584097101846522193,-0.00425501144054568798680283,0.00369553937106415712060548,-0.00448042327503451066200713,-0.991078580442500522984517,-0.133151535408149085393248,-0.0797526852816376891075478,-0.0196951631505713833925064,9.80505588742749445430036,0.00887885053926581145622432,-0.0171259982876192651257696,0.00318796100282644004342281,3.62959974513351291136587,4.90367655013547576459132,1.23310007679358268894987,1133.75588093668943656667,1120.51252310344193574565,1145.80043618728313958854,1142.74364488737865030998,-261.27169228607738205028,264.186232801516382551199,489.467731210803208341531,437.140534236072994644928,156.812138311331551676631
8.40000000000000035527137,-1.25685767956223504171476,-0.0227258806268589678978298,-0.83435581083503862487305,-0.0208778312847533592533367,-0.000355566291844356654940768,-0.00679176165428200997314923,0.00367941615754160044823862,-0.00445988505874820532343117,-0.991078661517984182971475,-0.133152074972702622046583,-0.0772361000881656573069378,-0.0203678664205858839242325,9.80500774695913079881393,0.00862667669896806897644748,-0.017297486492703826460593,0.0031579736768450098437222,3.62959033163492916784776,4.90372555656139041957431,1.23310903330920274001414,1133.15151213587409984029,1121.30957923168625711696,1146.91011175392259247019,1143.93382731995393442048,-164.464766844035665371848,319.158672408793620434153,326.861955271325768990209,430.980256431616226109327,156.811301490053438101313
8.40249999999999985789145,-0.833748081554890774214073,-0.18627218346641583046619,-0.507942235747680936874815,-0.0216751199490050720786183,-0.00017444881875174167809063,-0.0076001894854949162208535,0.00366727173799421234112739,-0.00443801212320823514068113,-0.991077954635028901542171,-0.133158393123380069944517,-0.0745382031988768151142821,-0.0209996354383986186253885,9.80505984154288690035628,0.00838357302106506468986069,-0.0174716007793662038427573,0.00312426497191921727705766,3.62957989853894824605618,4.90377352009389522180527,1.23311761710383227530485,1132.93355710246942180675,1122.10831646548558637733,1147.43474596363944328914,1144.89854616953630284115,-20.1995905289590318432147,328.193173853171003884199,138.89909286015642919665,384.489158629352573370852,156.810601443167996649208
8.40499999999999936051154,-0.469946900105447151752003,-0.379395237027530474183123,-0.230170094047575296558605,-0.0211847940871363674131267,-0.000570274307015923489355691,-0.00766494092854861502894792,0.00365939547395735921900273,-0.00441457013185052836445887,-0.991076359355626768099512,-0.133171249839592276131839,-0.0717127197143728606354429,-0.0215878219689716252527312,9.80521259531060174197137,0.00815160448449045275942648,-0.017648730575768080408583,0.00308802639758492614499574,3.6295690901768282721207,4.90382000673559836911863,1.23312557971705283321739,1133.05051418322932477167,1122.95054510095178557094,1147.60460721822323648666,1145.85627311310031473113,120.351239837399873522372,340.541202293608421314275,15.7976815403319825747985,428.816333828059498500807,156.80989788731810108402
8.40750000000000063948846,-0.133521012208218936567761,-0.613584484996391621436373,0.0133138093198634718805629,-0.0203337374982932410361069,-0.0017645850751639958423761,-0.00708379042414360952234498,0.0036535026923174957445839,-0.0043919024811975883315629,-0.991073839403904921496746,-0.133190905160489675429503,-0.068777442019031617692626,-0.0220740674792562624473291,9.80546346776565691527594,0.00793306345132279398801867,-0.0178290976945661011621169,0.0030506647740494701598335,3.62955947396328681975319,4.9038646415559545843621,1.23313266654186715065578,1133.53531330165651525022,1123.8110224769538945111,1147.51373437134111554769,1147.04262783867693542561,220.821425174119241319204,256.392373115300813424255,-62.5100756391832490521665,444.464948619928350126429,156.809049748628268616812
8.41000000000000014210855,0.0643421074764381345501008,-0.784227336009523323667736,0.127357819219834161872384,-0.0197145124588082344685436,-0.00334446287361020227688058,-0.00599475622356720246747264,0.00365033728259729064666295,-0.00436820393955122780738076,-0.991070707611144130488867,-0.133215064396960902737277,-0.0658048041979183012673005,-0.0224896831713319450551936,9.8058052707802030312223,0.00773031868838301543245262,-0.018012554566441772024854,0.00301351668576878804761687,3.62955290387842977040123,4.90390864868912323970562,1.23313906559277697283505,1134.15462130910009364015,1124.23250696652849001111,1147.29205684002727139159,1148.07859785620030379505,272.952406978228907519224,71.498924747734818652134,-96.3903023144403761079957,418.576510758377082765946,156.808340545394003129331
8.41249999999999964472863,0.195449331717913149519816,-0.895743369557741919706473,0.146224895744383631690511,-0.019227305422028335979423,-0.00566939304861634012222549,-0.0046680267874724913276796,0.0036525537848181815862858,-0.00434288757046752231516518,-0.991067698569909172334746,-0.133238201341384088216557,-0.0629130405797510977583542,-0.0228488298958189200993374,9.80622607819400116113684,0.00754552041182817226361301,-0.0181984098983858401388236,0.00297793041272803246655165,3.62955020097641511966913,4.90395372075611479800727,1.23314557499342458690705,1134.90007533654738836049,1124.16851710069249747903,1147.03178285976900951937,1149.1355103924684044614,339.671479494783511654532,-164.45012282922266422247,-103.974044181661270158656,448.381383413991841280222,156.807630539392704349666
8.41500000000000092370556,0.306702814990264083228055,-0.924903271509299296226914,0.0755202223856264454049381,-0.0188606915711048567230179,-0.00949810517944770990594883,-0.00337211315551655572975154,0.00365988058213064740981091,-0.00431769897565310867282307,-0.991065301426480638191663,-0.133256622178465372607903,-0.0601732713961594251061982,-0.0231158009056762307753541,9.80671061694607004710633,0.00738041075085536617261806,-0.0183854230908342478056916,0.00294522953449013764198883,3.62955029274428842001043,4.90400028838923596197219,1.23315257649220755276076,1135.85297870657427665719,1123.41025635238224822388,1146.77218661911888375471,1150.32050477327061344113,352.213832621363906127954,-393.426514361392378305027,-77.9796623859843691661808,396.707509998242869642127,156.806779966904400680505
8.41750000000000042632564,0.382658899184752210320681,-0.844783974977436180608947,-0.0364583064243995461084502,-0.0187701026629104733567388,-0.0131064150438442716950505,-0.00297162323515942324372863,0.00366694146210658298429275,-0.0042963557052061790084152,-0.991063446010552739906529,-0.13327086681816782687271,-0.0575642263313673879787657,-0.0232070587111123452506156,9.80724100494443717934701,0.00723607896320719191224358,-0.0185720012171939133360787,0.00291672924508982328584139,3.62955132605657215805195,4.9040482412788453103758,1.23315941708358667305845,1136.66114449965448329749,1122.20138452888522806461,1146.64188454783902670897,1151.11904794245992889046,323.708551313457803644269,-586.029212361816689735861,-29.1495479332355671431287,247.902288732260984716049,156.806073817077987087032
8.41999999999999992894573,0.458389677856726351912187,-0.656541861281959793217311,-0.16461342810976159478642,-0.0185538323400078787595024,-0.016076564836228216665015,-0.00359091130680444948347629,0.00366785546495362402633078,-0.00428271000086844887827509,-0.991061662220054651051271,-0.133284465274885161045759,-0.0550548435297519428432977,-0.0230387314449350850964482,9.80779580283001450879965,0.00711273777241054529912878,-0.0187564533111539075149743,0.00289374080528475826137869,3.62955225011072490914898,4.90409753846959350909174,1.23316532892608354821107,1137.47152146314124365745,1120.48011029057374798867,1146.62643887945273490914,1151.56001621693167180638,323.686507742077822058491,-747.987064565098648927233,15.852383197128316894009,95.7366843844928894213808,156.805371724668333399677
8.42249999999999943156581,0.537227520003124348058066,-0.395725391749143673436606,-0.276871249611872038975946,-0.0178317633385696519554564,-0.0179776013444432301857656,-0.00498469700617626323285725,0.00366003523430642524125189,-0.00427792371017930023180398,-0.991059467912088210006516,-0.133301038703054514078516,-0.0526687025684510062850663,-0.0225907734656720510235672,9.80834964089165062262055,0.00700963414570527840186109,-0.0189372087679406768401247,0.00287742032347712084830449,3.62955256686976790447829,4.90414813664222926092862,1.23316974176480975700088,1138.27957703836455038982,1118.46144920606047890033,1146.72114646382465252827,1151.59773136438229812484,316.612509136344272064889,-838.279074971847762753896,70.11107363099468159362,-96.8521085130154091302757,156.804673627706193883569
8.42500000000000071054274,0.614484469497611041077789,-0.0816133586115798670412858,-0.343964063266185726686075,-0.0162237405862411220025532,-0.0184181019854427960313892,-0.00679148521005912969572549,0.0036460976021426595716779,-0.00428054480597289069981892,-0.991056909993027979055569,-0.133320215022987104136476,-0.0505194135930740334528011,-0.0219094658621939407383561,9.80887348303636841251318,0.00692502653000313592168702,-0.0191129851401919612086111,0.00286861287430786654137349,3.62955223209624833202724,4.90419957069815470873664,1.23317299053583351309271,1139.05458400882321257086,1116.28871491571385377028,1146.97699424760776309995,1151.07575567436651908793,313.175904624446218349476,-934.155113369742593931733,158.711327841977180241884,-356.17616156022342011056,156.803980706168601955142
8.42750000000000021316282,0.697103493437223442619199,0.308807117862018087883769,-0.357719661885058271000304,-0.0135734661094520214080772,-0.0173843298129482196068274,-0.00847586817081149787589389,0.00363260643805726540431222,-0.00428643761967766132731095,-0.991054320678259603738525,-0.133339485155175713204656,-0.0487837700511729172037079,-0.0211054958844468301681907,9.80933594101188433000971,0.00685642500062977507113704,-0.0192828245105062072439761,0.00286764865393697139864249,3.62955177515127358489622,4.90425159678974864618795,1.23317596504154769476713,1139.84545656148702619248,1113.79067363921103606117,1147.51470310303466249024,1149.81685055658090277575,243.586600261554195867575,-857.637503205285270269087,238.50599018737938195045,-547.897909507464532907761,156.803155132705995811193
8.42999999999999971578291,0.757763367530050913067896,0.615224938576287683211774,-0.314298791316503234316571,-0.0112690953872572208888103,-0.0155160323189680472016905,-0.00919331328728920614545839,0.00362596385939340610723991,-0.00429165889386831991836324,-0.991052045722359831181336,-0.133356251420877841562529,-0.047627323188941986242817,-0.0202870960496118121763054,9.80970520921744792985919,0.00680080862796844827500298,-0.019446073091484945838392,0.00287431899814079554883461,3.62955131853858725676787,4.90430399151327467421879,1.23317956688418028932119,1140.27251701013074125513,1112.00052739968828063866,1148.16952419854442268843,1148.33626612682974155177,92.1405108857781272035936,-615.838550101529222047247,296.062849605413362041872,-643.841207064078275834618,156.802471694833059245866
8.43250000000000099475983,0.820539550312984089508461,0.877726589460074646531496,-0.218797277779462617797179,-0.00921080049008358298090471,-0.0132071241484036129565371,-0.00980256909351899519133866,0.00362994500564864418581945,-0.00429613931256969412003643,-0.991050373699667752624975,-0.133368294829759315156537,-0.0471643594770401602955801,-0.0194813357669146244854907,9.80995043651931375450204,0.00675471931893981396982651,-0.0196023576187459268316271,0.00288803263210501417676546,3.62955070003871682615681,4.90435675723783415236312,1.23318431831290342692853,1140.30615911591598887753,1110.71148088870290848718,1148.99501735106196065317,1146.59764452126000833232,-101.025132718207387938492,-423.245442888789739299682,371.386916300194741324958,-772.866952345309186966915,156.801792063569052970706
8.43500000000000049737992,0.918352348421159869751307,1.12748909572514444121794,-0.0488190997506308677067466,-0.00752553768590232072949187,-0.010151804246148511678971,-0.0108763729028314645730369,0.0036401115368835273468362,-0.00429923145737196553406445,-0.991049202674221030306967,-0.133376535523630324053812,-0.0473360980641318179751309,-0.0187057344825801129262199,9.81004431112019226191023,0.0067144706554221568126084,-0.0197515587045281500178096,0.00290772181171514414871337,3.62954900435799920899171,4.90441006367049503467115,1.23319016079675591868181,1139.76739134653962537413,1109.88430018524400111346,1150.02645878004568658071,1144.4719313651025913714,-296.595278383315303472045,-179.35373738718155323113,349.726569167502475465881,-750.194372967656931905367,156.800979547423082749447
8.4375,1.02977283157164301030662,1.27513065686575566282102,0.131500054571033558881155,-0.00668096364806761155996639,-0.00706966040902491568015398,-0.0114990237571107271202786,0.00364655611820788403548699,-0.00430184596814911675288773,-0.991048314188142431824247,-0.133382855138369088576766,-0.0479687589666733110727037,-0.0179326696677317154460241,9.80996313435818834136626,0.00667618340846516666875488,-0.0198938085744464615567395,0.00293211309222911808633483,3.62954567243205650228788,4.90446377364638497198257,1.23319657659470238719734,1138.82318272399970737752,1109.81471220176717906725,1150.74365019689912514878,1142.84667265642247002688,-460.027338780401464646275,84.2459199182653009074784,208.452432868394311071825,-585.502097886754313549318,156.800304156680738287832
8.43999999999999950262008,1.16779396864017726009877,1.35566615997813455507526,0.332500611164182668932909,-0.00552844878883682229464558,-0.00363840323868655068223488,-0.0109848870199135521807943,0.00364579955293986004635776,-0.00430484837036561839018756,-0.991047571615677580503245,-0.133388342215890826070179,-0.0490002052474809851601023,-0.0171505843623841330858326,9.80968469820185617891184,0.00663586640659693909050088,-0.0200294953427068711526715,0.00295987287623185671425752,3.62954174355553771391669,4.90451812088872074468782,1.23320277331859506908529,1137.46725465263807564043,1110.30552978483524384501,1151.0687209443874507997,1141.54442087566940244869,-642.573067029652065684786,303.993881042195198460831,1.52496439668515249010738,-474.230468351305262331152,156.799629955673083259171
8.44250000000000078159701,1.32841658588956557096594,1.37506640982955907759333,0.567346693945072533260543,-0.00263810084024202525648795,0.000511030529887425053435501,-0.00913265047215056080531781,0.00363544907495476181391592,-0.00431350302982712058980086,-0.991046860290174747021297,-0.13339374699374417776454,-0.050387500035938156961457,-0.0162629322774465734369187,9.80919007728157943404312,0.00658965544792906778720498,-0.0201592042918165847975587,0.00298977252637107771687797,3.62953730234906180029952,4.90457289669474505444668,1.23320856939072487357123,1135.61031738885094455327,1111.33468160697839266504,1150.75127501888255210361,1140.47552031466557309614,-674.807327073343913070858,411.743907789722697998513,-257.744266364812290248665,-303.64598286618985412133,156.798822147961971040786
8.44500000000000028421709,1.41762995967465132984842,1.33035890698962488976065,0.738684980223902276641468,0.00132476635706234324198205,0.00402365974030236255715165,-0.00701656586103852151353744,0.00362016660603868382917181,-0.00432848318804099612550074,-0.991046223413397764367971,-0.13339859259408770597588,-0.0521996691107866755965361,-0.0152777675454009893851737,9.80846311694693717697646,0.00653388250154380168660539,-0.0202837856978219412129594,0.00302032115803888391927789,3.62953247374533161107024,4.90462819492569757073852,1.23321452709833456751198,1134.09321801727082856814,1112.36424932378417906875,1149.77999961256318783853,1140.02619096133821585681,-550.922056701365818298655,399.504479845006585492229,-537.771095412715681050031,-93.021549993609681905582,156.798150253783973084865
8.44749999999999978683718,1.41342823435399855824812,1.23056421742873989266798,0.870877777281249931817797,0.00634703590192029799832429,0.00758724782946593873100838,-0.00466336675429330181630316,0.00360883824764898471573749,-0.00434547687414836136116092,-0.991045578383839997904659,-0.133403383211224163540365,-0.0545620792633133150362212,-0.0143078036995021758148727,9.8074915258230230818981,0.00646528198178973004944803,-0.0204043346704722051987435,0.00304970111518038881209813,3.62952773078816637308819,4.90468410256459996787726,1.23322140221333165222006,1132.85570710534466343233,1113.332204006203028257,1148.06241954181950859493,1140.01041256469761719927,-422.671522948205563352531,346.051035757523720803874,-790.514445728170244365174,55.2935528469443795529514,156.79748040994900293299
8.44999999999999928945726,1.31051594013773065050543,1.09596591006644139554282,0.966641819874876628837512,0.0114169724903999316584224,0.0108403016215428624202666,-0.00230383112805786780322159,0.00360716942822676168989293,-0.00436349934235659518005912,-0.99104509572933818795093,-0.133406724161208606327378,-0.057535248178586032019588,-0.0133883728404313832871519,9.80626844705121492040689,0.00638096671432232098036819,-0.0205221963151455376317411,0.00307613084846273046601972,3.62952365085804595778995,4.904739951909784068107,1.23322981716198021295838,1131.97986040253022110846,1114.09450450257145348587,1145.82742738392312276119,1140.30265872557288275857,-252.329641600278250734846,231.052113586620436080921,-969.611898511569393122045,174.294819816141199453341,156.796813124861614596739
8.45250000000000056843419,1.08873039667440973943258,0.939735199269284615652964,1.01820670345813546475711,0.0154613139905730168077724,0.0130875270607238823605822,-9.20381344545904891280008e-07,0.00361527443023965154925148,-0.0043844219942888191382524,-0.991045237932646871925613,-0.133405111012179167229164,-0.0610679792248146474653581,-0.0124799109009032446748755,9.80479318869139149228431,0.00627842417686694589940011,-0.0206389641061099117502753,0.00309800024209673161013079,3.62951969027758103436554,4.9047952485419923362997,1.23323949695958745564894,1131.594058897343074932,1114.48746457413631105737,1143.21436004926090390654,1140.88188666377845947864,-68.8437551128010198908669,78.4475627671204307489461,-1155.10607543956348308711,298.644780012453963990993,156.796150352898052915407
8.45500000000000007105427,0.713854489852214557643606,0.755663169667167955445564,1.02938905329113694619991,0.0185068913810265134323174,0.0146707966194803210435715,0.00290792822962812180093151,0.00362686387845168175733668,-0.0044133707783594764914592,-0.991046050564380220926353,-0.133398184752913762096682,-0.0649839194757629995402581,-0.0114591254345861523478156,9.80307142899446226635973,0.00615571572927999573904279,-0.0207563306848620628131119,0.00311407819587792037904772,3.62951529459228083851485,4.90484970383640206392784,1.23324942646043389515853,1131.63564162696616222092,1114.48674231640711695945,1140.05189700672440267226,1141.79588262563538592076,77.0270156032591728489933,-69.8154137863323427382056,-1103.34574322900266452052,358.443927864553586459806,156.795362587003609178282
8.45749999999999957367436,0.342793820218239397856763,0.619678350937837740808334,0.99607721129752668787205,0.0195822985849958518256297,0.01562747395083120480197,0.00558736486162502658109341,0.00363577000876124213982199,-0.00445010443727512482875452,-0.991047048669782881802348,-0.133389670756554806763106,-0.0690875356091166098471135,-0.0103041470298413130601833,9.80111390891690170690254,0.00601151794954337542753464,-0.0208759807624771566436639,0.0031232913566147614201074,3.62951040012757131236754,4.90490281660551552533889,1.23325821416187020318489,1131.97919397535929419973,1114.13838750520471876371,1137.69763133311698766192,1142.67410630310087071848,170.586040397548174496478,-187.33972622991842627016,-825.97811430014917277731,367.709450806648248999409,156.794714486230560623881
8.46000000000000085265128,-0.0500048662621032785624564,0.507438456223524236854416,0.919976639810390350859848,0.0194463109819484614160245,0.0167528112735023486379315,0.00833914604954297776495675,0.00364027709453891611460219,-0.00449286824956797361391159,-0.991048171209001904635727,-0.133380056138138497479062,-0.0732604400945300188174869,-0.00902978046449977311826984,9.79893451470196552577363,0.00584484902372792505809151,-0.0209994447465331329771843,0.00312484702157936810804073,3.62950547928799105434905,4.90495475312447215543443,1.23326568407322767484402,1132.48857182895403639122,1113.5500436852573784563,1135.92200643522301106714,1143.63442987966891450924,234.190838541380571768968,-278.466709533087964700826,-613.707794063242999982322,441.126649053716562320915,156.794077975436209726467
8.46250000000000035527137,-0.508102223997053070725372,0.397377597649744229713065,0.788456364917605290187907,0.0183425901259849748192732,0.0181384386797281242642566,0.0110769255083650996346334,0.00364360614133691458269015,-0.00453722984696914872354556,-0.991049582622006597354414,-0.133368090156264940127073,-0.0774695345314682509707538,-0.007712225129532516293418,9.79654967640181162380486,0.0056551680607790011032221,-0.0211278585740816218785376,0.00311801309212937811932154,3.62950113293285037130431,4.90500643817806469826337,1.23327289145298379935412,1133.15014816806638009439,1112.74605395753906122991,1134.62909236280029290356,1144.87973954836979828542,240.219657483160119681997,-284.51542250819534274342,-334.784814981797580912826,472.362519143965357670822,156.793331475358712623347
8.46499999999999985789145,-0.855728325177824267200322,0.323322834449109641763442,0.657117421123028067064809,0.0167804068935477578017323,0.0190566754976943530941469,0.0125589058445339935010665,0.00364969750426432553228051,-0.00457247718988794057959346,-0.991051269449339966577384,-0.133353995357426147183588,-0.0816774887297949253595064,-0.00654947633346440391544085,9.793979490400836596109,0.00544254638606627653280023,-0.0212618170705547934740132,0.00310181393851088329713384,3.62949732892079568458144,4.90505959363829280306391,1.23328056473191138842083,1133.68967011636959796306,1112.12746657271668482281,1134.24808236031435626501,1145.99624247538827148674,212.049249721254795986169,-208.492724529601758831632,-34.8028292773575316232382,456.922873723306054216664,156.792727039511731845778
8.46749999999999936051154,-1.14240593298490544782453,0.265392631635510578558268,0.517040163564071453272675,0.0143339664427287842574099,0.0196435336976465285685478,0.0132099592531857695093533,0.00365801813775488461610852,-0.0045934218463238836796525,-0.991052813259116649469149,-0.133340887974154387318748,-0.0857747490814442931084116,-0.00561989524766438527936252,9.79124795165067673963222,0.00520776903955278997609968,-0.0214013348903776060017101,0.00307552164871188879122221,3.62949413080047733615174,4.90511420121010122130656,1.23328888177426043704088,1134.21039441667244318523,1111.70359033489125977212,1134.45507821641353984887,1147.16435391698587409337,231.41964882116573676285,-116.455602891146540400769,172.632407910232672065831,505.523738575050742838357,156.792145198644703896207
8.47000000000000063948846,-1.3866459839524838404401,0.211423018412647406583105,0.344571922576513145486388,0.010055570239530960824359,0.0200381232710171199029592,0.0137870613248295848657365,0.00366722987003299458197425,-0.004601185569270313004131,-0.991054024001892353012977,-0.133329967259901260856481,-0.0896549585802248610866272,-0.00487653516480235013630384,9.78838125906092137995529,0.00495214866093164705201923,-0.0215460633673820560474166,0.00303880142141436113481512,3.62949198567365893808301,4.90516962849917881328565,1.2332974606739448564241,1134.84676836047560755105,1111.54518855826086110028,1135.11124439986565448635,1148.52386116826392026269,239.567515599591217778652,12.1388341992295991644824,262.830923572987387615285,467.292504883216395228374,156.79147862671149482594
8.47250000000000014210855,-1.48968492790107931433852,0.174758140590965088678743,0.192275368256673129252476,0.0055146770148068492700677,0.0202039292914666691880488,0.0146739005621381920357882,0.0036737049881898995590257,-0.00460288180409005719811999,-0.991054645302464343181725,-0.133322768861353774250134,-0.0931870949580044100057918,-0.00415120027727920379301274,9.78540786260735195867255,0.00467763211840050915912848,-0.0216954073585198352336345,0.00299177121330989649605758,3.62949153833822713011159,4.90522483083197435860257,1.23330547369043230787611,1135.40823199467058657319,1111.76428450588741725369,1135.76923283427868227591,1149.50081644140232128848,229.704963281619939152733,166.348263583210041360871,236.080569190291186032482,323.148823925903968756757,156.790953885891070740399
8.47499999999999964472863,-1.48155572887848308027969,0.136708048454914160574347,0.02245907105708254414278,0.000566819617029692079078484,0.0203136871494014464856193,0.0157409202645654167085354,0.00367553499523038101209904,-0.00460478550539226982873942,-0.991054444305680570792561,-0.133320655351038513947159,-0.0962771252561683693604877,-0.00329841055287914339255728,9.78235732233064680940515,0.00438666046561085078148157,-0.0218486287272754153843124,0.0029347172202370121023296,3.62949377042557497219377,4.90527950894963815642313,1.23331279618602907000025,1135.99529317688347873627,1112.37692987617674589274,1136.29164724581687551108,1150.13960528789311865694,231.60778926790970899674,308.256263528161980502773,158.609561311207244216348,174.783404417412356224304,156.790466246712838938038
8.47750000000000092370556,-1.39165685614267675695999,0.0865231789412117119342227,-0.162159428297815960684503,-0.0041390405909291919442361,0.0204428201298950500131024,0.016437400267312472085246,0.00367414717965176959232898,-0.00460974349090521092614514,-0.99105337924509318003885,-0.133323653113270379488853,-0.0988940374135772043429071,-0.00225038771074708918162877,9.77925953416003679308233,0.00408188577974342384907525,-0.0220048589154994353456196,0.00286790247998053218075887,3.62949862437756820554569,4.90533361286999625150429,1.23331923761269490746884,1136.56627094101031616447,1113.3055658235284681723,1136.56228064083484241564,1150.37473346348951963591,209.164785522638396741968,437.767611914045801313478,29.6616992638018039940562,-20.962633665791507553422,156.790012618873333849479
8.48000000000000042632564,-1.23577055803310265069683,0.0054006466236678658809911,-0.3524825998409771843356,-0.00785470833299250527359536,0.0206358964329155861183729,0.0162738734140278028250659,0.00367537752298625897129369,-0.004616488529307879833119,-0.991051584653130368529617,-0.13333060904837870652706,-0.10108995365283000855694,-0.00103389604367560075659505,9.77614400407594175135273,0.00376589039612549789093343,-0.0221630624510083876210764,0.00279142924217593490707201,3.62950518034525559940562,4.90538721056316884272519,1.23332542744353435004712,1137.04111710449683414481,1114.56576793574731709668,1136.43995574213590771251,1150.03479211956414474116,163.964038530399079718336,610.762023940272797517537,-147.95631826148780874064,-281.334596664611638061615,156.789602818556403462935
8.48249999999999992894573,-1.03160473638376526395177,-0.148996675131430861283022,-0.559633290112109715863653,-0.0103575675095593719432507,0.02092058293394401247145,0.014531540550689576313248,0.00368720330370743724565652,-0.00462087371884562468637991,-0.991049599737026554180375,-0.133337570645228803423166,-0.102960281385681515220476,0.000259463504322755139641643,9.77304020944236739865119,0.00344091327669362925106844,-0.022321988956944954773931,0.00270521510383411748282279,3.62951240495054339163516,4.90544122386791947576512,1.23333179115540292336561,1137.38609113366214842245,1116.35937594322922450374,1135.82249904952755059639,1148.96806048016674139944,73.8512720092022902917961,685.643189536858699284494,-295.373306543310377492162,-482.450984121674594007345,156.789163933998167976824
8.48499999999999943156581,-0.890182646199254912211529,-0.337331004970231662642988,-0.693451838851979363020916,-0.011012824365176513211062,0.0211124276630927643072511,0.0116832908911299344217882,0.00371112033034010600773822,-0.00462282742515894486817762,-0.991047900211837751172084,-0.133341348087259281562922,-0.104495452605285130132096,0.00162886037823818316527813,9.76997973686486886890634,0.00310899345099177690926462,-0.0224800806236986859543148,0.00260930577610092064022584,3.62951918168769527284212,4.90549609587517387865319,1.23333795415234481751554,1137.41037346454277212615,1117.99398388343092847208,1134.96308920941964970552,1147.6225371989562518138,-58.521190151022842940165,656.524150490428951343347,-393.711240096974790958484,-595.911005311334179168625,156.788842843684250283331
8.48750000000000071054274,-0.810827302062874899490907,-0.592490311954996240473292,-0.776227718022092227911912,-0.0113933900564304451535902,0.0210300436905125481823475,0.00840764481714357039821017,0.00374668032598537243879622,-0.00461908565425822852795745,-0.991046897504551993485222,-0.133339783204941692007495,-0.105650619550025040571661,0.00301096390749091072369659,9.76699523687194215426643,0.00277208871569462837053388,-0.0226355505383089294912935,0.0025035952638584294156765,3.62952520847684567684155,4.90555225246693460405822,1.23334392351104327190114,1137.09348518290698848432,1119.64199669568188255653,1133.85394284904236883449,1145.988505453609604956,-227.003149469975113561304,692.812843962547844967048,-511.395149677184349457093,-735.265010632086728037393,156.788567576196555819479
8.49000000000000021316282,-0.790555590954227449529412,-0.962719588676459903098248,-0.833990531375055299534438,-0.0126204145619033623187955,0.0201721351432164672234926,0.00552449711050544741558488,0.00378837521590680813277086,-0.00460563190450969522915514,-0.991046650090809833066885,-0.133334006896696666277791,-0.106292251854098393493153,0.00433439214585537233026535,9.76412105667362695271549,0.00243243434630693302830884,-0.0227864295680190453996516,0.00238795077990757971878044,3.62953083963786848897826,4.90560942358076701452774,1.23334901240085437201799,1136.27535771719271906477,1121.4580481032442094147,1132.406113461033328349,1143.94621214579524348665,-373.67560083410512561386,610.618532989504842589668,-521.106611787639849353582,-728.183925342281554549118,156.788288094708832431934
8.49249999999999971578291,-0.820912199672275577633229,-1.29966522029383413361359,-0.874158700691281875805316,-0.0144361260356764206647107,0.0183998659877286606378899,0.00444102932401006095242124,0.00382770622601860894054782,-0.0045856216924160140765987,-0.991046976804107249137132,-0.13332738303330354812104,-0.106259376673200719998214,0.00566791978192613885023654,9.76139117791161403658862,0.00209272362626227370271947,-0.0229306277147378577419001,0.00226255338168004178564519,3.62953708151893472688698,4.90566694773177847110901,1.2333534043060248031054,1135.22510717873683461221,1122.69508936062879911333,1131.2484097901046879997,1142.34758582689892136841,-487.801035997214228245866,404.477881454050020693103,-415.848505451257096865447,-586.296590864366635287297,156.788094989751584762416
8.49500000000000099475983,-0.874119009659553025670675,-1.61964663615719506317703,-0.933807978917015502062782,-0.0166948264293092611676439,0.0150139324451626643419644,0.00438846135344151191959305,0.00385470854236211407997659,-0.00456057783694353759823548,-0.991047854985878329259208,-0.133322935335465408979161,-0.105370479432555660959103,0.00704699749731932043039784,9.758839208512457119582,0.0017561213706128407912449,-0.0230660579874258121757524,0.00212744989843451038843969,3.62954531889475973116532,4.90572507764302745414398,1.23335812295208935296387,1133.83635253720626678842,1123.48043751051477556757,1130.32687093377671772032,1141.01472919147295215225,-661.604594542756103692227,211.887743411228797185686,-310.721086600366675156693,-503.42004534951547611854,156.78793908213037866517
8.49750000000000049737992,-0.935353344286485310909995,-1.91980594565670870110807,-1.02813962150534399242474,-0.0195133663316722980041185,0.00882036106888038455575707,0.00382148853159102602772279,0.003865194793940845540553,-0.00453283262076945980129095,-0.991049432861127455041128,-0.133323000557825144252178,-0.103570000526947800234545,0.00850281002660483245514378,9.75649489127884628203446,0.00142617848873184530945901,-0.0231907094437968572253617,0.00198266808665567995789702,3.62955616118437518480278,4.90578408402961052559021,1.23336368649460181856625,1131.91708420602253681864,1123.75452807768510865571,1129.69480435710261190252,1139.83048560015095063136,-712.549754315073982979811,-21.3986898795198428047115,-130.669914844319094981984,-360.086622504585420756484,156.787789688500453166853
