t,ang acc x,ang acc y,ang acc z,ang vel x,ang vel y,ang vel z,quat x,quat y,quat z,quat w,acc x,acc y,acc z,vel x,vel y,vel z,pos x,pos y,pos z,mot 1,mot 2,mot 3,mot 4,dmot 1,dmot 2,dmot 3,dmot 4,vbat
0.00500000000000000010408341,0.712536098576055376696559,1.10002626594905139612024,0.907590047495659302256854,-0.286976059587504939152325,0.120382821919009008748702,-0.00478332678971788837624102,-0.0146992465760557317749901,-0.00344588966286454856380317,-0.986708878602053918172032,-0.161795065031860307858125,0.0714826887421402545896854,0.0960056837620440750580286,10.9733734193401684109404,-0.12228798846006527778485,-0.0939706841833688605314379,0.825150795442634144016836,3.61248771039597338372573,4.95045039288499122420717,0.23833298958685361634835,1214.56776859129968215711,1199.68732399454643200443,1220.33440417320525739342,1183.33358937000525656913,-852.288450123615007214539,-1471.27455497056894273555,-690.318680528071240587451,-1169.68216368577509456372,159.025607582723665700541
0.00749999999999999972244424,0.731030286732574641206384,1.81229954035423546088168,1.01782758068258272210471,-0.284440803861793878315467,0.120902315066169316337685,-0.00134007369221012602629461,-0.0144797438941457849714833,-0.0031258554386116325571332,-0.986712016886423848305299,-0.161800522051998241224169,0.0686477621002790361348644,0.0846065662216883562773972,10.9762816613251832364995,-0.123246542877248912994936,-0.0945076444669938481313309,0.827823953878208507184411,3.61291634179247544977898,4.95058010716205032508697,0.240389986351205869885561,1212.43704746599064492329,1196.00913760712001021602,1218.60860747188507957617,1180.40938396079081940115,-766.871500788329285569489,-1547.66162928781341179274,-618.460174970914522418752,-1306.64228203700076846872,159.03131308318535275248
0.0100000000000000002081668,0.629242702710286039291532,2.64579529580407379896201,1.00630624721368810980948,-0.283445263278643277971014,0.123871819067661148583426,0.00215427765879718392111331,-0.0142377669084993562637065,-0.00280102283672005762313328,-0.986715935094118701265131,-0.161803052612858572212318,0.06537572422406615069157,0.0730224216305704471041693,10.9790443330879163852387,-0.1242459862004675757996,-0.0950639898985613379656101,0.830504234760090831457546,3.61334493337963591486073,4.95070855967771183969717,0.242447803828981817142463,1210.73341108735803572927,1191.94901584810736494546,1217.24210329835068478133,1176.80037795982025272679,-697.013928793467016475915,-1849.94545606027668327442,-526.521097160457316022075,-1668.24452457853999476356,159.036459063377833444974
0.0125000000000000006938894,0.441310210563342519840546,3.69072600595152344737926,0.857875433779509477538738,-0.283539216600869670159568,0.13180915945336102446106,0.00630049656218683272468351,-0.0139802829528303061007444,-0.00247614098777036283766106,-0.986720524814773125577005,-0.161802460289182714614498,0.0618210986418813029930064,0.0613865630100800391266702,10.9815719363676080888581,-0.125277750356149492061419,-0.095631345163900705053095,0.833200286071796081266427,3.61377451717638997763515,4.95083645015748619044871,0.244508267595067357857985,1208.95197782202330927248,1186.75941032681862452591,1215.97600198608279242762,1172.06816133789811829047,-638.358762213693012199656,-1922.48212568574695069401,-413.800139248087418764044,-1741.83195056307363302039,159.04199371115285543965
0.0149999999999999994448885,0.269111442874477913012043,4.5057078028809627312512,0.642628317598866294346749,-0.284026390168378828349205,0.142660217344096090785754,0.00937190300826674753398304,-0.0137150864259633943620376,-0.00216086713480884585331099,-0.986724903218634263879494,-0.161803109593586430525747,0.0581423588870377539006284,0.0499445272212908908393558,10.9837550974658189062438,-0.12633202062914353214218,-0.0961942084425399246416788,0.835920973937247735463529,3.61420619622982419727464,4.95096485070157843466632,0.246572867823834335210265,1207.5416172762895712367,1182.33660521967863132886,1215.17310260211024797172,1168.09121820700488569855,-569.849038707752583832189,-1737.12809496082604709954,-284.781847593740110369254,-1527.62074832626217357756,159.0460770188574315398
0.0175000000000000016653345,0.104362477531432018551527,5.15417278337564788159852,0.377368975085130897717534,-0.284534116682619242499896,0.157286173446473553916292,0.01108379637152155823554,-0.013443050055953391017094,-0.00185867067642914250008568,-0.98672853443411090434978,-0.161807941271085359291604,0.0543729885665684004036891,0.0387888888245834784207489,10.9854692267418219131514,-0.127408710083859288975106,-0.0967486750264270473076422,0.838671014620573029851869,3.61463979364074150524289,4.95109425546725745448384,0.248644093366098078989879,1206.10273262848454578489,1178.07376985201449315355,1214.55209274811409159156,1164.43005759626680628571,-646.930017194608694808267,-1774.66098685003953505657,-248.834296098993888790574,-1465.40666168825714521518,159.049617912502498029426
0.0200000000000000004163336,-0.0816944749905666733891252,5.65841567878996265505975,0.0716763169071632927353832,-0.285125179402657580318703,0.177053128470843923469857,0.010807147006110519663058,-0.0131617529806033837364021,-0.00156963337915185636127491,-0.986731645211169849929433,-0.16181560378686882240018,0.0504888603247485648339854,0.0279343169435743408912654,10.986576896594026919729,-0.128512880831642334333864,-0.0972963590704059300140472,0.841452055499630757751106,3.61507450864210522212261,4.95122383614580385824411,0.250722214436641610557643,1204.30696719031652719423,1173.46330028542843137984,1213.92893112161527824355,1160.76418489856359883561,-667.974115845482060649374,-1567.30108828787774655211,-220.140319011534415949427,-1180.73753061253296436917,159.053249192269475997819
0.0224999999999999991673327,-0.235246524413748936410684,5.83751529991763717930553,-0.123011919737969391275278,-0.285269026328526686953069,0.19358232844557285434739,0.00892111570045421749253212,-0.0128674716863476819306289,-0.00129038042726602230139687,-0.986734847336088627400841,-0.161822583960881116738051,0.0464499237180427751447986,0.0173227257227638840875183,10.9869317175957199594905,-0.12965095421609706960453,-0.0978447675086571849734085,0.844263086144387497888886,3.61550997766353043871845,4.9513522386213599801863,0.252806883220042799553795,1202.76286204925713718694,1170.23726441057510783139,1213.45139115305642008025,1158.52636994320414487447,-623.599587964099441705912,-1134.19704454754514699744,-196.867562153056468332579,-695.173519573927364945121,159.05576842256439817902
0.0250000000000000013877788,-0.399596708962218216676376,5.80458145195180286179948,-0.218244480857271716534029,-0.285024888384067975888314,0.208330992209594723085786,0.00632585246525609046219785,-0.0125579170813878808476982,-0.00101674852539656549073321,-0.98673848386843276969671,-0.161826923646221115804522,0.0422484699798852600394206,0.00688957315699515945861542,10.9863826366761969666186,-0.130825984745724044344684,-0.098403193437525099396268,0.847101537471134036216824,3.6159456249701085184256,4.95147756643691128175533,0.254899603462406865173051,1201.18896925049602941726,1167.79231506269070450799,1212.94459331084999575978,1157.28831730069396144245,-634.676715356408635670959,-843.60069008725974981644,-219.712274784478665878851,-326.163965505020257751312,159.05777252975858004902
0.0275000000000000001387779,-0.574943096572496648022366,5.64909528744333755412299,-0.228177003201943812138452,-0.285043713076702398545592,0.221038895116784678274158,0.00407677410931140890570923,-0.012228741489450075524692,-0.000744269456146669249919923,-0.986742918617784403600979,-0.161826720656911171580816,0.0378303083110442042724664,-0.00343785299994830984005034,10.9847786095305224307594,-0.132043768566121516583323,-0.0989821750803302896626334,0.849962358807804574389877,3.61638124557276263715266,4.95159956474781282054209,0.257001119059984017845011,1199.58947847247509344015,1166.01926096013880851388,1212.35282977913402646664,1156.8955501156790433015,-652.788475168427225980849,-559.228775354358958793455,-273.949998148737108749629,25.6776391287076108937981,159.059358704871755207932
0.029999999999999998889777,-0.750020628595024607676578,5.40954719698834018970501,-0.161024088995100650434367,-0.285911404827269011175161,0.231849571987291280805721,0.00294924578771438988811227,-0.0118823973527956115725512,-0.000472919661063847898176127,-0.986748191346680347812992,-0.161821495561236372573433,0.0332685436071706169824935,-0.0136071918038084688218348,10.9819740727614973963,-0.133298860418329889743205,-0.0995830366404882871833593,0.852841466763648470283954,3.61681771624932935083052,4.95171872224342024537691,0.259111186317524111455413,1197.92502687465389499266,1164.99617118591891085089,1211.57484332010631078447,1157.41670549633749942586,-764.074099911931511996954,-307.026563883346113925654,-406.959122623038581423316,387.765697447048239610012,159.06045335921731975759
0.032500000000000001110223,-0.92485983950489369931347,5.0732028744715034207502,-0.0462816806936278829498477,-0.288376269805755147679349,0.244213440239058277025919,0.00315572117937453064037689,-0.0115261957263015722002786,-0.00020385796750595029788386,-0.986753879894486818358246,-0.161813211486841246333768,0.0287317208345937852298491,-0.023520272425344230377009,10.9778344885213314796601,-0.134576471827474702935845,-0.100203645577358918528077,0.85573496163033957451205,3.61725656475281498458685,4.95183634671486405665064,0.261230676735647149300235,1195.76910797291543531173,1164.48412814072207766003,1210.3180341660188332753,1158.83437860291428478376,-832.489351214734710993071,-94.2364035493937137744069,-526.39613506653358854237,602.895133706669525963662,159.061216403103657057727
0.0350000000000000033306691,-1.01085886782655776094941,4.75544151739562082070734,0.0360585642978493367549753,-0.291603057773320739620715,0.255012611185779336508972,0.00446608318137348657417274,-0.0111624704091824906992958,6.12600483291938027480966e-05,-0.986759652682570709281151,-0.161803643986628192807942,0.0242718478518381131081583,-0.0330836007473911675180744,10.9722400088697611408861,-0.135869375878233056287314,-0.100841228582748881903441,0.858636375601548818004005,3.61769893094742478467651,4.95195339677572654579762,0.263359190468173465227153,1193.76258011858021745866,1164.52498916817194185569,1208.94286264477364056802,1160.43118116487084989785,-863.853496510774220951134,86.064896405605438189923,-621.760104149644007520692,666.905654575794301308633,159.061407483623582947985
0.0374999999999999986122212,-1.00686911542781643014166,4.37642531737964013416331,0.0697122257690838409427414,-0.295210736938503193194094,0.266616645984987299389246,0.00632688274334789000491464,-0.0107889085433652952977779,0.000323310012463010705216493,-0.986765159864296914626891,-0.161795023907294638343402,0.0198416955189723853703043,-0.0422747240632702775409157,10.9650891449113228048873,-0.137176682245642139745812,-0.101497556127774807288588,0.861536485990604949947169,3.61814637207713607480741,4.95207022328122370424808,0.26549594856722125157944,1191.44984049036156648071,1164.91445262275010463782,1207.209233645270614943,1162.16890687579325458501,-1101.0181914995887382247,229.508167256699493918859,-834.946670312229343835497,746.088939270430614669749,159.061154068269672734459
0.0400000000000000008326673,-0.887639563273021847678024,3.82299290864104657217126,0.0454364861605109637832101,-0.298930819956044424579034,0.280446090278596682487944,0.00794682739490363242162996,-0.0104089332690878097475995,0.0005842417288338761643951,-0.986769919152682639662544,-0.161789982048866992636604,0.0155141895214007535797052,-0.0510754846591568723024324,10.9563030326142918369214,-0.138486975700624265206429,-0.102173744658145576602593,0.864426832123069588398323,3.61859930667502327494844,4.95218699389840377733663,0.26764088240320438316644,1188.25748916108227604127,1165.67253000445543875685,1204.76812929321249612258,1164.1616258612230012659,-1241.01203177105958275206,315.674516943772403010371,-941.212249534463921918359,696.834587324655672091467,159.060355404686305291762
0.0425000000000000030531133,-0.699454117796975083365396,3.27713840171940162804276,-0.0140851533231186876182761,-0.3011694666623210836498,0.290657802009115062702449,0.00818563224554222541862192,-0.0100240154061028291510027,0.000850783879081354939971638,-0.986773415863429037564458,-0.16179144607521123155891,0.0113291770274380337868436,-0.0595808994132924346631697,10.9458268520737806994703,-0.139790743408344741993687,-0.102878900078177251686817,0.867296977690524162341035,3.61905744610965829366478,4.95230368444981383646564,0.269796069748900746443354,1185.24478033150626288261,1166.49282520746896807395,1202.50317239759829135437,1165.65307981241653578763,-1268.83553704024120634131,357.27847033867891468617,-937.867411171101139188977,564.668602054189477712498,159.05929119614873457067
0.0449999999999999983346655,-0.436301816683415499831256,2.66934600609207706156667,-0.085321273628060162463882,-0.302286546187172433519663,0.298215152901755931047489,0.00741564104301108140138155,-0.00963383529477403015295334,0.00112812838138496868839455,-0.986775187943644938037835,-0.161802161902155516859381,0.00727544208327628172394697,-0.0678629690652437916886797,10.9336313448132980141736,-0.14108245523393830866965,-0.103619442648702458908971,0.870135793338986940348434,3.61952008023323212881905,4.95242058637385973440814,0.271962330519995187927407,1181.91331147588107342017,1167.45892235614883247763,1200.07879223735699270037,1166.98496887149394751759,-1517.2119436550935915875,446.269961290818400811986,-1092.35519646790680781123,576.467964226549497652741,159.057828555303530038145
0.0475000000000000005551115,-0.0547644587752598721586139,1.92174383844986906844099,-0.155261494887650397522805,-0.302220286972831986282984,0.303836165683539771720234,0.00604232577311296023547804,-0.00923950895562829568885554,0.00141914629742056629287117,-0.986775400726490281577696,-0.161820994771922355148774,0.00335875749128099199136699,-0.0759421271522036506196329,10.9197142340181443387337,-0.14235645311245889721441,-0.104395879208183897657314,0.872933043005834519156849,3.61998636773853910142407,4.95253862328820915195138,0.274138761255828977692062,1177.65872061323079833528,1168.72417501392305894115,1197.04139641525875958905,1168.53541963354928157059,-1581.64091533135297140689,470.841757353991454237985,-1131.06240021706889820052,585.769348533175957527419,159.05562967351949055228
0.0500000000000000027755576,0.30898258890500773787835,1.32068203025480990220331,-0.189959304460922018265023,-0.301306369797543938116036,0.306196906624158049492479,0.00498127986216979467409827,-0.0088414134237305205127333,0.00172351265037523301328071,-0.986774802731601896610414,-0.161843338666094765931902,-0.00044637620400393707154052,-0.0837772328451734243914828,10.9041000107775598593207,-0.143611118628690304088735,-0.105202166172521899278891,0.875679334202292158906289,3.62045532673151848612747,4.95265879043771395373597,0.27632411716228733045142,1174.00510689922430174192,1169.81313114291879173834,1194.42348023627164366189,1169.9138156141598301474,-1457.04473674122777993034,429.316049641284052995616,-1059.70779495605756892473,592.173842581360418080294,159.053439256158185344248
0.0524999999999999980571097,0.720648150704773504671152,0.766907704404674261944308,-0.200227548840037627986277,-0.299992207261846277610573,0.30713265397800154632435,0.00422641653400668542567287,-0.0084327039850049627378592,0.00203788599645027615481219,-0.986774168935278472858386,-0.161864881114230557690448,-0.00433267291904321227846708,-0.0912944785270894537676512,10.8868378545482329400329,-0.1448594157304335383607,-0.106029229431515617521065,0.878364352630931488619126,3.6209262556073977812332,4.95278133176019341732399,0.278517566677293548771388,1170.37349692952466284623,1170.87075526212947806926,1191.74285744047847401816,1171.49628884645608195569,-1430.63638542953481191944,408.494049329647396007203,-1073.70970929514487579581,671.317831422993890555517,159.050890542644765446312
0.0550000000000000002775558,1.17729314295653986199852,0.251516051059995693339744,-0.196481325721467620093463,-0.298283815222846693249181,0.307665451830495761953443,0.0038177856770749188895786,-0.00801169541552665225025986,0.00235296843187825493320942,-0.986773644268517768907145,-0.161884950392710641464689,-0.00840053355564363002372374,-0.0982823372412585521962214,10.8680025684084071713187,-0.146107626000319540393591,-0.106857690801367713473446,0.880981445953588737651785,3.62139752396816438917426,4.9529047650649271616885,0.280717970887440715355154,1166.85192497207663109293,1171.85560138956702758151,1189.05493168979592155665,1173.27040477127479789488,-1364.78114757728576478257,366.058353871812528268492,-1057.61017734553115587914,742.330788986009110885789,159.048054134996021957704
0.0575000000000000024980018,1.69130310442704390183621,-0.235103831442510513571875,-0.185101201819251853786241,-0.295644604497316609847957,0.308172393853257342577479,0.00367607634345410144022237,-0.00758595512487761445413748,0.00266365707573456645188004,-0.986772948599472843334013,-0.161904938571152540172093,-0.0125330288499516523392785,-0.104594902779817172655541,10.8476925157831693979915,-0.147345356319558667967939,-0.107673978327937305832229,0.883527456637564934105455,3.62186838783590481227748,4.95302802581877976706437,0.282925254898233446976263,1163.54959119163822833798,1172.7010470314885424159,1186.45480655375081369129,1175.20794279138613092073,-1387.943835993201673773,326.826171347784281806526,-1090.66582309733394140494,852.536703378882975812303,159.044881595605602342403
0.059999999999999997779554,2.36511637741320601691086,-0.808548905664052908193185,-0.170594769139038010541398,-0.291285222590431769340569,0.308303146879600808993871,0.00341485687026267048863049,-0.00716249961911844500173085,0.002964672199410704755973,-0.986772527762672768680829,-0.161921881676909101832607,-0.016621246944233059039675,-0.110089399182909011831732,10.8260252823418472445383,-0.148564805251260617646736,-0.108463591427528607824549,0.886000336378657715741269,3.62233879117983814666104,4.95315088186946805848265,0.285139502972996228269409,1159.91220579211062613467,1173.48973224630594813789,1183.60160257430925412336,1177.5330882881692105002,-1274.56845395618142902094,242.426061217838764605403,-975.87173787883375553065,816.460409424508270603837,159.040699125327932961227
0.0625,2.9532682090222408533009,-1.28080074881958672072813,-0.159987696164832965406433,-0.286630260030403816173816,0.307325734425424490492418,0.00308271546513682248233379,-0.00674391901145325427247013,0.00324912899927161900881512,-0.986773238146150477589913,-0.161930598671282094391799,-0.0206498322058879524298902,-0.114609340009306767682595,10.8031336898859660067274,-0.14976726990774250070082,-0.109210258488017311617746,0.888398089268077284508252,3.62280949964932963425213,4.95327342400185077764263,0.28736017771364369410847,1157.17674892185732460348,1173.91317733757773567049,1181.57544786435664718738,1179.29024483850867000001,-1031.48422733879579027416,111.883672620842745004666,-710.170236709836217414704,621.808647791794442127866,159.036909954827791580101
0.065000000000000002220446,3.52100628442012641983183,-1.72723938233725715640787,-0.151229910444556747695088,-0.279957814375925040373261,0.304551985958008253341234,0.00283675048205574327486733,-0.00633198266445761121651303,0.00351346801833673323331442,-0.986775512673208621272636,-0.161928513950970714985189,-0.0245999068970079448614996,-0.118077955132124226556023,10.7791623777250453741772,-0.150954241678998041242821,-0.109904969703052635132678,0.890719094027660585055628,3.62328138229248031265683,4.95339584277352606989098,0.289588181593669669044999,1154.75478465541664263583,1174.04915060941016236029,1180.05075139076006962568,1180.64213152712818555301,-992.531275395139346073847,-11.1103026656110053238535,-532.981485162917579145869,461.328224762973661654542,159.032815670609181779582
0.0675000000000000044408921,4.09493787909515738476784,-2.18556499744093057913119,-0.141161352504347553660224,-0.268511808420570263766791,0.298852568057367096177046,0.00262104254746037311843421,-0.00592788082165324626410241,0.00375690666727078806386153,-0.986779031121820748850837,-0.161917648562233146281031,-0.028444397254551251341681,-0.120484711163949667622752,10.7542642894473701176139,-0.152126585047680923379332,-0.110545651715195786257695,0.892962317377165026854868,3.62375486369622334947849,4.95351791904008287303895,0.291823941622997462541633,1152.21409254488162332564,1173.85762582424968059058,1178.91054043854205701791,1181.5968859623235402978,-867.489270040095220792864,-127.091426753849987107969,-296.951733460627735894377,222.046659578472628027157,159.027560853988660483083
0.0700000000000000066613381,4.41823372082101961666467,-2.46274431317647346517674,-0.129787961434693066564705,-0.256486313487827521928608,0.292261704600781213603256,0.00237878179496152234242978,-0.00553873082429294765621774,0.00398066485056042598800197,-0.986782871041887554852678,-0.161903421113288675803332,-0.0320124961805587776586535,-0.121844255001690104922574,10.7285990133964421744395,-0.153273489799469087024875,-0.111133632650528169083515,0.895129799041353035882196,3.62422936759471170375946,4.95363900614762808771729,0.294066051155853269705176,1150.41733830521616255282,1173.41369347564091185632,1178.56599272345692952513,1181.75236482502054968791,-643.020046106768290883338,-228.351900194275430067137,-21.0424819467789738780539,-73.6241054022686114421958,159.022904690793978943475
0.0724999999999999950039964,4.52247368006741190527009,-2.59293380548779417438254,-0.109173543011912857481072,-0.243271306870289916179928,0.284297648810693692755791,0.00212949702208267048833545,-0.00516591424659191850859985,0.00418898587616636092212374,-0.986786022581411237375448,-0.161891907674920093596072,-0.035234444871312511904371,-0.122256302457220342172484,10.7023265895871890762692,-0.15439330622718955288164,-0.11167792307644544558265,0.897222713020907614023258,3.62470440812499550276016,4.95375909382655610357915,0.296313694811557892805354,1148.998992314347788124,1172.71586632327830557188,1178.80532802880816234392,1181.22876543531219795113,-519.356489071516193689604,-352.53597833902927050076,203.781140838600947517989,-369.34132781716539284389,159.01796933295193525737
0.0749999999999999972244424,4.37358927555412435594917,-2.56634677847870795730501,-0.0654100009370970764122077,-0.227545024459063160993111,0.274513595545311017698253,0.00175099007263000900659622,-0.00480473003878011638290157,0.00438448865379362662936247,-0.986787788433147294853143,-0.161887533867662913866781,-0.0381643854083060507509373,-0.121806414008370375579027,10.6756051501274349391224,-0.155496084043124010998227,-0.112186279909941372112669,0.899241976286909050486429,3.62517898873112676128017,4.95387832468365196803006,0.298564647620850054376973,1147.82055585985858670028,1171.65101358394576891442,1179.5848984276499322732,1179.90565818593472613429,-330.560202275500785162876,-418.134641726055235722015,323.276200048121324925887,-575.59216327167587223812,159.011733290309308586075
0.0774999999999999994448885,4.04132333798894638476895,-2.40991806373596828549921,-0.00744390586178095281510991,-0.215521352762886503340312,0.267314432700713922042013,0.00128709998022388002851535,-0.00445024971828948939095438,0.00456843407362106292829429,-0.986788050875724409571887,-0.161891237513956454119324,-0.0408558997001531171155975,-0.120550572997474417236141,10.6485901940149574329553,-0.15659345511668312789233,-0.112663183065874542010398,0.901189957608391267740444,3.62565210602383025673134,4.95399639206888853237842,0.300816392950943256590079,1147.3461913029702827771,1170.62519311464802740375,1180.42170902904877038964,1178.35080461895381631621,-72.5501452930529211471367,-426.898233512474291728722,305.438744999628113419021,-676.271235839612359086459,159.006281596023626434544
0.0800000000000000016653345,3.55378584232015315436115,-2.16259777592804525170322,0.0756436187692696160311812,-0.205773110029019268285566,0.262017202660622006149538,0.000898786403151312731675537,-0.00410187699930749175014633,0.00474411331425256092841902,-0.986786896328038953818407,-0.161902512049845598296471,-0.0432559323221522323832389,-0.118571663198892673918294,10.6214339680968201662381,-0.157688781220352597367551,-0.11311493994781104954761,0.903070964300304201977099,3.62612305098352427634723,4.95411317565744457880328,0.303067678842458276822214,1147.45780513339332173928,1169.51652241638339546626,1181.11209215264807426138,1176.52430200673666149669,140.138416323679734887264,-447.448972346091579765925,199.703983061226438167068,-744.398052980931652200525,159.000572652228157721765
0.0825000000000000038857806,3.00064243283338782930514,-1.88407253985378608795997,0.176461565955805393945965,-0.198305189372872142650195,0.25831696107159712871848,0.000770891041827665140367953,-0.00375739769871833058367816,0.00491410750664819477584455,-0.986785230099271881698542,-0.161915902881181628103491,-0.0453422506206651726445855,-0.115941300254141205217095,10.5942836374645317221166,-0.158788890374878505218348,-0.113545108310183190392095,0.904888933950201312939043,3.62659284613092891547126,4.95422896448227234600381,0.305319028378979118176773,1148.04688338458868201997,1168.3879482529175675154,1181.42022894435490343312,1174.6288143540491546446,329.966899378086679917033,-441.302739393540434775787,-16.5543393300595056416569,-742.802785821640327412752,158.994655883646146321553
0.0850000000000000061062266,2.4471601378485727806833,-1.6117085466106169100442,0.288190778695094684813682,-0.193520199115325364225271,0.255789180891380918403399,0.00108388051208670285925628,-0.00341631151708789550583423,0.00508001898112129396389847,-0.986784139810636951040124,-0.161924815535196719995525,-0.0470565638866713847887624,-0.11270499948068221640618,10.5672824024997620284694,-0.159897003545560412174353,-0.11395400270232329542619,0.906647842142527027320398,3.62706256122765235971883,4.95434437231406299417813,0.307571629092985521225501,1149.10763963028375655995,1167.31000871941569130286,1181.02932045599777666212,1172.81028807762845644902,527.583238573060498310952,-437.00727809396045131507,-356.133943935628508370428,-755.070336400876158222673,158.988495138026422637267
0.0875000000000000083266727,1.86265680132146704828244,-1.32102841226578116007317,0.415079367389267150922905,-0.190075140916633383847412,0.253013473233670072026769,0.0019973848561573477600195,-0.00307720642859636052401928,0.00524712254029921585513074,-0.98678433826984668364446,-0.161924829280270743403491,-0.0483464667679140841505259,-0.10899025897028249976195,10.5405690848305884088632,-0.161015044595534090321465,-0.114348738294841101303945,0.908349342197770637241661,3.62753387878643041020155,4.95446065779418010066593,0.30982781757298866187611,1150.68479957745398678526,1166.2029118624477632693,1179.63955922467675918597,1170.85346267204477044288,586.365289486003575802897,-352.518255236055438217591,-644.567386924974357498286,-670.211085954634995687229,158.980828755465012136483
0.0899999999999999966693309,1.47290112642768722395203,-1.11054409024053613030958,0.498062408775965248519668,-0.188154388924388182857683,0.25056067917403929135034,0.00311310072767738595100884,-0.00273713019104195650482714,0.00541996462794047759864435,-0.986785726669036966640647,-0.161916514983423437401555,-0.0491966759109887102896508,-0.104918259948001899029002,10.5142799127380239809781,-0.162145315951526508557734,-0.114736610480609846351996,0.909992934441391398969756,3.62800828949161102698895,4.95457847225613523534093,0.312089824584913244631679,1152.03946607771376875462,1165.54741744323541752237,1177.8064835213729111274,1169.45923264785528772336,503.167281628794683001615,-180.502930866851215796487,-812.123828866926146474725,-504.022282742063055138715,158.97421847421628626762
0.092499999999999998889777,1.18481293869101733662319,-0.92131206506592033811387,0.537141208665448788295294,-0.186040307222138934228894,0.247913811148288004693185,0.0045806729997560141284807,-0.00239720385004594822159207,0.00559715220591878222927695,-0.986787838509976311662797,-0.161902785826953277137363,-0.0495338817929914382309775,-0.100476957780796169461546,10.4885522097099794791575,-0.163282588771420350548524,-0.115113486569074927046152,0.911578870144610808878838,3.62848633297459466362511,4.95469743564367171018148,0.314357645108819694357294,1153.20063598559795536858,1165.30039720811350889562,1175.57894008034213584324,1168.33335125833445999888,429.352818388360503831791,6.92637694742187992602567,-967.859559411544069007505,-428.23286228890498250621,158.967385692357595416979
0.095000000000000001110223,0.925112669918395358337193,-0.703021536947965319797049,0.512622846738346460426783,-0.182617734874919945831095,0.244653894484738565484605,0.00682742418529719806430389,-0.00206088066036295980421045,0.00577456908908420205039924,-0.986790359378138970392058,-0.161885669918614388818057,-0.0492560432785958263179893,-0.0955946731835800311838369,10.4635248224427321872554,-0.164417151977047343303084,-0.115469287215528376711049,0.913107222857574729601993,3.62896818693057054971973,4.95481666872188775130326,0.316632247988597126386878,1154.1862301696555732633,1165.58204932797252695309,1172.96718572431518623489,1167.31806833641076082131,283.45763365182369852846,203.960249762530850148323,-868.244792415770575644274,-308.919126573755136178079,158.958937979016809549648
0.0975000000000000033306691,0.752951809042068709310058,-0.524374679195560466915538,0.423542218515880974916143,-0.179464829189670854736605,0.242400915190086330142094,0.00881272136514127217565839,-0.00172805921655437067820105,0.00594768076259700236713135,-0.98679285912286107684821,-0.161867967497368425711102,-0.048349132184420426372462,-0.0902093075455966814102382,10.4393371380698614103721,-0.165544641198614478350137,-0.115794691263377241829957,0.914575691973450788374578,3.62945356407043639990206,4.95493517862900301196305,0.318914791447631351672953,1154.61792415385707499809,1166.32019845692616399901,1171.23771611826327898598,1166.7887556254656828969,100.954815221120867363425,389.705190694166617504379,-523.475807888052713678917,-133.793861659114440953999,158.951697748509189977995
0.100000000000000005551115,0.606792409563497558977474,-0.3574826729159695792859,0.264658018861604005245169,-0.17699923791148394758288,0.241097918760845603136644,0.0105635034520130451779485,-0.00139583522973687080420691,0.00611470909923363375310101,-0.986795120255390512120641,-0.161851125387204308747613,-0.0468624821732297053289429,-0.0843306118776970953243577,10.4161294763136726970743,-0.166664578986907896407388,-0.116086114296876152796045,0.915979765518009414471123,3.62994179135160610627509,4.9550518894918127443816,0.321205021208126551002238,1154.69100424576117802644,1167.53057528144336174591,1170.34980668487492039276,1166.6490990281151880481,-18.815649506768732379669,614.148600467523806401005,-154.250162902871892356416,38.4797895929295563632877,158.944257081054360014605
0.102500000000000007771561,0.459424795849517120238659,-0.191482710783055842806988,0.0139004409255467017980656,-0.175192233099738081669727,0.240761362693573094384547,0.0119861480125695932241747,-0.00106196629234600928813614,0.0062773556688045665033493,-0.986797131707576324899378,-0.161835207452886820078675,-0.0448363963960352190918357,-0.0780428612131956189745807,10.3940437461807082542009,-0.167774217564233024679865,-0.116346033716662494716942,0.917314416531374576813107,3.63043197060653399788066,4.95516556229819915557755,0.323503327133102591695035,1154.52384590632323124737,1169.39094145926378587319,1170.46646530374891881365,1166.98115457343033085635,-72.9591160214569356412539,724.121817890956208429998,234.134258288805085612694,201.463219393417972469251,158.935105139787623329539
0.104999999999999996114219,0.366342428277517895285342,-0.0961947028113734753373976,-0.217475926445402006903507,-0.174243260553350626240743,0.241418641060903021999806,0.0119954472189566559853224,-0.000731238018241081870647602,0.00643568904436988067918612,-0.986798892362770296848851,-0.161820213874384694063835,-0.04219025671460450988004,-0.0713787143706636068030136,10.3732241035374315174522,-0.16885844173339378815335,-0.116572162568997134135529,0.918578004197288855436909,3.63092373882657382111461,4.95527619328578960988807,0.325810298534295827987961,1154.32620866565389405878,1171.15118437089813596685,1171.52047797631894354708,1167.65641512508227606304,-54.9565536297906120921652,715.21555465365190684679,574.119358888038959776168,328.817787000071518832556,158.927298660628906645798
0.107499999999999998334665,0.31337246254310929804987,-0.0513585091109502733797143,-0.430253679686856627117919,-0.173556866313280155900145,0.242569709776557840275046,0.0103376607717995481344753,-0.000409394482690491300080904,0.00659037164917718101125876,-0.986800093027277447355061,-0.161807985702021789320426,-0.0388408017911097969143697,-0.0643862938154694114389898,10.3538125376131375787736,-0.169899827767613753604081,-0.116763645187387271606738,0.919770405579528715911408,3.63141755724357695456206,4.95538433197142413888514,0.328124850436002757358978,1154.24906313817427871982,1172.96701923253203858621,1173.33706209818910792819,1168.62524350843068532413,9.68464103721088598319966,712.731371973313116541249,797.200250070636002419633,403.107861718171648135467,158.919312582279985690548
0.110000000000000000555112,0.299822689800757657963004,-0.0383522799947604298154147,-0.59960090427461298911993,-0.173106929645921697735744,0.243484032705775704785722,0.00769484433077925050747936,-9.4603338101357717501369e-05,0.00674078776318185347166123,-0.986800517963178247526912,-0.161799868090666043585202,-0.0348819817104698004506247,-0.0571187395394590069486185,10.3359433938659357465895,-0.170895457526568816941648,-0.116919145291861550917112,0.920890847026909709072129,3.63191373805830730603361,4.95548997152110448638496,0.330445345966282222338606,1154.3746318708399485331,1174.71484123076470496017,1175.50647922667212696979,1169.67195443367313600902,109.838313929367259902392,659.037860206216805636359,874.230580085258338840504,386.179996398868411233707,158.911182760358116183852
0.112500000000000002775558,0.338330060145750177724722,-0.0342911775163119159071101,-0.699855279399664631512223,-0.172717222682545301637447,0.243280520427861302046324,0.00491481228612351481177534,0.000216131202284434125035148,0.00688337939134735059265591,-0.986800269304554222848935,-0.161795386790227452289415,-0.0304569787042939937871111,-0.0495785584694780345760279,10.3197410816094645724661,-0.171846378286497902809771,-0.117031273060133084173984,0.921941072062763766759019,3.63241226196755118138526,4.95559360452364039417716,0.332770409996354099568805,1154.79825470782111551671,1176.26220853356312545657,1177.70821499861540360143,1170.5561434904250290856,247.146887586995717356331,611.453111886020792553609,881.868019965303687968117,289.099105445347674958612,158.902885788129651700729
0.115000000000000004996004,0.444188649541417457378145,0.00556484623620775997743237,-0.744224834337328999822603,-0.172124137168883195592173,0.241784792062199105355802,0.00224195110511145757198337,0.000526667424636703923428172,0.0070197381566734842750499,-0.986799368004042554147759,-0.161794338555915795385687,-0.0257229881685125533197223,-0.0418820356922640427144167,10.3053156335729685366687,-0.17275445274271819529055,-0.117101828419153716764889,0.92292434000609213651245,3.63291303250376040878677,4.95569653351717143152655,0.335097631776363480415881,1155.61036630877492825675,1177.7721067901948117651,1179.91581932649864938867,1171.1174499608998758049,328.211706689671416370402,485.770338626252396352356,686.184748631557681619597,93.5531258678564938691125,158.892744091048172094816
0.11750000000000000721645,0.576212506485949904622146,0.0915204843301035825264833,-0.732793984705927159417627,-0.17143699501954925978886,0.2402000188846781514318,0.000644417096906617489424085,0.000841188179366892632878028,0.00715399323712189415258589,-0.986797828975928159600528,-0.161796448746703708243544,-0.0208464314324969951508493,-0.0342030838802087830408105,10.2927585857318444340081,-0.17362247443558925796836,-0.117136836797560373035765,0.92384612990350722938615,3.63341593363845083430874,4.95579974568281045321783,0.337424336229057653113728,1156.43931324126947401965,1178.69106022669438971207,1181.1391387417731948517,1171.02390911976431198127,330.526831395582746608852,293.772121809570876393991,331.738050831518819450139,-155.853474624746297649835,158.884143882145366433178
0.119999999999999995559108,0.738946953274703943748136,0.235960788788453723618943,-0.691522042463119546162886,-0.170201902854375475282467,0.239044817264199016548787,-0.0005385806343279066991242,0.00116174861150105854755432,0.00728608431221653991133325,-0.986795582266845605623473,-0.161802143434048750769705,-0.0159726511495885681313212,-0.0266277501053751725068608,10.282139102322432222536,-0.174451722069768749845409,-0.117134009686280737838615,0.924715957520765519106476,3.63392082794241089160892,4.95590357864976649437949,0.339749289426293288318703,1157.26300046575283886341,1179.2409673992426633049,1181.57450958065624035953,1170.33818258777614573773,326.622403209194715145713,163.267546428551526105366,12.9374294457193421692409,-396.622105785537144129194,158.875395435646993291812
0.122499999999999997779554,0.943852326982423717183224,0.447150805530207307025847,-0.624092939160517223839975,-0.167650243522932479445231,0.23896921485163197251822,-0.00188046644442816301631693,0.00148845785321672805998072,0.00741521903620131952322714,-0.986792618845114710701694,-0.161811518520059566261793,-0.0112146738968946085845957,-0.01922401283618594552971,10.2735000936694405027083,-0.175241626329386973592861,-0.11708900081817370797399,0.92554614826260139803793,3.63442721999802653698453,4.95600901931047932436059,0.342071849904051983326525,1158.07242525731544446899,1179.5073979588371457794,1181.2038258890017914382,1169.04079859083662995545,250.681824660250413217,43.3078138254586164634929,-264.083484807360719059943,-503.170875119212269055424,158.86473216088492677045
0.125,1.10228483074755878590167,0.615823412014744664411126,-0.558267272005828041336883,-0.164769376748776341656821,0.240360081593667090915645,-0.00315833629101809404068901,0.00182001897237853019553833,0.00753937931735915427972072,-0.986788912287221209318488,-0.161824846409203332298077,-0.00666227580281505971093736,-0.0120320265810767920711122,10.266855286953694204044,-0.17599086943515807046623,-0.116995216147494279779195,0.926351007589059860514169,3.63493454211935107522891,4.95611652447730843817908,0.344391438506365832328271,1158.51640958905409206636,1179.45750646836995656486,1180.25409215661943562736,1167.82232821218008211872,122.799765709805683400191,-56.8929094284157557126491,-476.836706795574684747407,-449.03250869779145659777,158.855712402981225750409
0.127500000000000002220446,1.22866682341179833670708,0.724484643068552758293777,-0.483760471468815012041631,-0.161559216131683780481865,0.243026535779708507956087,-0.00462282842257333206198444,0.00215334098317221086030249,0.00765622961415807559704128,-0.986784480374255035250997,-0.161842161008385443388136,-0.00236727337931627590528194,-0.00507894403513557690654778,10.2621877979526470170413,-0.176696487541058794290549,-0.116845667899584074178598,0.927146027516712045724034,3.63544212145830769600252,4.95622620877310637865776,0.346708911775057804227629,1158.68642408586447345442,1179.22293341169506675215,1178.81964235502391602495,1166.79563604734767068294,16.6306664384592153282938,-117.303972916852117691633,-696.91854260313391478121,-348.711207219593859463203,158.846557841359526719316
0.130000000000000004440892,1.33018941126741863101302,0.737298425698628023816639,-0.386697710439539377169638,-0.1574898482686679090925,0.246993585782884661483649,-0.00614499562845350656703491,0.00248856854962459152907917,0.00776730947585975179531248,-0.98677953881217972398332,-0.161862068691761451511013,0.00157252469605757838611027,0.00152240037090131327679465,10.2594495857668768223903,-0.177361989765617539260845,-0.116642210918677061148863,0.927944466569732062666276,3.63594902223358351633919,4.9563371855653750586157,0.34902577706668108659116,1158.59956292124638821406,1178.87098660378569547902,1176.76949944360376321129,1166.07877217608211140032,-69.5276144092076151537185,-117.264545518128116441403,-774.92298004608460360032,-157.58265626159285943686,158.835420282216745135884
0.132500000000000006661338,1.36878186283441749537815,0.633126627745432046801,-0.304451369452529652104289,-0.153900558241588047980741,0.250393922532510193601496,-0.00680419462665995695288546,0.00282846441854680804087185,0.00787383050438469379861406,-0.986774660277377035910717,-0.161880985668159477208761,0.00501563968352658484661788,0.00766377860298738874944569,10.258562825183428657283,-0.177997509274664678091682,-0.116387816264659396670034,0.928757704330879341192428,3.63645475558995734388645,4.95644830684564308143081,0.351342260482929824583209,1158.33878601381843509444,1178.63661068410442567256,1174.94502745479348959634,1166.00772276603970567521,-123.24623759700432401587,-52.9232650596895339845105,-724.352799926281704756548,73.9650073414849629216405,158.826014465710244394359
0.135000000000000008881784,1.36047339388044630226204,0.417165744360641244092847,-0.22726093509292166761071,-0.150378723945367220871105,0.253079748709000795781066,-0.00673370486612656637959162,0.0031712921703904483131109,0.00797597590131652114942007,-0.986770092808323062705256,-0.161897426256409071587683,0.00792053061633476995773151,0.0132818029330168153878677,10.2594234681483786886247,-0.178605806387524795875166,-0.116084937793369799563514,0.929597635422400814242394,3.63695826999326010664504,4.95655765962753935838236,0.353658218978156468903506,1157.98333173326136602554,1178.60637027848724756041,1173.1477354439723512769,1166.4485972127895365702,-138.7543849313259443079,40.676118978763007305588,-701.845921583935137277876,237.657581334906154779674,158.816481484336577523209
0.13750000000000001110223,1.31804282770826142190401,0.134295907477189974121856,-0.154023502367917508593109,-0.147387323540356468543067,0.254621515306812151724358,-0.00632161325992612165708406,0.00351479994102762852495325,0.00807384052587693280822467,-0.986766123556313767828385,-0.161909686464759422497295,0.0102706953781659393598602,0.0183290144023298511022357,10.261904339485585779812,-0.17918954164162215203504,-0.115737583817824202236935,0.930474531226023193752894,3.63745803758838137653697,4.95666315242479615932325,0.355974044793157806676476,1157.64501408916180480446,1178.83999127899824088672,1171.43579784687381106778,1167.19601067271423744387,-107.04246317704918567415,172.053082088041122688082,-662.957333982785144144145,331.138702520138110685366,158.806844396588161316686
0.140000000000000013322676,1.24048169702733934727235,-0.180877499506006067520048,-0.0735581306885984831378522,-0.145107296175293554174601,0.254358386640067268835708,-0.00615245984225225653330149,0.00385670498116805725297151,0.00817128152802607671256752,-0.986762861145163761023014,-0.161916972826957744624465,0.0120788088374826768633952,0.0226967065926636270278838,10.2658602343999127981533,-0.179750431332406118700717,-0.115358634584909788833862,0.93139577766931380686799,3.63795319754150270341597,4.95676436752722260337123,0.358290816192545158447302,1157.44811941737611959979,1179.46663568892745388439,1169.83294877405842271401,1168.10429072539022854471,-27.3610630203165534624077,369.273407569334835898189,-694.974557625072861810622,380.016791252318967053725,158.797083991070451247651
0.142500000000000015543122,1.1044744769931864603052,-0.528929349431187634245077,0.0589211707622368033310245,-0.142461755434091369432181,0.251910924289367288420038,-0.00685746319565451890182262,0.00419754697259312140739107,0.00827309557749234501800029,-0.9867602931403531840715,-0.161919131817795075578559,0.0133201803108386890306392,0.0262644327323161529130768,10.2711326581025392812307,-0.180295000084403495010932,-0.114964895704966332812269,0.932364939611515564088506,3.638443161129282898969,4.95686075050351249160485,0.360610317901375931892716,1157.5082087740602219128,1180.68635831684491677152,1167.96092505874844391656,1169.09609462897583398444,84.8470859154535332891101,512.957187319173158357444,-696.397471616459029064572,312.857922696459013423009,158.785233196669963717795
0.144999999999999990007993,0.944069402023314130367737,-0.754325302597113167557552,0.21839270340385583124565,-0.140055942972674568602898,0.248694789864904036713611,-0.0080324732240160037072263,0.00453392981192494298747775,0.0083820947879989487344643,-0.986758335715067658178157,-0.161916649756915054236828,0.0140596645675999942781687,0.0289826848770407853594921,10.2775559099468978274672,-0.180822554860139317334244,-0.114569043913192641914733,0.93338478979378902700148,3.63892794743776537558233,4.95695190065731505768554,0.362933517233822555692058,1157.87235484695338527672,1182.03142162552330773906,1166.35096141597614405327,1169.66858033887251622218,218.518841851210822824214,577.495049010215552698355,-676.024994852153668034589,152.356741199174194889565,158.775246447062272636686
0.147499999999999992228439,0.715890988692143070970531,-0.889837074331587762898721,0.434526992288542079911906,-0.137535983249317983467819,0.245422974644834201995991,-0.00875878138159443854482422,0.00485798484865488169881509,0.00849678541809018375574603,-0.986756588170027981732346,-0.161912268579235574250674,0.0144534442304952576163757,0.0309218517522057666224722,10.2849623070858111617554,-0.181324037989387815139608,-0.114175031711443900062086,0.934457996437584093030182,3.63940901010778983248883,4.95703845563200395929471,0.365262099658272776370183,1158.60080298331627091102,1183.57383356189598089259,1164.58080008448769149254,1169.85787833497170140618,402.33633711718505310273,680.775444564323493068514,-827.122278329488153758575,-6.24470778138856452699201,158.765150650795078490773
0.149999999999999994448885,0.347124980017409989763166,-0.953519108202236509441718,0.734822985654039029235207,-0.134598891979038848276673,0.24220107243148958353629,-0.00766897901563150935499991,0.00516597133622935609370552,0.00861755923389841485549034,-0.986754751478410851994738,-0.161907886748593299319765,0.0145944375976821139051509,0.0321174776049139160116752,10.2931872918636706515372,-0.181796287892325436619245,-0.113790300877205957652549,0.935582985623205964920146,3.63988806570606460155659,4.95712142646990283623154,0.36759788051914632500683,1159.88403653253931224754,1185.43529884834492804657,1162.21535002432869987388,1169.6373567999655733729,529.023442900870122684864,650.723281817953989047965,-900.588499676586366149422,-139.150966501165271438367,158.752918479196580392454
0.152499999999999996669331,-0.0392657899877282071110507,-0.940154236496340556250573,0.987267889802821763112206,-0.132675070857500049248401,0.240124681892841002062156,-0.00499781140050524746304417,0.00545930083780885033739594,0.00874565878345883243594194,-0.986752496162879966234982,-0.161905384105365424129985,0.0144851964399173999131776,0.0325857795860312743352338,10.3020738439452017587428,-0.18224390569931187000563,-0.113424030251664018087432,0.936754209758910327821013,3.64036592800121283630688,4.9572011285238044564494,0.36994169745393040704684,1161.24592019782062379818,1186.82744997098575368,1160.07785758610475568275,1169.16212350246587448055,585.421997576440276134235,487.551420374893041298492,-862.432433829507431255479,-215.916158462186814404049,158.74263489298218132717
0.154999999999999998889777,-0.485424328678759675614884,-0.879225700315245606297765,1.20536273519785575025765,-0.132328714469730768232836,0.238379335407467973784179,-0.00146113280975503231039203,0.00574518231287644755983512,0.00887979485147173154546696,-0.986749842841425195416605,-0.161904442936405018604873,0.0140110737643690252962614,0.0323877193437057536717916,10.3114755714262944508164,-0.182681955713975302524332,-0.113079983387619542600788,0.937963132435242208373438,3.640843616086259615372,4.95727800069932822424335,0.37229408106141975709491,1162.81114652042151647038,1187.8730559502193955268,1157.90318785518115873856,1168.55777600765463830612,705.179677605701044740272,351.66271148041204241963,-916.115612947668637389143,-245.579459990176246719784,158.732268224102455178581
0.157500000000000001110223,-1.03777021377629696807787,-0.769665260166773390615447,1.40092447918003748519311,-0.134454503477830167312845,0.236286813920252525278443,0.00300420867147983177217196,0.00603361205197771362923609,0.00901885372324147567557606,-0.98674693032315519136688,-0.161903912726150095435784,0.013006709200876653831358,0.0315808419465820749971741,10.3212599759485126327263,-0.183129412769170440977717,-0.1127609068054091362443,0.939199734121699214561829,3.64132182271976256870971,4.9573526886681493763831,0.374654556707291364059387,1164.77181858584913243249,1188.58576352838781531318,1155.49727952136640851677,1167.93422620251499211008,708.650153461393756515463,164.827598324927606654455,-806.919673302444834916969,-175.511537994361646042307,158.719745907544904639508
0.160000000000000003330669,-1.46688466639371739574926,-0.656934061116471901264902,1.49999269570549720320685,-0.138132401462207926590153,0.23446312255949949832079,0.00683309694501626086610147,0.00633255579173751421973027,0.00915965294795016357620732,-0.986744016021060432741763,-0.161902092487026527667382,0.0113436096612180709053419,0.0302777261995810197114931,10.3313100511836140071864,-0.183601054715028688679723,-0.112462953518179128997723,0.940455550973855580743077,3.64180180728794189448649,4.95742671338087514953941,0.37702175308755947469308,1166.35439728772848866356,1188.69719394184403427062,1153.86858948866893115337,1167.68021831768282936537,595.920063040238687790406,-44.255531357748580489897,-527.276167818717567570275,-11.5584943035628278096283,158.709252658036461980373
0.162500000000000005551115,-1.81574903039829660400528,-0.531553599722759839707464,1.53046215544920394258099,-0.143455614963395344796382,0.232845529065582701466752,0.0105648877639431607033949,0.0066414279833838588129602,0.0093009388255067340645077,-0.986741124130747548903742,-0.161898872781545077881304,0.00907360114714805821023447,0.0285830267029217148511133,10.3415260041164263071778,-0.184093912477018673001794,-0.11218204497747032155619,0.941726246588340032417364,3.64228463421626269536091,4.95750168817513703345412,0.37939459832168348496495,1167.75141890105032871361,1188.36448587159907219757,1152.86089868227281840518,1167.87643373099717791774,512.666264560629770130618,-187.29954322325266957705,-274.591856974211395936436,169.335467062364699586396,158.698712209363350211788
0.165000000000000007771561,-2.0750577391166062923844,-0.404764399026282417626277,1.50563634557714753903213,-0.149410175906863867956176,0.231680506715964157349319,0.0141291102450469951284928,0.00695988311379152572305751,0.00944315679629081916601763,-0.986738740920412027435304,-0.161891194979235097939352,0.006248924536067512747195,0.0265657968156659228531336,10.3518236174877120703286,-0.184604914350738807948815,-0.111914857111979793025114,0.943008602768850456854466,3.64277099076995947157798,4.95757805093018788511472,0.381771667721443830334493,1168.91772861053163978795,1187.76069622572777007008,1152.49563020379787303682,1168.52689565299465357384,399.615472973209421070351,-277.001687656683998284279,22.1720566139992811827142,375.240578511192893529369,158.688142572448981582056
0.167500000000000009992007,-2.21878881889665624527197,-0.289023215149670387180691,1.41638606271318479024046,-0.155024573042573027281676,0.231135344773978096410971,0.0173575549048681603003796,0.00728499075519194443789628,0.00959159960462673683023738,-0.98673707839262936314384,-0.161877485550957489479629,0.00298772232033785167804041,0.0242015860920071178286062,10.3621337803009279099342,-0.185124144580768451584518,-0.111666045320719012345911,0.944301346253801132668571,3.64326013793385206085418,4.95765575093595067812657,0.38415132037425825384247,1169.74949626591637752426,1186.97947743331565106928,1152.97175896534281491768,1169.75263662355314409069,282.992755864233686224907,-347.43858185138350336274,396.257687419574381237908,662.544530535250828506832,158.677550127220797548944
0.170000000000000012212453,-2.26443079859838203304889,-0.176730076638781319342542,1.23442554264614789971688,-0.161108333363037314889255,0.231021775218496872028595,0.0208623507668626514965915,0.0076160118446241577283562,0.00975208474545470084537957,-0.986736184376256986183762,-0.161857050808984659351353,-0.000638438936110541366275584,0.0214424931619085733236485,10.3723995276399065801343,-0.185645589194976895486278,-0.111442059395675210908827,0.945603919091063560564692,3.64375095353262601349797,4.95773478638790532357916,0.38653288346197844926877,1170.33269238985280935594,1186.02350331647085113218,1154.47691864089574664831,1171.83961830567091055855,145.833021397947817376917,-332.769775974065566970239,686.235539405060421813687,851.467722124743090716947,158.664829329799317747529
0.172500000000000014432899,-2.20290770702883342835321,-0.110313823979573455424941,1.01651409140099135974822,-0.165970387147265224792037,0.231121149026512484603302,0.0237294313543834102520069,0.00795381547613076451963554,0.00992674260205343023111269,-0.986736038161920792077808,-0.161829785047287205701494,-0.00460701544978803223528985,0.0183040578744382391451762,10.3825736814446454303607,-0.186167722530495072241763,-0.111243541031690332254733,0.946917153582960469115903,3.64424238444572345940742,4.95781452061163463440607,0.388914891377615645762233,1170.47866137290611732169,1185.31562855344532181334,1156.40293666236811986892,1174.00997523417686352332,-5.75924289260000854540067,-252.444891383856656830176,872.985336882674459957343,932.257645853450526374218,158.654232884417666582522
0.175000000000000016653345,-2.03879416445416694614323,-0.0705052320173370217215592,0.724389587037510884748315,-0.170942854799181753744364,0.231131600609205734020435,0.0267531399411512840758043,0.00829979388576372427432926,0.0101136825038516727642834,-0.986736932245010356368198,-0.161793929215856502334958,-0.00892241361793100207222551,0.0148755568803337311079016,10.3926173165246495955216,-0.186692221600155611183069,-0.111063944274568712766715,0.948243355555052014338457,3.64473382566221237865989,4.95789363271177041525561,0.39129662412901766721518,1170.30389617538980928657,1184.76127885955156671116,1158.84184532530912292714,1176.50090653493816716946,-137.921941591276407734767,-212.812523002049687192994,1145.08916795430718593707,1138.94992603841797063069,158.643656170571830443805
0.177499999999999991118216,-1.71842303617718084041144,-0.044732041554986556874951,0.293866938595304216796933,-0.176919439225769831169899,0.230926592923461959649956,0.0301945075094410542160261,0.00864936976899260794027224,0.010309726995499937651779,-0.986738864857609199177091,-0.16174994261098737946547,-0.0134740311287204761470093,0.0112857774322796915178468,10.4024999661002883755145,-0.18721024606730343742278,-0.110894313596963667301054,0.949587932975774817734305,3.64522477864971738981126,4.95797062508059127594606,0.393678244793354725761247,1169.78905166494973855151,1184.25156593843507835118,1162.12838250213962965063,1179.7047248643689272285,-226.801805356400251412197,-175.436298634441214971957,1234.5087834603020837676,1188.57386570130620384589,158.631005123644598597821
0.179999999999999993338662,-1.34788604493800945327564,-0.0339405498709040506777335,-0.108784920853254182815384,-0.181488528166426327237204,0.230642373756400065332173,0.0321008885824622045013221,0.00899258083427991773695087,0.0105119710831817220891837,-0.986741222764324188432283,-0.161702332012100075120387,-0.0180418438541282838416535,0.00766928680035266693848506,10.412199154475043627599,-0.187702680360089690925207,-0.110727084179413973186179,0.950958343499574421109344,3.64571511871394315917883,4.95804502681827230503586,0.396061005033212176762447,1169.16988714860781328753,1183.88409736637936475745,1165.01438924261060492427,1182.44377586344467090385,-268.964277483291652970365,-159.452153578604196582091,1156.76482426688266968995,1084.86209473157850879943,158.620509635747026777608
0.182499999999999995559108,-0.880201261358935949097315,-0.0270992239498005320352814,-0.502481125834877806468626,-0.184759504273230124038463,0.230375572721496835182364,0.0317186452422210801715963,0.00932333548470209126646235,0.0107129571709446789334885,-0.986743620936606502525024,-0.161654384267389816809413,-0.0224993882122545146851067,0.00423519211327953379320199,10.4216979817053019274908,-0.188160100553294490355327,-0.110547760069980571806525,0.952360618255599811199374,3.64620367605801964927537,4.95811628566054096722837,0.398445383063233182774354,1168.44423027753327914979,1183.45430517054205665772,1167.91220662347404868342,1185.12903533802682431997,-321.097901068833095905575,-227.687194607596921969161,1256.40481902732858543459,1140.89081812144195282599,158.610077375880820227394
0.184999999999999997779554,-0.234462212380936174671575,-0.0192503152695649576431336,-0.880448128804609431163897,-0.186671988918726161621464,0.23014228136853948081253,0.0281445123855476493635042,0.00963598926781347731029825,0.0109026766114786888978161,-0.986745961236375368486051,-0.16160789918428164479991,-0.0267354672877472138159405,0.00123831255125838798902826,10.4309860564505481050901,-0.18857579763916371140553,-0.110337243894170947133837,0.953800037188048954739372,3.64668904236812174701754,4.95818410302968626268694,0.400832889540522985249993,1167.56439764326364638691,1182.74566139334137915284,1171.29641333774725353578,1188.14822995405188521545,-307.60691894129166712446,-297.988488137980027659069,1216.13886369341230420105,1054.84519377032393094851,158.597647226013009458256
0.1875,0.347524100167521055038122,-0.0123228554872309159495813,-1.06198140174946287217495,-0.186718112092657761991177,0.230026838755436724426318,0.0234681822892883369668926,0.00992784957775001003499327,0.0110785437138846559745886,-0.986747986525281950420663,-0.161565106945184305820007,-0.0306715089610495733607465,-0.00123440056693947461385896,10.4400603156280933347944,-0.188946877941210594764598,-0.11009176522392256913907,0.955278312657581785138916,3.64717117705580973208157,4.95824848583703570170655,0.403225146707362536169228,1166.90619568282681939309,1181.96436272985215509834,1173.99290094194111588877,1190.40326130687844852218,-228.885816417095867336684,-339.098200041553070605005,1046.50407484391416801373,833.586487641922872171563,158.587373077292198786381
0.190000000000000002220446,0.940465502869930025653389,-0.00600386999415392259848989,-1.07075831617894490221943,-0.185315240556936489113582,0.229979069385515960677324,0.0185720455181966233315638,0.0101998362601902585466984,0.0112407559138792412234409,-0.986749486023900335140979,-0.161527711202956114622253,-0.0342895892560472342891487,-0.00317093494639425835246449,10.4489247658334463153551,-0.189276953091085303748642,-0.109813667162684633349379,0.956794048098481564323947,3.64765107321083092983827,4.9583093547064747141917,0.405622729813422733258221,1166.41996856117816605547,1181.05017039313361237873,1176.52893371196682892332,1192.31616239226150355535,-152.783295886138006380861,-363.254589430061628263502,983.265223141733258671593,706.688806637566131030326,158.577198104957915347768
0.192500000000000004440892,1.51481214724071833188646,-0.00165022589023898426548176,-0.94014720115793615207167,-0.182793424447456609449603,0.229972130461550627877898,0.0142016952264527665517058,0.0104571108478995304646997,0.0113902028770612312458255,-0.986750313774822807033615,-0.161496682038954952886911,-0.0376518673394394959297315,-0.00459356964718685839565993,10.4575906305307562149665,-0.189577906443441440709208,-0.109507231527794610115301,0.958342966808046314852731,3.64812924732068433186782,4.95836675332964649243195,0.408026652669515876858952,1166.14227920339612865064,1180.14808978270184525172,1178.9092270576497867296,1193.93670534006628258794,-47.2181223486586105764218,-317.321765475162180791813,905.305107995763250983146,585.687432621261336862517,158.567113468747180604623
0.195000000000000006661338,2.02919469776454342024863,-0.00163228039064676651304087,-0.678637264081424107509122,-0.178914163409653020897494,0.229997727498039011839737,0.0110194319864199679476213,0.0107138445820728536034272,0.0115279587745837110157598,-0.98675023815483231537371,-0.161472116583712105297721,-0.0410006493958071233096874,-0.00556495607857846949495517,10.4660755622002028530915,-0.189879115606600507026869,-0.109178834685593195708009,0.959916309558658475964421,3.64860596539924664227783,4.95842233227708728549032,0.410437166426812494179899,1166.18387794943487278942,1179.46356156575780005369,1181.05545925194564915728,1195.24459955536781308183,103.086862871395993579426,-197.974324325286772818799,872.455596280041504542169,517.7478564969983381161,158.557146847437280712256
0.197500000000000008881784,2.52147536383502046675176,-0.00882291478728686705268469,-0.291661332290724550908578,-0.172199883854657231907481,0.230047839365643186360089,0.00959492603450287119548623,0.0109796462455557710530263,0.0116558862077819607588891,-0.986749077315224876194577,-0.161453910527459637558323,-0.0444766435682886068780917,-0.00615529893387586901631892,10.474407026951990218322,-0.190201439702631286410295,-0.108834017002845784283238,0.961506648008060627041971,3.64908075754494776177239,4.95847752844722755583007,0.412854006566116871201899,1166.65771351775310904486,1179.15821816107541053498,1183.27150503904999823135,1196.52544462255127655226,244.928961633058634106419,4.17776587769366969382645,738.456728820164471471799,428.727036204281432674179,158.545334218368651590936
0.20000000000000001110223,2.78516247436428932005015,-0.0218574727182085475074569,0.0257284604449290084382529,-0.164785557265849230690336,0.230092214043026266345748,0.0106755937372302097537746,0.0112590177391343523177758,0.0117783316180954372026646,-0.986746811194820994117549,-0.161441272539288777077005,-0.0481018173572778512392389,-0.0064760559059091303557576,10.482622652736226953607,-0.190555549776938920603087,-0.108480391993024810615154,0.963108215539075107614053,3.64955325585998791027009,4.9585329429902431641608,0.415276947957002429134832,1167.40852275760016709683,1179.48445039514626841992,1184.74774289604647492524,1197.38823473638922223472,363.559319650766724407731,269.069031258004315532162,501.307697704623478784924,303.930070962360048270057,158.535620484934639762287
0.202500000000000013322676,2.85676457996667387817524,-0.0423300727636700957479121,0.271025263955232742496548,-0.156118215590491382638305,0.230117124519544857808029,0.0132344933358483664298522,0.0115500654847137344122254,0.0118991173655156063510008,-0.986744155926487565011485,-0.161429486587961190657836,-0.051762310031721922576331,-0.00661354961891219561564981,10.4907699556482167935201,-0.190940717469677584405829,-0.108120492535344808748832,0.964718225588451883112384,3.65002267646789757549186,4.958588432795038691836,0.417704895364348516295649,1168.4755101160069443722,1180.50356331736543324951,1185.77804352757311789901,1198.04509497736307821469,516.924302921642720320961,604.884290807330557981913,347.927282142472620307672,238.188120300264728257389,158.526049958954331486893
0.205000000000000015543122,2.70609891655058820703061,-0.0737278551515975488772625,0.442353959712640854018417,-0.145698675881722694569476,0.230083882628147357030102,0.0163537093237927123878794,0.011851292908524012348348,0.0120193044357402144955982,-0.986742353958748985576221,-0.161410866997829055558,-0.0553580204216571197806118,-0.00660568595183935736159242,10.4989035668006884804981,-0.191357855252229869247316,-0.107750082602588753699635,0.966334619327538058008997,3.65048903980550587533571,4.95864431316291298657006,0.420137219376015280669634,1169.99314427220838297217,1182.508871849182924052,1186.48737930675883944787,1198.57917533789054687077,572.513627753687160293339,849.736336944987783681427,180.403517503736850358109,152.515963538871659466167,158.51473958144640619139
0.207500000000000017763568,2.40054104046233396374532,-0.102800394030885797191921,0.481092691558851204280955,-0.138192914024643120907143,0.229961623892177641215184,0.0183669283193500579298707,0.0121614498144216060665501,0.0121411462260274174984609,-0.986741704389062390667675,-0.161383438883977520239554,-0.0587911109992285269010281,-0.00652370984912901963337362,10.507084192497051944315,-0.191805947120657682702927,-0.107369025761598180235268,0.967955570811590781943323,3.65095351736028161937497,4.9587014639314537234327,0.422573795330819623750074,1171.33807825477538244741,1184.75224500209037614695,1186.68006111509180300345,1198.80767479505743722257,528.532675313729441768373,986.900869218384286796208,15.887421182651525697338,49.5179144001215263415361,158.505465357051036789926
0.209999999999999992228439,1.95688382632444235476044,-0.129960452353166056038702,0.432090546240329997917939,-0.132876550348828587067018,0.229681477101579961663802,0.0196297687727833292115065,0.0124823079676413765254361,0.0122638638663752960050735,-0.986742231552171333852641,-0.161346947860757150561284,-0.0620391014244059263438302,-0.0063931476315985148739518,10.5153756949002694653927,-0.192289160311725076946132,-0.106972880525350963476505,0.969578996422431393931163,3.65141759052923520201261,4.95875999395737832031728,0.42501501943035252528702,1172.63580764877701767546,1187.44337619527482274862,1186.56681641267209670332,1198.82676490989115336561,541.594465107803216596949,1246.3322857757761994435,-82.9360849851131405330307,-31.540755339529059853021,158.496354468303820794972
0.212499999999999994448885,1.33740943466874018241697,-0.153779343977482135796819,0.306812706234646404013233,-0.128881486292467206666856,0.229106028885664364524999,0.0204226881461494862157746,0.0128153453664342255324815,0.0123896160594595388521055,-0.986743537951947802255859,-0.161303550651759192158252,-0.0650690481198285958219785,-0.00630533955233118781347201,10.5238444597405305103166,-0.192808353798222892327985,-0.106563976075347816019345,0.971203026669541724658075,3.65188190033468895734359,4.95881914696549408461124,0.427460737529108791843413,1174.04605058031438602484,1190.98390643096922758559,1186.26538069016623921925,1198.64997101835979265161,490.80567855021354262135,1318.27781531537652881525,-106.115206252797989350256,-89.552560261517925255248,158.485617196756209068553
0.214999999999999996669331,0.798230497565618701827361,-0.162523325110479316402134,0.172057560684881677426361,-0.127060803303045893875023,0.228428058103766956632441,0.0206323829897731604587907,0.013155790256263732995734,0.012517289835701240000021,-0.986744763514148193195297,-0.161258975869848941719908,-0.067738063666035089327444,-0.00626687393588089974860722,10.5325582824256027691945,-0.193351365508775990820212,-0.106138517564655462943612,0.972829420915963249960612,3.65234689520807087603771,4.95887786916165662631784,0.429910645572786020984779,1175.0898360415280876623,1194.03476527185171107703,1186.03624038140810625919,1198.379002108583563313,401.482706576643636253721,1204.98982543804117995023,-51.4134274526440577801623,-122.016775766769455913163,158.476837358908341002461
0.217499999999999998889777,0.282432989536628542559527,-0.158930745551340707466537,0.030396849817204321664299,-0.126732775433873928738748,0.227663968119265675005281,0.0205094153941270014585019,0.0134986559808291124024082,0.0126439783450299440131781,-0.986745242527526822406969,-0.161217934280305036365277,-0.0699145136564962160763415,-0.00624818145238642541627883,10.5415824179042960651032,-0.19390505241797803548387,-0.105689885326529578457588,0.97446084320380632615155,3.65281237726828145184754,4.95893464992561572302066,0.432364248338316103925649,1176.05346411319760591141,1197.00885555815943916969,1186.00831355290301871719,1198.03988713952594480361,386.431434460655168550147,1153.08745300271652922675,40.4822087915362871513025,-137.578906470935066863603,158.468237011950321857512
0.220000000000000001110223,-0.189293533884782344545172,-0.148735002944889616038893,-0.103271186431920666826123,-0.127562393851331612459887,0.227010401994524824154098,0.0201545170957535373090774,0.0138407319393967567777715,0.0127695724755731293553751,-0.986744415608568403719403,-0.161184147326357274376818,-0.0715063149081734544809663,-0.00628351684042421226861208,10.5509768203847453804656,-0.194457845872300028045032,-0.105218265273901642742338,0.976099303199579049206136,3.65327774385144277147219,4.95898782010939864761667,0.434823192669507585517152,1177.02199321383136521035,1199.80020253686529940751,1186.23865142536578787258,1197.69110757622888741025,404.343964802091818455665,1048.56608371628590248292,160.013743070794447476146,-131.835997580719663346827,158.459789007971409091624
0.222500000000000003330669,-0.592338435084146963660601,-0.140013132363291187276744,-0.215596270203975814983011,-0.129139094122449421542242,0.226520045463380947925458,0.0195152037499497776895652,0.0141797581954724201402929,0.012896732827487471934047,-0.986741632061279294596545,-0.161161621553453177080328,-0.0724463996984606589668587,-0.00646554546786194672680637,10.5607936859185826961038,-0.194998160795106761922213,-0.104730787124813859434447,0.977746542133083762493584,3.65374267943356922927478,4.95903600714321690645647,0.43728850371826905041317,1178.07518393720806670899,1202.25168597674087322957,1186.80838226825699166511,1197.38070715162234591844,490.588763620416557387216,974.819835016477554745506,313.858054867114049102383,-117.618334249391310208921,158.451528312411625165623
0.225000000000000005551115,-0.991274839578305311249551,-0.147455192381526933864677,-0.315749426051894266365139,-0.131031877302909133264919,0.226169765538556138961823,0.0184033956037083397394571,0.0145133340230175211793551,0.0130261145393332396225095,-0.986736567968118594151861,-0.161152549886323104288977,-0.072686849714897930341273,-0.00683979480114770693743864,10.5710746426675470388545,-0.195514425155567550529412,-0.104230909822716030777023,0.9794054047665397000344,3.65420752292385442316913,4.95907939364400984771919,0.439760905677683666681332,1179.47493703193345027103,1204.67430171194769172871,1187.80794169970135953918,1197.10301590498193036183,528.214213968339663551887,786.567306423830132189323,395.14949413519354948221,-80.0379332486954098158094,158.441835883843566534779
0.227500000000000007771561,-1.25104235205285574394907,-0.181204078241307270369376,-0.366850430600352550580823,-0.132643814941606652535455,0.226239773014973361009439,0.017243794697296598722458,0.0148395013034471560248173,0.0131588564572880997727289,-0.986730006856258778924484,-0.161152269007921455923338,-0.0722013570236452323358733,-0.00745613845386592158370753,10.5818482577582972936625,-0.195996572693442644430561,-0.103721171575348408699924,0.981079573200707932834064,3.65467259668640442882293,4.95911880489499345969762,0.4422386948958932917364,1180.71625500704976730049,1206.18452250886002730113,1188.78412973893296111783,1196.98051748537886851409,487.792149421329213510035,483.644622409155545028625,384.786538451498586255184,-19.1734404764701871215493,158.433944805774814312826
0.230000000000000009992007,-1.42141651020331760690851,-0.254519636596076459511551,-0.385479110524276358251683,-0.135122023841366234453432,0.226335995205160150911539,0.0161074356828603583446924,0.015157630030542840887664,0.0132928788402079545855061,-0.98672271373706543773352,-0.16115637549664663108473,-0.0710188894892512384560135,-0.00829323784401560931689446,10.5931270062778768448197,-0.196437929733264016185501,-0.103198641061898160886656,0.982773934726335007816544,3.65513904957753110736007,4.95915551947173405267222,0.444720125232525631542302,1181.91389777904009861231,1207.09252482399347172759,1189.73187439195885417575,1197.0071487025995793374,476.926222127212497525761,248.506829719008010215475,373.758396649827432156599,57.2378833004222045133247,158.426248841574164316626
0.232500000000000012212453,-1.48805331544404806365378,-0.389798991966617491833347,-0.377589736234419270921592,-0.139911055521290877967644,0.225910520189726349293835,0.0151709272945011065109044,0.0154675650112879470993166,0.013429373251761574786789,-0.986714992726612005746745,-0.161162987178019245781968,-0.0691838348689835375138202,-0.00938985292433969220837753,10.6049061794053667284743,-0.196831469709261658307398,-0.102668009226974152325873,0.984493998344892262686301,3.65560829909070905685553,4.95919016610427920710436,0.447203399442743509961673,1183.10088611768583177764,1207.42705665745506848907,1190.65292172218209998391,1197.26670690188097978535,363.496228785379230430408,-5.48161050110138159396911,284.856445486593429450295,144.674095903792334638638,158.417240978247718885541
0.235000000000000014432899,-1.40190011533407044019839,-0.535959549510806598782153,-0.351778899979850123713732,-0.145335243374441730468405,0.225059776366251990120659,0.0146880372526353528833676,0.0157660422231911193091669,0.0135685268424277187537808,-0.98670727465350915874609,-0.161169835487646850857857,-0.0666926674515457978964506,-0.010742142903847173851517,10.6171631507573707153824,-0.197165210143645019957859,-0.102131181805182880140137,0.98624773668829579520434,3.65608028391628137043767,4.95922283857906176507413,0.449687546425589446119631,1183.73137892296699646977,1207.06511677148796479742,1191.15615661939182245987,1197.73051918211854172114,149.093562447796870173988,-268.641466901817466350622,140.440117480147705464333,255.365308597401735823951,158.409924646877811937884
0.237500000000000016653345,-1.15709926397065787639917,-0.704422815536334900876625,-0.308639217625867712246901,-0.150772655967520624598066,0.22372716447523868787961,0.0142442113641944971547115,0.0160484309304038084975641,0.0137099477413053227881079,-0.986699709497925070422752,-0.16117656413997633046975,-0.063527028393968634767397,-0.0123178148975172166434966,10.6298561951342076525862,-0.197425575589932955633543,-0.101589665701056208746422,0.988044274797282739974946,3.65655376242602381253732,4.95925318404680659511996,0.45217244177147747352663,1183.84635392992481683905,1206.08384932294598002045,1191.35512230958283907967,1198.54353344486798960133,-84.1670912715930512604245,-545.131922952580453056726,22.4368390053315245324939,461.40326956756541676441,158.402806294941285614186
0.239999999999999991118216,-0.711803620683052140627467,-0.914009737942036437630122,-0.232285045338259249492197,-0.155027738502228285000228,0.221118929884273118791072,0.0134818057659547661103483,0.016309556670403034528416,0.0138487855839304133120926,-0.986692479065414906891363,-0.161183056049481271410073,-0.0596803095684948076149468,-0.013977078722669202676121,10.6429241392257516451991,-0.197601016391441036690324,-0.101036714859081985795619,0.989893469393210656548376,3.65702686953400624148003,4.95928083831866217678908,0.454659127221415049202591,1183.31054346660903320299,1204.33945715672507503768,1191.26834081441847956739,1200.03753552995635800471,-304.248998272625215122389,-699.282428621839812876715,-79.7718037586950288186927,645.54608240873972135887,158.39449373749107508047
0.242499999999999993338662,-0.263562470181311903072441,-1.08216236849298108602113,-0.142338226116666161091828,-0.156009636407960755599689,0.218146204864615445018217,0.0125508762908258433149689,0.0165467779040927784328652,0.0139816594367818333721765,-0.986685921810084742844538,-0.161187859649780468318525,-0.055197817056117801093329,-0.0156077542198435996467776,10.6562871907899321399782,-0.197686685669238582097051,-0.100469279260116964302973,0.991803240399053542830643,3.6574970157974262541245,4.95930477963421445508629,0.457148688985099527215539,1182.32510893856169786886,1202.58743717983679744066,1190.95626329078936578298,1201.77126385691167342884,-479.665480167204407280224,-709.788317935680652226438,-167.707820959958411322077,793.214208709195418123272,158.387758548008065417889
0.244999999999999995559108,0.197523750057295943705071,-1.23564201467467560391356,-0.0219472841935042378702647,-0.154680759006660645260567,0.215042387272661561503639,0.0115368673150294497042889,0.0167599941741155521179873,0.0141063218828976853075341,-0.986680476558584818036479,-0.161188554547325474386454,-0.0501747394190920764645014,-0.0171196031039526734562894,10.6698490168955260060102,-0.197684552095834825680143,-0.0998873065996741388294922,0.993779210823850789324752,3.65796119994543467157655,4.95932366220729647920962,0.459641453234038432906772,1180.91221606577300917706,1200.79051556704666836595,1190.42980170961868680024,1204.00360657350233850593,-601.849037354895131102239,-683.604840056340776754951,-240.65598025149461136607,959.081762875984281890851,158.381223887316082254983
0.247499999999999997779554,0.628224450721131866259839,-1.37713930562336206442353,0.118125735235864851024878,-0.152027084617057217652558,0.21213449269582998479855,0.0110363390254292360187494,0.0169552152803762040678137,0.0142230227561136162578448,-0.986677069465089151556469,-0.161178867647999574108653,-0.0448222487226460214460033,-0.0184876341422285095372757,10.6834988869277172085503,-0.197610208471373005600924,-0.0992960236943445095914029,0.995822759284227698728387,3.65841764721550832817343,4.95933644962460018490447,0.462138684826458756571554,1179.31586375178721937118,1199.16941297955509071471,1189.75298338953189158929,1206.56667267129159881733,-629.85747578650205014128,-559.801924179691468452802,-296.206810644298172974231,1066.95004814541698578978,158.374856836632602608006
0.25,0.995873464556510490375274,-1.50544613207867206128299,0.264585741158677500983742,-0.148575260291255811795352,0.209254135324786483263182,0.0114075324415280690559804,0.0171376553575292925324369,0.0143363996993566295695688,-0.98667567779499332214499,-0.161157999711541349840971,-0.0393162454798443722348011,-0.0197709427797337355947604,10.6971171769655022387724,-0.197476633779924332090516,-0.0987102532043730440669549,0.997933534746384798275187,3.65886607160039378783267,4.95934331801306260700812,0.464641832190240078315213,1177.76292868684049608419,1197.99150594614820874995,1188.94876765639719451428,1209.33835681422942798235,-602.316133646353932817874,-373.318989072231147474668,-359.722271451937217534578,1203.46369079015744318895,158.368693947565617463624
0.252500000000000002220446,1.36080717267247597312974,-1.63802852304819768214372,0.419140632400078483321693,-0.144544444525646131882723,0.205260166568240670637024,0.0125882205368972842352004,0.0173185314360598183180961,0.0144500837579037023222783,-0.986675481477700788701668,-0.161129459453769496857234,-0.0339562994571451504111081,-0.0210256588378734850242058,10.7105773522483342929945,-0.197308950117965453685542,-0.0981446681835686368655658,1.00010736096059260624713,3.65930839216162606675198,4.95934579866239477752288,0.467151506674549299447108,1176.30428308355544686492,1197.30281803419393327204,1187.95437203227220379631,1212.58399112524239171762,-421.820246443121106949548,-117.338241782590458228697,-344.658550585972704993765,1126.56717217241657635896,158.361537756866738391182
0.255000000000000004440892,1.61311066461901209123653,-1.71928605222801600405091,0.509775393062246950925953,-0.141469198168788806713181,0.201183966498434840808329,0.0143045872974413932482429,0.0175095033748625637792795,0.0145670804371521075276652,-0.986675602315292943345071,-0.161097113792906532214744,-0.0290438119481286755041438,-0.0222975992019749692796271,10.7237518036269303678409,-0.197133542514608517404184,-0.0976106007930394731220147,1.0023387078215486578614,3.6597472242240507434019,4.9593468096768580366529,0.469667610146336844678672,1175.65382745462488855992,1197.40481473723525596142,1187.22547490346732956823,1214.97119267509151541162,-102.86360659238189896314,177.518676397903448105353,-235.107212408229116817893,836.223185064954236622725,158.355776486054111273916
0.257500000000000006661338,1.82637914864024031302847,-1.75376194199948942653577,0.542834924144794062073061,-0.138281591401781173145125,0.196536071511956428325973,0.0165333939534578998331593,0.0177214141999338034572098,0.0146892214057553448236515,-0.986675463241634798094992,-0.161063179115023047405231,-0.0248550088107756250721536,-0.0236103988673968812062043,10.7365164239001149582009,-0.196975742170538037356664,-0.0971135042806400700099445,1.00462143914491264240496,3.66018499770608229937352,4.95934934637074231744691,0.472188560708103111096534,1175.78996505059353694378,1198.19041141618345136521,1186.77883597023105721746,1216.76510705056716687977,266.070021196310108280159,476.79371251983826596188,-90.9550254863460452270374,611.868703185290883084235,158.350228988956843068081
0.260000000000000008881784,2.0399421716300589757509,-1.72807042505498675843967,0.511742327425563470200132,-0.133610031690783670477174,0.190974182149963728205577,0.0189974552053251977135062,0.0179585810381210214670133,0.0148143785163483889671943,-0.986675081709000645346919,-0.161027292545765310372019,-0.0215280903814197704937428,-0.0248905174203463142035275,10.7487558694514042656465,-0.196849390454971184816202,-0.0966454258913702762834319,1.00695154319895019412456,3.66062329893876547970422,4.95935531125826045695248,0.474714004550200352472444,1176.98417756060644023819,1199.78878329983444928075,1186.77069977603559891577,1218.03053619101797266921,611.058624754650168142689,664.5629355276463456903,105.403034539585760853697,305.337952114132065162266,158.34382382890302665146
0.26250000000000001110223,2.17294397092309177210723,-1.64816734065699299627283,0.436079516530535560292492,-0.128721628413185379402606,0.186528079993305118122748,0.0205239808373718773948369,0.0182173610710329690609566,0.0149358819269291894643592,-0.986674343703095924063007,-0.160991182075625682834641,-0.0190355647670666788817684,-0.025952199899129658328123,10.7603677426596657795699,-0.196753327529528232453515,-0.096185647301209528658994,1.00932758796626420583209,3.66106216389739147487603,4.95936576737471312981143,0.477245358721641532717683,1178.84525817436679062666,1201.51322609382168593584,1187.30585114292898651911,1218.29179681113782862667,904.195323360226325348776,726.451372045948346567457,331.022796007709700916166,-51.4177253463912649067424,158.33869934195601558713
0.265000000000000013322676,2.24062718710876840333412,-1.51190958490089677468404,0.329513077156900702213704,-0.123084563392509893642313,0.182322381953471002180578,0.021323561006539062251397,0.0184871151295976088313466,0.0150478739844698405220269,-0.98667280783057753623666,-0.160959278598746924338059,-0.0171858722750161257986079,-0.0266163920601285609868203,10.7712663469089822143587,-0.196671406771190659945603,-0.0957127172095351141933861,1.01174947433609840885538,3.66150078054727812215674,4.9593805844768654722543,0.479784058985431416388678,1181.50515417740757584397,1203.42104016006419442419,1188.42581375607414884144,1217.77344756428601613152,1303.59685383377723155718,827.33227557041504951485,603.635742781852400185016,-376.650305969405621908663,158.333799814495108648771
0.267500000000000015543122,2.22721746528020370092804,-1.29742449171936180540854,0.19287663261773807521493,-0.115964039380684308389036,0.177974787029920228365043,0.0215377874885144676708748,0.0187614005861851708412136,0.0151478565975962844308844,-0.98667020680112693664654,-0.160934161201511355399063,-0.0158510500803756698706692,-0.026805965249251047927137,10.7813839205484853778216,-0.196594696751823311275942,-0.0952124575189612770698133,1.01421349883596745300451,3.66193815056589011547317,4.95939822329020163493851,0.482332552379989787372239,1185.36324244353568246879,1205.64988747167376459402,1190.32402985683825136221,1216.40854528129079881182,1472.15467580276572334697,772.516003217514708012459,754.592168519456436115433,-591.583003505001556732168,158.328184550085438786482
0.270000000000000017763568,2.12995367143124969544488,-1.09168227685261975956621,0.0874950560716220432366796,-0.109948435716814049700751,0.175126773395703039248872,0.0213030918112774025896528,0.0190332147567885967553991,0.0152351551166327037201143,-0.986666514193083599160161,-0.160916850424557694720917,-0.0148724922261143227553148,-0.0264973415878431879655341,10.7906743479335460733637,-0.196512443112340146056383,-0.0946743587639807399058967,1.01671488718825298036563,3.66237337484330760517537,4.95941675199642695304192,0.484892232337272355291447,1188.86592755642141128192,1207.28362017615177137486,1192.19877459867143443262,1214.81553254676100550569,1386.04497751493795476563,581.255561295619713746419,762.271253436164670347353,-687.121375368223539226165,158.32372816231205092663
0.272500000000000019984014,1.94642366111509912407485,-0.878491608347867214412474,0.00108829654977295534057369,-0.104382029335042425532976,0.172813860215279641030506,0.0209455424228262299113368,0.0192973099628451078002556,0.0153090758264125270660116,-0.98666213559715565395436,-0.160905533795579425149214,-0.0141177067321796301246906,-0.0256890278720493907271827,10.7991146152580412831412,-0.19641743784167023378906,-0.0940887380211294088727669,1.01924765176358733675954,3.66280505980344228689205,4.9594342307471599440305,0.487462485143896062655955,1192.29346733111037792696,1208.55616527815186600492,1194.13538612401907812455,1212.97293840444967827352,1302.35338555107659885834,446.217653353869138754817,751.718542489560832109419,-744.735394068992945904029,158.319506522526125991135
0.27500000000000002220446,1.70333604674802963074853,-0.674334698760714945642292,-0.068564266831324882645049,-0.0995684019621874277783391,0.170931812268545924027308,0.0206237858694618379773456,0.0195498633888862953511545,0.0153743440354147716669919,-0.986657254189329702143141,-0.160899096754397813446857,-0.0134578845225538507035523,-0.0245143979281497136069046,10.8067061717033041645664,-0.196302904017785634360749,-0.0934591716556641277646733,1.02180470213369134491188,3.66323264093254863382754,4.95944926565633625870078,0.490041432085194239576253,1195.37769448417679996055,1209.51470844292111905816,1195.95736731111924200377,1211.09185557641603736556,1094.05058994470800826093,323.925951710998276666942,673.744613987127536347543,-724.67065106370614557818,158.315481918108275749546
0.277500000000000024424907,1.4116692377782311673684,-0.499411947707290471143438,-0.122088879173982492454265,-0.0957402918599501162599807,0.169754093488786172994054,0.0203947019718799561760481,0.0197887876485200175924462,0.0154381170517987366397339,-0.98665194205960360385177,-0.160896682497587151239316,-0.0127869648949720526864837,-0.0231771152996933689494075,10.813474934846874830896,-0.196164022568142415448023,-0.0927964649469880803467348,1.02437858489578403897724,3.66365625555960550130408,4.95946134263923443796784,0.49262662919299610164714,1197.76372028083392251574,1210.17579503670685880934,1197.50410919395471864846,1209.34958514913114413503,842.706555543417493936431,257.932408938813523491262,601.080837084645622780954,-694.218180356892275995051,158.311697684510846784178
0.280000000000000026645353,1.04073006923444566496073,-0.34495481475753703159981,-0.174945925989232531350126,-0.092368727199422823170849,0.169054108169290784324801,0.0201934966332023776991456,0.0200143344734804370932402,0.015504508351110500227743,-0.986645798024902043188433,-0.160900347997957549051051,-0.0120571379970719205765306,-0.0218330564986910745373105,10.8194702037978789377348,-0.196000450688907840168795,-0.0921085257244648181185198,1.02696206203041828786127,3.66407646681886411954565,4.95947038204316026366314,0.495216829162719640589074,1199.59122726189389140927,1210.80437048761518781248,1198.96277149654247295985,1207.62076467463157314342,489.968778362117063807091,229.270775893610135653944,468.756827215292616983788,-550.449002974573431856697,158.307437819455287808523
0.282500000000000028865799,0.740121681256519781122449,-0.273958435594799709633662,-0.213445339828617658417542,-0.0906174748839897459262716,0.168821531218778825289561,0.0200185782773645258580952,0.0202298353665760141661956,0.0155741407159434956664068,-0.986639072787920734519673,-0.160908106924788768532508,-0.0112959002056809004743698,-0.0205812388219201065908681,10.8247629632718371794908,-0.195818970449680634926537,-0.0913968576350731032320596,1.0295477856188215426414,3.66449378260975633381236,4.95947589256785370537273,0.49781301738487665486943,1200.21356417264451010851,1211.32214891617491048237,1199.84789333003118372289,1206.59734013425827470201,84.7284284106080320952969,224.635068265251703678587,294.792151191631717210839,-304.367228796172355487215,158.304124361345941451873
0.285000000000000031086245,0.474965234083743859105908,-0.268922569150303714113903,-0.246875355436694560173905,-0.0897748655319395710838748,0.168725363083930157692691,0.019727325468200010427644,0.0204371849677870906503152,0.0156442012005953631770261,-0.986632376587297410530653,-0.160916278455307842909505,-0.0105127695372360524528332,-0.0194455209275303624039122,10.8294444599666910278302,-0.195623934550765987694376,-0.0906557060050092594627458,1.03213001493566891575426,3.66490812249855579807445,4.95947705674245398199673,0.500415830121656801665608,1200.01486940394693192502,1211.92754582894144732563,1200.43673225250063296698,1206.09892853065070994489,-219.853281557470637608276,283.611750005183921530261,208.072793906694442966909,-93.6018421141851888478413,158.301058338541395187349
0.287500000000000033306691,0.218413857757203344611696,-0.335177438532110016922161,-0.276182145295541692231467,-0.0894593818995268186267111,0.16842825487815993312779,0.01911863173927738634994,0.0206384143820435017602222,0.0157134847883202248552958,-0.986626411311769313527975,-0.160920447245434056204871,-0.00971793791074469781587908,-0.0184844799399374766502024,10.8336232996453709631623,-0.195418631740337883639924,-0.0898828667975448691862539,1.0347033148729118945397,3.66531983361138502530707,4.95947486072694321279641,0.503025394485701937696831,1199.11429776485715592571,1212.74020766620083122689,1200.88825729956465693249,1206.12933092368734833144,-389.132038075608193139487,293.785560682229800022469,137.493812671756614918195,103.760522804033072929997,158.29766696081182431044
0.289999999999999980015986,0.0631659958811642135989572,-0.440726961721290833029485,-0.28529448214543573492108,-0.0895369913108779863497588,0.167736184399305127135094,0.0183420595295727684170828,0.0208332272053775857667546,0.0157829444245190103623955,-0.986621784319017369746518,-0.160916863102662399676035,-0.00887020752675540813392274,-0.0177912918432726711859271,10.8374225517367133164726,-0.195199890857248703479598,-0.0890802859579443440107838,1.03726354782343777038989,3.66572984858445805045335,4.95947065447864954279567,0.505641979490648152406607,1198.06920921356891085452,1213.39647363235258126224,1201.12420131585940907826,1206.61773114467086998047,-421.40935498446629026148,224.55507618920140089358,82.1326887973108767937447,258.07409697331684128585,158.29508163345641946762
0.292499999999999982236432,-0.0308655162329932661324783,-0.5811599497118662416284,-0.270917011034631338706191,-0.0897489548686833116253325,0.166421639640018326211646,0.0173409577644878208635415,0.0210219199666904360546127,0.0158519434783780215070248,-0.986618822212123491866009,-0.160903572527722943386053,-0.0079545512374721433213054,-0.0174205586008128153474583,10.8409751204534607893493,-0.194965220984280013238887,-0.0882476694176548004389105,1.0398071537323281265941,3.66613912062067237584984,4.95946548232619477403205,0.508266124278184627804933,1197.0072509899348460749,1213.86298304714682672056,1201.29892074355120712426,1207.41970140855391946388,-423.19730049716741859811,124.403848820338566838473,81.4731950315489683589476,371.259880224442554208508,158.292746986440306500299
0.294999999999999984456878,-0.0792581456226038455481486,-0.768574996166652479878678,-0.222339450685324707679413,-0.0899792788214485578235369,0.164316065833872648749292,0.0162236942210758627869183,0.0212075894581446114384171,0.0159224224432828048714228,-0.986617473040225845259954,-0.160880322550365495448688,-0.0070159652589638493713764,-0.0174822867157257526293801,10.8444192570382931251061,-0.194716163882234116755399,-0.0873918866461651094867946,1.04232989468682379907705,3.66654805199081668121153,4.9594596106732398155259,0.510898451183115609453012,1195.95322271108307177201,1214.01849287645427466487,1201.53156729101715427532,1208.47403054579308445682,-332.435729831786090926471,-24.6441911377132569782589,102.902099048651422208422,363.456799186314697180933,158.290235541437368738116
0.297499999999999986677324,-0.072420656177245260054498,-0.926629621342124010219266,-0.15751019631162702094862,-0.0900477159071958882519127,0.162395581641563840902265,0.0156785653114824979903474,0.0213950089448389640933712,0.0159955657711266727161181,-0.986617949838317076505234,-0.160845090916736710440205,-0.00614602973925607032334995,-0.0180646883755781507974181,10.8478938863855418617277,-0.194457892323287945268717,-0.0865188069013376609417421,1.04482793403314699887119,3.66695709913063572216174,4.95945236124120025777984,0.513539421261558826081739,1195.34507234077591419918,1213.73976209145826032909,1201.81343123879446466162,1209.23698540448549465509,-187.728122255611935997877,-188.479644340350034781295,147.132245828924936859039,250.870162500768628888181,158.28838436553772339721
0.29999999999999998889777,-0.0237133864001522649822551,-1.07078349574869147176059,-0.0731609175261745403595626,-0.0898969889157619356234719,0.160329774436514138624688,0.0153460388732193191152486,0.0215847648409269315949999,0.0160721929754824056912899,-0.986620360136167162679044,-0.16079708755592797553291,-0.00535713606084327331746664,-0.0192188811748115855049246,10.851534612443160199291,-0.194186898519267153728762,-0.0856335054994360050928393,1.04730047290349670419118,3.66736677332562965858642,4.95944274249383099117949,0.516188142480141554102602,1195.01458209980501123937,1213.07609465475252363831,1202.26722852016177967016,1209.72838135829692873813,-99.2127440096282100512326,-303.07680890400632733872,220.668560811236403651492,146.256231441384301206199,158.286783747878502026651
0.302499999999999991118216,0.0567931931421460575726279,-1.18921243641825413739355,0.0221361180973042963315844,-0.0896530651015127882930145,0.15792341083785479960433,0.0149729127810104018642123,0.0217789274203642121974234,0.0161514432068503403783222,-0.986624255277101513961213,-0.160738903016593187578209,-0.0047084972348835768540809,-0.0209477273776500320934257,10.8554674279377607604147,-0.193903269717090320778397,-0.0847403477718165903942449,1.04974779134959339543798,3.66777662700178819221719,4.95942987632795073693615,0.518843830293592822577864,1194.8490086207277727226,1212.22437804693822727131,1202.91677404285064767464,1209.96826656169241687167,-49.3470522607821777683057,-335.187941061849130619521,316.927808353829902898724,48.6416203334556058734961,158.285390665624646544529
0.304999999999999993338662,0.175683130114635849272631,-1.25508333635775826131464,0.121476547929430384042959,-0.0895919296406302856361492,0.15480753187642953827563,0.0148062900109697491435323,0.0219761039575757620434526,0.0162307164239452253462481,-0.986628911173195621842069,-0.160675461439981515088249,-0.00419825642084993566616191,-0.0231855668307306798936462,10.8598043915157411731798,-0.193601115138786444846986,-0.0838408640815002798030164,1.05217345411645468722384,3.66818580708093477937837,4.95941285295908418362387,0.521507398059437576876007,1194.76784683850110013736,1211.40015494944327656412,1203.85186756193093060574,1209.97158945996420698066,-40.9037175367756944410758,-282.320779123255988452001,486.281504425096045451937,-22.2660613117113612702269,158.284247601145068529149
0.307499999999999995559108,0.362226801876269877134007,-1.24540659366070816105321,0.227280607931795247678153,-0.0896591027108836896575284,0.150242305965646749665865,0.0154568028046901222161136,0.0221722634082207985251056,0.0163023424498029076423755,-0.986634013154410904888891,-0.160610024752506436174215,-0.00378858298165549167713095,-0.0257292640419406644369804,10.8646383996333284471802,-0.193272319541297754597053,-0.0829255019660436465400721,1.05458447859800674706321,3.66859279475072197485019,4.95939048777410107504693,0.52417780624747223328086,1194.64449003304389407276,1210.81277415132194619218,1205.34818156497613017564,1209.85693625513385995873,-55.627941181592127861677,-101.347143964176126473831,614.642666634244392298569,-38.9470138266005605487408,158.283164724158609715232
0.309999999999999997779554,0.547415788753696230806156,-1.15011918281510050476868,0.289578081326667291506283,-0.0894388332723626139353357,0.146289731929741068094941,0.0166343636436641940934411,0.0223674781024711701038488,0.0163660008439263336688096,-0.986639058528768986278124,-0.160545672491013036164986,-0.00350494697074137107062342,-0.0285272121671627208738808,10.870037986169704069539,-0.192916455104486572746936,-0.0820020173791258938367221,1.05698743257831995201457,3.66899621153988952926284,4.95936219977152514815089,0.526852655925193480435098,1194.48970713259313924937,1210.89341922962239550543,1206.9250808951021554094,1209.77685439083120400028,-60.0785782107777208693733,183.556802197199260717753,698.594352635017799002526,-10.992517658132774371893,158.282502871486258300138
0.3125,0.742533056613421171832101,-0.964298032143148464712112,0.313284039681025139323367,-0.0884578140948813207433687,0.143068777457943302477972,0.0179084497067573053530332,0.0225589641062985922503881,0.0164227350095794560891349,-0.986643282992723857915962,-0.160487344286890154521075,-0.00330572665854821090558602,-0.0315267488393308342731203,10.8760442599454503209699,-0.192528256476156567345015,-0.0810809614439277764885716,1.05939185386885958983783,3.66939432608450966100122,4.95932762873001209413815,0.529529912619468134948875,1194.3440971419900051842,1211.73055816230794334842,1208.84115332815122201282,1209.80197366684319604246,-25.1103343001432008918528,539.707460110593729041284,909.523112398937087164086,40.1565860819118469748901,158.282090623201838752721
0.315000000000000002220446,0.94914370714154161490228,-0.655382842944018939590478,0.295101255557874309065625,-0.0859764496569730002351051,0.140431123318472711458682,0.019136047818573597573133,0.0227458864040765221248286,0.0164718416015977239807988,-0.986646033376076925236475,-0.160439208248353448738044,-0.00319208934945622302414847,-0.0346262847968158010703021,10.8826670165660726041779,-0.192108995532974724529396,-0.0801691912583339383324699,1.06180823990428185865653,3.6697860302882037153438,4.9592876444070643771056,0.532208023453001444202926,1194.36415546109242313833,1213.59195653017536642437,1211.47269645709684482426,1209.97763732124076341279,72.8772376730830018232155,793.174562259036292743986,1001.03599434896659658989,84.723809172100956743634,158.281884498256260940252
0.317500000000000004440892,1.06620659811931095539705,-0.346775424267824872170962,0.245502923549112711532061,-0.082717007278271303949424,0.139194282325682011647316,0.0198344516340188230241193,0.0229322444506843449441025,0.0165130864679087809021585,-0.986646839138471620778148,-0.160403586421715538268273,-0.0032594786940714354228632,-0.0377356980112733414456372,10.8898825611444127758887,-0.191671692819505190552576,-0.0792744153573170518001234,1.06424603934409689465213,3.6701701567205389231674,4.95924351158931475680447,0.534886396738681879625688,1194.70848333035542054859,1215.69643097360312822275,1213.84633329989605954324,1210.22559271270370118145,236.599904341619350134351,890.879729837705895079125,951.190611124137944898393,114.246909675784891646799,158.281953267906715154822
0.320000000000000006661338,1.09542599271211171796381,-0.011488064229571492980142,0.168183639847248822540848,-0.0786270138283092917541595,0.138789156673988584023149,0.0202389532084633373687499,0.0231229602373987999652805,0.0165490175990506450942608,-0.986645649034149418987738,-0.160379809934142469884932,-0.00360337803874738460407912,-0.0408162121126769694701153,10.8976340232198118940232,-0.191231823211434642795226,-0.0784077902373692681159412,1.06671426202147601181025,3.6705464583974287684498,4.95919704228977664683953,0.537565746142712352906301,1195.54715498280052088376,1218.04635517936389987881,1216.2286495127175385278,1210.5488718696196883684,489.594895647587236453546,1000.19594468417290045181,998.319637707162655715365,157.881230884413383819265,158.282271692890788017394
0.322500000000000008881784,1.01830087573387317867457,0.390818245947426867736851,0.052298392275413989327415,-0.073941311346162913453739,0.139179361507948545773061,0.0204732841082592778580995,0.0233230732726947415089924,0.0165845026915788992805112,-0.986642647319727950083745,-0.160365510680781864216726,-0.00430311939118349640054362,-0.0438717249163563735581128,10.9058325297703877510003,-0.190804977132613629020597,-0.0775827698070149091025272,1.06922107279817013569811,3.67091581138285993901604,4.95915037071183117944884,0.540247167440592868103977,1197.15645780859335900459,1220.69741069702399727248,1218.83793148843187736929,1211.01499886712576881109,669.855635865905583159474,884.324063594157564693887,877.31425906222204957885,187.065866903594553605217,158.282941736091117945762
0.32500000000000001110223,0.873028813292226590903056,0.702538511211748595286508,-0.0581118809103142106020634,-0.0708950722440930408696502,0.14029733226464821682633,0.0204983895416010440670984,0.0235347631158961297093146,0.0166245318097154974601448,-0.986638023504951333642055,-0.160358693601208690537874,-0.00536599237097958037256973,-0.0468953549983389048061433,10.9143602950453999511637,-0.190400389669038300199944,-0.0768100494026936198022071,1.07177449563961713074889,3.67127948594283282091055,4.95910458720699143242427,0.542931527032795901988038,1198.89643316213005164173,1222.46797549733469168132,1220.61522080802865275473,1211.48420120413766198908,729.215599299549694478628,570.007960978363826143323,592.186629940669604366121,211.424958849783962477886,158.283738913987150453977
0.327500000000000013322676,0.676457449846232128365386,0.959511742524701616297023,-0.176912585991766652115942,-0.0690279832965315920390026,0.142412505106025266687908,0.0203341284011394132780204,0.0237562625184745135342723,0.0166731334946028687815645,-0.986631903200921644980781,-0.16035842842623140858116,-0.00670818679561184516568773,-0.0498468998195124163297365,10.9230748747495383099704,-0.190018282771974550415806,-0.0760952310461390779572355,1.07438235515329560954001,3.67163978446685268508531,4.95906002020087832704576,0.545620296380994740381709,1200.80253580509111088759,1223.54745050191581867693,1221.7988646381352282333,1212.07212366137468961824,744.611152697597617589054,307.233899789843860617111,358.961538884977585439628,259.928565147674589752569,158.28478185069542405472
0.330000000000000015543122,0.467458949191364769859547,1.14794527508038202157081,-0.297400356535668486390733,-0.0681541568831106614467785,0.145447496959144745298786,0.0199562104852084552797375,0.0239870151727073314951166,0.0167315653933806478270707,-0.986624999604757468851801,-0.160360278194611738378228,-0.00827157802573663669676307,-0.0526377575741560216338044,10.9318135200518877780951,-0.189661521205385569244228,-0.0754354411511920924793273,1.07704995563422967208567,3.67199883489175293860285,4.95901697906223404288539,0.548315057413198192470816,1202.61948892561804314028,1224.00414499628391240549,1222.41002850245354238723,1212.78384402987603607471,656.474737030839037288388,53.737296035569620755723,103.629212202531476805234,315.170971575025475885923,158.286026432262474372692
0.332500000000000017763568,0.276328605376720215502928,1.23073416887897302274268,-0.411312894452922517274374,-0.0681142723865781618552973,0.149389880375099898257574,0.0192157586332599682188427,0.0242257868163406400729976,0.0167981712320662765480783,-0.986617903870033119417826,-0.160360968636816814125723,-0.00998748790545402054252833,-0.0551240655281494407180531,10.9403996854005747252359,-0.189331075421698108440793,-0.0748203582802058203560236,1.07978057521877590652082,3.67235718786019704751311,4.95897478300109906257376,0.55101645788693032201877,1204.0849094902453089162,1223.8161369820936670294,1222.31701069914788604365,1213.64797851924981841876,521.822827385266919009155,-170.276581252573890878921,-184.799808224806668022211,401.680044968861352572276,158.287510867612638776336
0.335000000000000019984014,0.0965938413496215120268573,1.19467146919184274977965,-0.52656783813067109534245,-0.0683965441615408537012755,0.154209988151592314320482,0.0177974750485679344969014,0.0244695806327728943019295,0.0168723317567966296648407,-0.986610918600502317943324,-0.160359169941214185772793,-0.0117421268395248440397083,-0.0571915867639172098568778,10.9486499052264729670014,-0.189022367991084849769834,-0.0742409843103212091497412,1.08257544392203830518895,3.67271459079150330850894,4.95893340643147961799286,0.553725694191490980244907,1205.22860306254438000906,1223.15276209002104224055,1221.48602946132950819447,1214.79224425472034454287,303.583098479338957531581,-259.260626128661670009024,-395.785695075892022032349,415.07248275761378408788,158.28956431699322138229
0.33750000000000002220446,-0.00120783317050169106132707,1.0575644703375326471928,-0.594262047612084898240425,-0.0686221073828026661978186,0.157542424742721537400669,0.0161969811651206663238867,0.0247094010739801264731064,0.0169540634984383237204852,-0.98660409870134391230323,-0.160355918594587615322311,-0.0132891378979867191834074,-0.0587351393772819890815029,10.9563815810551119511729,-0.188716425736861759254737,-0.0736879292790847822969269,1.08543550115263864874748,3.67307045053813574497781,4.9588928310627240492181,0.556444583341470067061607,1205.60282498264200512494,1222.51983385145035754249,1220.33808222376842422818,1215.7233409330378890445,30.4128034568293230677227,-207.712058764036385127838,-506.743845052505548665067,332.195339024246720782685,158.291497881910800060723
0.340000000000000024424907,-0.0408650701719360243124868,0.830692381491931697290454,-0.622759036045303249196081,-0.0687172366086682140373654,0.159851003454893447752738,0.0144708388807563651662358,0.0249371606530912545696133,0.0170457053491609410167396,-0.986597548818965885963905,-0.160351563371370242627734,-0.014394523600700329102331,-0.0597225819125414281174358,10.963418413290776598501,-0.188394430054183187328576,-0.0731568193021620433169616,1.08835874115828201702527,3.67342422962961556720529,4.95885271595567189706344,0.559172832430086863553242,1205.38066707982852676651,1222.11420179620085946226,1218.9523102360669781774,1216.45322094984157956787,-217.773382594850573923395,-82.8338694139346642941746,-604.563996310980087400822,238.48414639332966658003,158.293656373193101671859
0.342500000000000026645353,-0.0203904727967334740978966,0.486786996349079681412064,-0.605779211880223322772565,-0.0687803029259070747292171,0.161525278941069050375745,0.0128594600256263826010272,0.0251514532423976061581428,0.0171456108806141080402874,-0.986591268937634380264967,-0.160346482355719077705913,-0.0149873230184536937459328,-0.0600800528295786229193709,10.9695956899238797888074,-0.188052392721475808423648,-0.0726373221473869817854663,1.09133878047636434516221,3.67377523143650197567922,4.95881221185212073265802,0.56190987108018985995983,1204.51395806966775126057,1222.10566450438068386575,1217.31526224221352094901,1216.91576166500453837216,-394.019364527957463906205,81.3372479131430026200178,-556.181716565651640848955,88.6329135820232352216408,158.296499557582080797147
0.345000000000000028865799,0.0540722099492983998558771,0.163070239609698824923001,-0.545640318864755058392291,-0.0689403857529508612422831,0.162097464383556266742659,0.0119262965167823628553911,0.0253578882209814643333701,0.0172517140055731647840798,-0.986585314026727111524906,-0.160339661655160087283534,-0.0151572579392032502632048,-0.0597714233205689157713003,10.9747657718511923974347,-0.187700969458906685716215,-0.0721206956237749885474386,1.09436471853392136566185,3.67412272583743870768558,4.95877055619013518139582,0.564656370338312507684009,1203.41057025718873774167,1222.52088803576657483063,1216.17140165323871769942,1216.89638551775169617031,-478.59997975083348364933,228.97448571698058117363,-378.114192720931555413699,-83.5831053127548528891566,158.299074596215859855874
0.347500000000000031086245,0.187808406106818925884738,-0.175943538621237016705834,-0.429032039255505259767176,-0.0690581763578737295450338,0.161908900578512066070758,0.0106623025346834557347542,0.0255607026584049844275537,0.0173592411801696544504381,-0.986579838513638063268729,-0.160329976880788677151557,-0.0149845467992595765549524,-0.0587189351706309398126749,10.9788046765321318787301,-0.187348098621777980898884,-0.0715924420338324291046561,1.09742491012222576074464,3.67446628295712018896779,4.95872670870611731430699,0.567412768048849325275285,1202.1209581709135818528,1223.25053693296558776638,1215.42469127860886146664,1216.49784613844076375244,-548.072729017166693665786,338.791377823144728154148,-222.481980826978343657174,-229.249806167945081369908,158.301857102065895332998
0.350000000000000033306691,0.410304322606779070525818,-0.577537455762914486712134,-0.210524600099911557427035,-0.068660248866406203838153,0.160912216194762813792352,0.00836788675241726884190818,0.0257638255009490814428919,0.0174633154589542705092953,-0.9865749163559984769023,-0.160316852023488415346364,-0.0145564172969432220616781,-0.0568627002655074237358335,10.981615491791421490575,-0.187000207310222321677173,-0.0710384381478029597323243,1.10050664776482309825667,3.67480609050677387017458,4.95867954771748120634811,0.570179598025244427361713,1200.67020661210290199961,1224.21484492488229989249,1215.05899174910382498638,1215.7501364869119697687,-467.030438577062568583642,323.860852505007301260775,-52.9497520536557146897394,-286.645779609173814606038,158.305428956493642544956
0.352499999999999980015986,0.637221704510015141131873,-0.891646809114069349710974,0.0378688828368979116256732,-0.067606737688157308996395,0.159368734281180562950553,0.00647992362495292475998987,0.0259723179840378737281981,0.0175590790369463331521693,-0.98657075051568232648691,-0.160298724571163841989829,-0.0139991814773928746618026,-0.0541680548622664875813015,10.9831304995888476838672,-0.186665396237290975856027,-0.0704450011128344849575811,1.10359600767550092292879,3.67514288827217594501917,4.95862862853310915056682,0.572958430930253670432251,1199.78580597802829288412,1224.86984119549060778809,1215.15994251834058559325,1215.0646172403949094587,-234.728970514154411830532,189.737798088983367961191,98.7668726148977924594874,-251.942750239143464341396,158.308594439536790332568
0.354999999999999982236432,0.890711008218729061169938,-1.16312281087053981387669,0.332753532119151929080658,-0.0656693601848096775164265,0.156883066280571581430081,0.00591066522346267095300298,0.02619041057135455818905,0.0176446832534194915365067,-0.986567456848614243725137,-0.160274356073519530507809,-0.0134270390232757164117317,-0.0506818320919705592175752,10.9833125834207727677949,-0.186348039640947926720571,-0.0698049471636718044109671,1.10667894012045930907107,3.67547839653160890449612,4.95857469650262761007298,0.575750350338221417167972,1199.49656175953214187757,1225.16353391532720706891,1215.55282611217830890382,1214.49042273571626537887,8.59792204082622646410528,43.5745751390185986906545,178.920895980900070298958,-194.313600462828446779895,158.311949945221527968897
0.357499999999999984456878,1.15333199659661578273528,-1.38216333622128506597448,0.632310296507105573660112,-0.0631307194467081028710354,0.153531978527986723292997,0.00699736151882474673863177,0.0264188595278297515267507,0.0177207832480632751503968,-0.986564589833517135986085,-0.160246223512539226474516,-0.0128886923796378144446706,-0.0465093043828001956319085,10.9821554536362882004141,-0.186043058557553403487006,-0.0691165819941566977879788,1.10974305430495423507864,3.67581438101854063305041,4.95851919754118419803035,0.578554925917717732808399,1199.82879558823242405197,1225.08771407118570095918,1216.0545469982450867974,1214.09304923808076637215,288.247842220016252667847,-114.154879627903838468228,195.376145893169280043367,-109.646937133265865327303,158.315458475364238211114
0.359999999999999986677324,1.41304552197358535003957,-1.51996702538723216235894,0.888628356374465799838447,-0.0600805672412820512828802,0.149423960346656531372744,0.010007699152205036877139,0.0266551365564991621370794,0.0177922369614003095250609,-0.986561616132896945785546,-0.160217382654617490622684,-0.0123641684027109149957013,-0.0418504144965254343269123,10.9796819622713979214268,-0.185736350418133383533004,-0.0683866203378090675712997,1.11277817343438623076679,3.67615146212506083145399,4.95846319696874004989695,0.581370071251407716239612,1200.937800970632224562,1224.59275951718768737919,1216.52970684164415615669,1213.94218805004993555485,636.527315992952367196267,-288.562896144366902717593,174.938405590546466328306,-13.0754071998126040199395,158.319146168425561427284
0.36249999999999998889777,1.70425615259108087506945,-1.57779241478226883721447,1.09571265775037884893095,-0.0557198624613848420006335,0.144500909362363427757003,0.0147975011251327767669572,0.0268947391027326183909896,0.0178629359545814034304634,-0.986558591958628383622454,-0.160187656386136190178604,-0.0118087439079712919198784,-0.0368908765604079591504671,10.9759409685944078205466,-0.185410307577237504217393,-0.0676183897639852926619852,1.11577680750924179697847,3.67648962086787856051728,4.95840651893706318986688,0.58419418167420578136273,1203.01143216819718873012,1223.6448995904638650245,1216.92923902619781983958,1214.02767220208170328988,837.928070136785322574724,-381.966985253665939126222,111.887272638159529947188,69.7454442773050118375977,158.323772289342343810858
0.364999999999999991118216,1.91668148152112993720664,-1.53357269096716741785258,1.16732791465211094283916,-0.051286940926230754900228,0.140761219325672842783703,0.0188738360211850482450746,0.0271345612327177250489019,0.0179336235950156540341904,-0.986555711546927338595481,-0.160156103573839164733172,-0.0112328508708200019983181,-0.0317629902712484590843189,10.9710025906212393920214,-0.185052336964803998409224,-0.0668093483198380772014602,1.11873329219138772927522,3.67682840376093178491601,4.95834905475234766214498,0.587026485215353832636254,1205.12744132131615515391,1222.68292459091935597826,1217.08914320483495430381,1214.29091527143646089826,858.310508890689675354224,-393.556351483630010079651,37.8150006476061761873098,139.510743638538656341552,158.327790885484972704944
0.367499999999999993338662,2.0824543049128543259485,-1.39356645957855840300965,1.13879638558422069394283,-0.0460329914275190016370587,0.137240689110674191075745,0.0224741586013998267956637,0.0273693109502029310875493,0.0179992522889057121604495,-0.986553756321331909440175,-0.160119146244222132491331,-0.0106299185990364336573677,-0.0264731882080074705509976,10.9649539270556015679858,-0.184648617302968359732418,-0.0659436229795438977330235,1.12164548478831616051821,3.67716605978017252454038,4.95829006784022929821276,0.589866238235930206990076,1207.30298471265064108593,1221.6771178330457132688,1217.11831402943585089815,1214.72522592027439714002,898.27373798002474813984,-429.579179270876522878098,7.25091729864288314644227,226.86581139828356867838,158.331975273080331589881
0.369999999999999995559108,2.21614986441484251855627,-1.11583296250710239938542,1.01766006213711146521916,-0.0395314644173377499614119,0.132949738695403274491014,0.0259035448079700664214542,0.0275919020426851520355616,0.018055605749006949090063,-0.986553265695560899217753,-0.160074894842170356579203,-0.00996027112218166033041911,-0.021042006577707838416158,10.9578938273355177557278,-0.184182545078187487330723,-0.0650084061822749359471629,1.12451407323868424192881,3.67749993474255321146416,4.95822910721869103412018,0.59271069360876771359159,1209.61881001121628287365,1220.53502869456497137435,1217.12539779132816875062,1215.42524432842787973641,765.346492796469874519971,-395.934857968950041140488,16.1247559321964075707001,281.957556095767131409957,158.337184601037279207958
0.372499999999999997779554,2.27028304694201921165586,-0.797949385512609077331092,0.873277579263223802108485,-0.0341595484432337184732553,0.129424149532071486312645,0.02791089270612492553858,0.027795351637041953302143,0.0180977459319994760100769,-0.986554656926416306816918,-0.16002227634698212854758,-0.00919332442307453645558013,-0.0154737051034699348017742,10.9499272501330899842742,-0.18363967929620908514643,-0.0639909712601213348515117,1.12734172248770647684069,3.67782742261296169417051,4.95816483255020479248287,0.595557798299611418357813,1211.12971717663299386913,1219.6974435432009613578,1217.19893780909683300706,1216.13501370075323393394,505.422859302370397927007,-299.684196667794537916052,55.9357325365908266689985,296.413582727199980126898,158.341680394203393689168
0.375,2.26409945200692863664926,-0.411023466932043224364435,0.718315777487746220941744,-0.0288171313392884126391991,0.12676388252841813697458,0.0290979749115508681822639,0.0279834905303279549149131,0.0181266586017880260151003,-0.986557128973157948514938,-0.159965200405682628215231,-0.00851372091481619741593079,-0.00993225408484861918556597,10.9411587675375958639279,-0.18302874974273855568363,-0.0628985221845365094495151,1.13012800354118048140606,3.6781480299323958682578,4.95809648558476823154706,0.598406923684783764727513,1212.14592430772813713702,1219.03660771122599726368,1217.40507645401112313266,1216.90731224206388105813,350.220265050893146963062,-236.935906065946056742177,118.604879189797330241163,324.169949974475173348765,158.346335014978421895648
0.377500000000000002220446,2.18559465741730418741895,0.0834656577940388055836252,0.54998377645320728479561,-0.0227524921619626507851564,0.125479184850875058465647,0.0298888175493017306527666,0.0281655739297221353878431,0.0181430008290653956015692,-0.986559290807495714581421,-0.159910423672524060201283,-0.00822057076448391710332686,-0.00458388007262250027351591,10.9316889252645772501182,-0.18237202491997131503787,-0.0617413440468614557743443,1.13287133918757021433521,3.67846347688619212945582,4.9580245033005843069418,0.601260158024633062368025,1212.88081850188746102504,1218.51276401287123007933,1217.79196220504582015565,1217.75586345062561122177,210.963805326855236899064,-137.698583244764336086519,152.407609677083968335864,269.686763141498659024364,158.352102987151994284432
0.380000000000000004440892,2.0576442818178972693488,0.470944605595842613610102,0.43526030170468615887458,-0.0179886484465898409401685,0.126197101567068287186757,0.0303508474691372535925193,0.0283493708358684981529763,0.0181505026436688012003717,-0.986560032837478728673375,-0.15986308545157693061789,-0.00855919349537885565393225,0.000355516082169809316537723,10.9216117795087299668921,-0.181688808226015047209145,-0.0605362299094889463879632,1.13557095726763535026294,3.67877546796277821172794,4.9579496164291336768315,0.60412029745009976355874,1213.20074333436241431627,1218.34811479500217501482,1218.16711450239654368488,1218.25574605777137549012,89.5117507219310084565222,0.56983846588991526882495,137.278594380222671134106,125.152121170185523624241,158.357061046693445405253
0.382500000000000006661338,1.85613570331773236610218,0.768871155162677455408016,0.346845046859166894481774,-0.0132238990928569902227885,0.128797504407921925562164,0.0309442014819228741751012,0.0285320095346763835664206,0.0181506294535070909768049,-0.986559455253472550317895,-0.159823289561142722892129,-0.0095363319638585714033141,0.0047691275103177131755583,10.911012635471291076783,-0.180976924131353134050926,-0.0592899846987721065860732,1.13823050712040108045642,3.67908433780182830830086,4.95787237420152848699217,0.606988775911595168643942,1213.32837725549711649364,1218.51561320520067965845,1218.47835517694693407975,1218.38162405647653940832,25.243261866899025847033,126.595500836901805996604,93.1494787329028497424588,-25.5243142995823077967543,158.362175178888634263785
