t,ang acc x,ang acc y,ang acc z,ang vel x,ang vel y,ang vel z,quat x,quat y,quat z,quat w,acc x,acc y,acc z,vel x,vel y,vel z,pos x,pos y,pos z,mot 1,mot 2,mot 3,mot 4,dmot 1,dmot 2,dmot 3,dmot 4,vbat
39.1225000000000022737368,-0.804791844565627467744662,0.0878266638408633504297995,-0.542212453314161790807191,-0.0295963304197926664607099,0.00475081098475238147726962,0.0250664013028766251289792,-0.0049942609089656010701308,-0.00804947239829339848682377,0.17075108654545489983434,0.9852685151395845775113,0.0441353697839404340852454,0.0327128782248645305630319,9.92935080729887964423597,-0.00879750843426819507941961,-0.0181082793630834675002728,0.161785944808861270605149,8.46074853596576126335549,0.639986536372052605692318,5.09224536235074864976013,1133.55058569534276102786,1159.10470270206769782817,1151.43510078654230710526,1138.66979754360841070593,131.583760555828092719821,-440.996219450837031672563,-521.919251445484746909642,-577.295844946115948914667,154.759276950872020961469
39.125,-1.08574193718280986864499,0.283388165057010033009988,-0.529287838576103064625045,-0.0311603581263613996221729,0.00573895177692220447018823,0.0231699126388239806662028,-0.0050474717983674506974201,-0.00806995907398086638473433,0.170793462376074983710694,0.985260728118508510853246,0.0436153357844630273909559,0.0326346809281936600655172,9.91099622438894556353262,-0.00886379596605982138235458,-0.0175250703945379962545026,0.162106132409155667684075,8.460729872248668570478,0.639945168370516848099783,5.092659725895807731888,1133.85204869554013384914,1157.78209496263025357621,1149.93751736828039611282,1137.15843385743028193247,82.9141108391767573948528,-586.365458940359872030967,-640.518602627153541106964,-643.232708657699959076126,154.763648460686511043605
39.1274999999999977262632,-1.3366175497972803132285,0.453139124789335490106623,-0.47322298472104340483213,-0.0336160624790292975050399,0.00675506425713510039871013,0.0215956385719800157685366,-0.00510947615780855349948419,-0.00808318323642232168524391,0.170841467278308872801418,0.985251968518569665178575,0.0429703803131911976631585,0.0320198616993123408303035,9.89246916758749783582516,-0.0089270888094550304714403,-0.0169524292328298541165932,0.162365850615428353176384,8.46071263396405015555501,0.639904738542008355572932,5.09307614579646283914371,1133.9651562495382677298,1156.17287540736856499279,1148.23250777340945205651,1135.45363400032283607288,-37.3577649342487205785801,-692.385476222907982446486,-693.387969090199476340786,-739.522273738779404084198,154.767988742935386881072
39.1300000000000025579538,-1.52962365025611379820702,0.5876952844792679986341,-0.380325103129006414359736,-0.0373022907541883871895827,0.00817572880765511135481294,0.0205594924407768789298423,-0.00518126358665279423965089,-0.00808246383191625270003833,0.170891430584414055759979,0.985242923540695869633055,0.0420604626569655581924678,0.0308816684640108030102112,9.87377790865654958452069,-0.00898983813039485810114648,-0.016389886890488807036359,0.162563930673627732303999,8.46069491105622262239194,0.639865968084443403895989,5.0934943792215356950237,1133.66525987086879467824,1154.32016758151394242304,1146.47057752282762521645,1133.46082248873449316307,-268.250406598416816450481,-847.260003557879258551111,-734.363666838259518954146,-940.330625220504884964612,154.772288307341227664438
39.1325000000000002842171,-1.66563877000786919602149,0.706254945485330076770936,-0.249236313262521214095813,-0.0427609039525777834267473,0.0102854356858813767577887,0.0198884338038768926359978,-0.00526153244620933355918391,-0.00806547889644590974833616,0.170936234973399492353963,0.985234853924165876470909,0.0408377624632826619066606,0.0292646007414472802965477,9.8549324796329731412925,-0.00905316578181787103007938,-0.0158356486260074827421285,0.162701078606670018755764,8.46067529187366318410568,0.63982872510309507507742,5.09391221106819713781988,1132.62390421654549754749,1151.93657538957700126048,1144.56068943921627578675,1130.75198087421790660301,-512.974325685866460844409,-884.976085593721109034959,-631.213307052922800721717,-1030.9432510421002007206,154.777395149797399653835
39.1349999999999980104803,-1.68528487787634451144925,0.770364489785613781869245,-0.139203112245211341191364,-0.047556929296439377774508,0.0123043029079461605640455,0.0197040890016339717560889,-0.00534974147203930508465142,-0.00803297033015928571564324,0.170972776569854018058336,0.985228295462680203620209,0.0393141317375955701152179,0.0271874335998176508422119,9.83594351728138072132879,-0.00911772202921848351486744,-0.0152873260431837122014231,0.162779760132196693600548,8.46065443085910651177528,0.639790851823381911955835,5.09432700092101509170561,1131.10038824244179522793,1149.89528715354936139192,1143.31451098756588180549,1128.30610623352868060465,-745.188726247698355109605,-810.206211931376174106845,-398.313293712886604680534,-987.500405939039865188533,154.781602542057072469106
39.1375000000000028421709,-1.60383427427513103324941,0.803701924610999984821547,-0.0427720293214785690638635,-0.0522544787802160862200118,0.0146260649435620039560124,0.0197917320441954487642011,-0.00544430847009580096140802,-0.0079898314276258854127466,0.17100278685464193051402,0.985222915470895355127823,0.0375887999442894304991114,0.0246738463978092570361156,9.81681979888990419169659,-0.00918338987072518826704215,-0.0147415125321092663895906,0.162803971985692463864126,8.46063424372670525031026,0.639750613219234431916504,5.09473726415322047955669,1128.8979605853050998121,1147.88554432991804787889,1142.56912297065082384506,1125.81447884452018115553,-1095.32573004715595743619,-858.136333625695669979905,-202.023976708357054121734,-1063.7695850555717242969,154.785755182524582096448
39.1400000000000005684342,-1.40155628464938097899051,0.821597977623443109784773,0.0466766725361191583965059,-0.0577357846881977471165115,0.0172195236803178094997513,0.0201163761885461873923919,-0.00554449156003780554285987,-0.00793692550547140697470017,0.171026263023484142999919,0.985218709657894931019939,0.0356817517052033378321951,0.0217438474794376668253193,9.79756893150846686069144,-0.00925191414024567268525878,-0.0141944727742347159143987,0.16277847529558386874271,8.46061587813735371810253,0.639707431309805230057464,5.09514241817752466801039,1125.62375959220321419707,1145.60460548541868774919,1142.30439110402357982821,1122.98725830824810145714,-1265.29412609681025969621,-804.165647733956689080514,-0.918626163685001828618226,-976.841031843220548580575,154.790670879404103743582
39.1424999999999982946974,-1.16724710857744295999794,0.832563907676866499230073,0.0955439174708031385696572,-0.0618675956559592635231049,0.0190123907949340219258882,0.0205196444691996444931181,-0.00564888716736834141374235,-0.00787633190827529902633408,0.171047383991331930497282,0.985214941673219990470045,0.0336429955823308590723286,0.018425174490617757250277,9.77819539372673318666784,-0.0093252443815686082012606,-0.0136424636442186338058935,0.162708177875961618186196,8.46060047758038535903324,0.639662385861347160265211,5.09554371879830014790969,1122.57148995482680220448,1143.86471609125192117062,1142.56452983983240301313,1120.93027368530852072581,-1226.7262146459506766405,-656.669698907335828153009,175.343095755898843890463,-725.653778831103295487992,154.794708786881443529637
39.145000000000003126388,-0.906905323388585982158361,0.857084631985767120276876,0.117412613289615885836525,-0.0646923067199082629796791,0.0205618996440221496468936,0.020985725918587258553849,-0.00575290624740392754488116,-0.00781565769534579672661589,0.171068767836972834839315,0.985211119546177682693155,0.0316417337396914244429524,0.0147889508120390700263158,9.75869948042899082452095,-0.00940361304945122426779403,-0.0130819508184935769101731,0.162597581683217778936168,8.46058873694541802024105,0.639617334335666032352208,5.09594206005757310862236,1119.49012851897032305715,1142.3212569908803288854,1143.18110658280352254224,1119.35898941409072904207,-1290.91929477128701364563,-635.19044993226339101966,301.699450392134451703896,-551.089009849547437625006,154.798684133647554972413
39.1475000000000008526513,-0.627971985056499648614192,0.915988631169877720594741,0.116692122238487266949747,-0.0659971716116592860279511,0.0224778086332810926595283,0.0214624744127209741983986,-0.00585261776068782702681093,-0.00776182095117270137024645,0.171092732332347619017554,0.98520680640190860799521,0.0298331351698535029992598,0.0108977522298483592289031,9.73908026732946296988302,-0.00948734759364204538467646,-0.0125109918449888384006652,0.162450055721527070184962,8.46058101922187333343572,0.639573882469598342659367,5.09633827293878027830942,1116.11689348096706453362,1140.68876384158897963061,1144.07302709179384692106,1118.1748286360593738209,-1142.07206816417237860151,-567.059141593033018580172,306.991848870990907016676,-310.089550316670340635028,154.80338119650028261276
39.1499999999999985789145,-0.46725834837104285313103,0.992884986003716218938564,0.0989762896159334659706985,-0.0655029444468411686797182,0.0242919534009455179157655,0.0217190238505946021929649,-0.0059487015018799965782037,-0.00771570836027177676258448,0.17111953607243657327075,0.985201943850343875297426,0.0282416660952628795211439,0.00674994402306193508334076,9.71933877726655737205874,-0.00957817216538897620026205,-0.0119305448349953709813454,0.162267292944594465620156,8.46057585500916609078104,0.639533575447573277017455,5.09673366886041367962434,1113.77976817815465437889,1139.48596128291774220997,1144.71606582715708100295,1117.8085416625087873399,-812.723029487909002455126,-457.107537560062041848141,183.611921875805563786344,-28.0585501783518509455462,154.807234250172854217453
39.1525000000000034106051,-0.411853691428207491220803,1.09446463968696106050515,0.0707512190917068961582004,-0.064124343738360692346312,0.0263097029929102305123578,0.0218145459877054741226754,-0.00604523871746502801383105,-0.00767507585836833469694618,0.171147856766506345493895,0.98519675396048289606199,0.0268208818943009019708512,0.00229601630474214613020223,9.6994789374679299953641,-0.00967764448055969533912801,-0.0113442685753097610018569,0.162049228836958381094746,8.46056974956763241380031,0.639497777888643703647631,5.09712969468642196346764,1112.05327833352544075751,1138.40322615378750015225,1144.99108670117334440874,1118.03453588516754280136,-593.593477332038787608326,-420.809901834503136797139,18.6916011501484575774157,166.600594053630885582606,154.811024505467912604217
39.1550000000000011368684,-0.440826925221160514922758,1.20762641520156388530438,0.0386150986505743309962213,-0.0629809049427156736333799,0.0285299437730840883820083,0.0217220621302214485226489,-0.00614413171083499042024467,-0.00763598019479717112639738,0.171174589660076148511791,0.98519179657674338379536,0.0254985473007058593974961,-0.00245706680296099710947288,9.67950829504832377381263,-0.00978606788653920735276959,-0.0107565468691423974517685,0.16179427280861910509735,8.46055932605551141989508,0.639466585043830693102507,5.0975277080714622712776,1110.81180079149294215313,1137.38191177374415019585,1144.80952383290787111036,1118.64154463277736795135,-408.873009257021180928859,-403.852158374960595210723,-199.863913865328754582151,293.0771537664832635528,154.814763362734538532095
39.1574999999999988631316,-0.533821581547782475496433,1.31662843291544917612157,0.00499373543934922628495521,-0.0633401401616272285988174,0.0313182573518132958967364,0.0214572625107681616563049,-0.00624297223208039597786012,-0.0075958365285169072295135,0.171197041317366627222185,0.985187577233740729987232,0.0242414717407364865842112,-0.00741435594507845741052421,9.65943930653092053262299,-0.00990154565273714155904106,-0.0101714024787876861077862,0.161499676772615591291427,8.46054274533279127012975,0.639439351836992186939312,5.09792792119207671674985,1110.0089132872421942011,1136.38396536191453378706,1143.9917671318476095621,1119.49992165399862642516,-308.557411424204872218979,-446.438149838103413458157,-500.036060514429436807404,369.783997619189904071391,154.818440721132702719842
39.1600000000000036948222,-0.643800300181790685627448,1.41250023909241306796503,-0.0382695604362004726528568,-0.0659919088981996138087993,0.0355918207864856991906599,0.0211986524283600402673855,-0.00633753470496190105670786,-0.00755097521917243164057965,0.171212495891741561804267,0.985184626504503890842557,0.0229992069637787455160804,-0.012431878743847726842553,9.6392921511575675452832,-0.0100213567099124104681218,-0.00959255168126002533135477,0.16116184255723023377449,8.46052029251363713058254,0.639414424869910957838215,5.09833015332290351295796,1109.26901373437112852116,1135.14972102455249114428,1142.3093435303344449494,1120.4904646208742633462,-278.448640160553054556658,-465.854182907094525489811,-709.628066940423082087364,306.685334267901907878695,154.822782510186954141318
39.1625000000000014210855,-0.679094688069076135583657,1.44189450298373333936297,-0.0811051894354348629212481,-0.0692214415091750301378681,0.0398120399170282593392933,0.0211859215955524267382959,-0.00642584368195287403829896,-0.0075009992185135990899747,0.171215437544973647643332,0.985183920967233173193733,0.0217719523282053628587818,-0.0174078902241904392989014,9.61909603741371199703281,-0.0101413938664992563098988,-0.00902450116298110678603184,0.160776751412952667585898,8.46049330607626082212391,0.639389882501426920491383,5.09873392239696343608557,1108.61667008643871668028,1134.05469444737786943733,1140.4436267971436791413,1121.03334832533892040374,-311.940455795240211500641,-455.893203895453439145058,-798.774019737401204110938,107.89350374116828845672,154.826341090196507366272
39.1649999999999991473487,-0.611133853355587008948646,1.40276792413524797886737,-0.136590408938148388795497,-0.0722447367892598418803729,0.0440416384702856655852798,0.0214056166320396035196438,-0.00651335620989725375129531,-0.00744762828487722985254527,0.171207867375760020012265,0.985185062553625479075947,0.0205736767698907752066617,-0.0223775608284025387395566,9.59889073812832371856985,-0.0102576229807997149762189,-0.00847363913653424206950948,0.160340281034211912247756,8.46046317220390342583869,0.639365244183427439139678,5.09913854401583765962869,1107.70931145539634599118,1132.87025500507729702804,1138.31547343165107122331,1121.02993213957961415872,-485.184705278904459646583,-539.965378012490191395045,-941.386067010735587246018,-161.45222082769504368116,154.829836867979167891463
39.1675000000000039790393,-0.391284477926395368729828,1.27525394351734022713174,-0.217839683528685157387628,-0.0751173116986969952035835,0.0484000549871234989063318,0.0217527472279458317094836,-0.00660377009256019661259662,-0.00739117365782195404055877,0.171197731592156870972232,0.985186641864311263283582,0.0193952022836198778588113,-0.0273272395004420798336753,9.57872582845141984364545,-0.0103671415643239676201981,-0.00794510438341708077891745,0.159848711897222495181836,8.46043014579374208494755,0.639342052411305483694548,5.0995437053152965489744,1106.19074656004295320599,1131.35486755731403718528,1135.73669646208759331785,1120.22608722120003221789,-628.905173749168397989706,-565.416218033835320966318,-915.199824624128495997866,-429.44644540667326282346,154.833957411677545223938
39.1700000000000017053026,-0.0977353907470593780137946,1.1097404849225955825176,-0.289364736554151180669692,-0.0768301162573811063927209,0.0514036083846705280087086,0.0218144140768862654367055,-0.00669534175130076254084388,-0.00733367922248595680706496,0.171192348127307214511461,0.985187382955840518228285,0.018274681949146803772166,-0.0321370254327897481028131,9.55865943787816796373136,-0.0104672455805353888796949,-0.00744189311349013459667701,0.159299125122178419911023,8.46039466922045058083768,0.639321925057508622103342,5.09994881581941061909902,1104.56478558664889533247,1130.04317391490667432663,1133.73947430852808793134,1118.88269991254514934553,-704.349775893755918332317,-522.222330611404913724982,-741.783754817781073143124,-649.752666279118557213224,154.837327450402284512165
39.1724999999999994315658,0.285688778318708203052267,0.896880889190105778929762,-0.343437691888396567918562,-0.0774506055896584111319925,0.0539746921012530592176581,0.0210853440052863466691591,-0.00678226531124120207705275,-0.00727964286850245247822988,0.171197554343457847281229,0.985186277504588536757524,0.0173072254676350234525728,-0.0366123467088462911656066,9.53875761103278918540127,-0.0105555233911949312985978,-0.00696513814476573157874473,0.158689605663433097593185,8.46035803606370784279989,0.639305504958277537319589,5.100353424943725677565,1102.66899768057737674098,1128.74375590425938753469,1132.02777768800206104061,1116.97732388980739415274,-853.109984987550092228048,-548.074371258546079843654,-681.656484935835237592983,-905.905989805787953628169,154.840628732697012992503
39.1750000000000042632564,0.800585296668318124879704,0.606876257247671246908283,-0.356355792560120787637601,-0.0762482574776557064932803,0.0565995736215012812397873,0.0188998179304878111128829,-0.0068593444481188448405562,-0.00723522790106277159660753,0.171214020943211420178187,0.985183199644017904006432,0.0166150013239056426606055,-0.040572393418220414895714,9.51909368422884760718716,-0.010630404074393712959834,-0.0065152726171924845235961,0.158019306384222041339527,8.46032161742668264992062,0.639292762127898317459085,5.10075616148837340801947,1100.29923566170896265248,1127.3028020586125421687,1130.33119188384716835571,1114.35316996351389207121,-847.996360493173597205896,-491.026881632045672176901,-573.089465684668198264262,-961.085580332937183811737,154.844507599629878313863
39.1775000000000019895197,1.23137604819268786648934,0.355320183690269797427419,-0.307360281285286085495301,-0.0734781231986452176840885,0.0581377901575741637407724,0.0164955281873781604840001,-0.00692404335264389277082575,-0.00720392969795872160909678,0.171240986065875955279836,0.985178275852180762583998,0.0162616492572083132239769,-0.0438778145659827339963854,9.49974739078662544500276,-0.0106925499224522092128753,-0.00609199172067051517714953,0.157288383095985639936742,8.46028674739723385300749,0.6392827544570049980166,5.1011552718494375113778,1098.42901587810933961009,1126.28862149609790321847,1129.16233035957725405751,1112.17189598814024975582,-686.652133274389257167059,-346.496183400946847541491,-439.65494520642971565394,-803.151200258074027260591,154.847668941297769151788
39.1799999999999997157829,1.61261689375026207038388,0.122347104494678227126769,-0.198277305142235960033759,-0.0693250242776556335755345,0.058585400664090611644319,0.0148730876824543379460808,-0.00697775092682848246256055,-0.00718171563614051090135293,0.171275922045730222276205,0.985171968091144489854116,0.0161592241361507155117394,-0.0464417028292196804040159,9.48080374959668148449055,-0.0107461069321181795777065,-0.00569415191358747536237717,0.156497721776149040229242,8.46025450607105078404402,0.639273530949567736492156,5.10154912619088296565906,1096.86597499534013877565,1125.57032114160938363057,1128.13291715781701896049,1110.33741396222717412456,-553.691632084750153808272,-226.274136210691978021714,-407.036092005416378469818,-636.593993445318687918189,154.850754209018163010114
39.1824999999999974420462,1.92120669350604056369036,-0.0716570976138625886919797,-0.0576671805355901054279677,-0.0643200421399751087747632,0.0580102198946521319111724,0.0144703110988388863183962,-0.00702507574785208796508407,-0.00715731579297939051603761,0.17131427587636527398729,0.985165120586751541509329,0.0160782484125123470430907,-0.0482205343071255149167698,9.46235095150565541644028,-0.0107981161756519183220204,-0.00531957458062725253161718,0.15564857462650802388815,8.46022562617646300964225,0.639263510240643095805524,5.10193785196908944357119,1095.66055771768810700451,1125.15725081504547233635,1127.1271498995520232711,1108.98892602091655135155,-387.191165430778880818252,-84.7114598072515434523666,-412.914765053772271130583,-399.24240341486023453399,154.853774823024536999583
39.1850000000000022737368,2.11578465733762044465038,-0.195886594490008447699836,0.0904341140972361734462481,-0.0585969963767727156089826,0.056576693368107007497958,0.0150758988862791133700458,-0.00707209670353709830836753,-0.00711942430216019623429036,0.17135465201741181817674,0.98515801972941885455981,0.0157901350696765807590793,-0.049208438788424069265659,9.44447713203222427580386,-0.0108557517607427884975824,-0.00496503274596251167882777,0.154742264884562302773574,8.46020000841478214681501,0.639252627267652639986295,5.10232325170371225908639,1094.93001916818525387498,1125.14676384257290919777,1126.06834333254710145411,1108.34120194515185175987,-222.666767598707110664691,84.8670782734209439013284,-486.456269689348459905887,-129.714407851885908939948,154.856715769964040418927
39.1875,2.20015658711410688752608,-0.252413267398422069831554,0.242897364172656282654827,-0.0512366042291396497909695,0.0546353544020122469659917,0.0163681273999483241354813,-0.00712375884048944453541541,-0.00706287672074611995454152,0.171393026862896508122347,0.98515137112310391387382,0.0151887802772624203040408,-0.0494114036971851772195308,9.42726734354513240532469,-0.0109237998504289821055657,-0.00462631534546295488524725,0.153780036845776263421115,8.46017684222760557588572,0.639241300994825234482732,5.10270780624146080839409,1094.54722387969400188013,1125.58158620641279412666,1124.69486855110403666913,1108.34035398165678998339,-80.1939944598236138517677,222.177268250672739213769,-517.319435498500183712167,101.656986686977376166396,154.860150836015350250818
39.1899999999999977262632,2.14662055701858767164936,-0.228935426683330028874153,0.332742323213936763703913,-0.0450039092275408003640536,0.0532867135731752428196017,0.0176670635286753675841087,-0.00718060511349426656285688,-0.00699452990301819167023867,0.171431909533246301657883,0.985144680746682710470452,0.0144100948102989928623074,-0.0488090933448212527245857,9.41080056469122716578113,-0.0110024400599671064171492,-0.0042976941719953566656276,0.15276323689811563411034,8.46015494814747093244023,0.639230789391756037964853,5.10309329182465809537916,1094.52904919588650045625,1126.25765018382526250207,1123.48174615505695328466,1108.8494868785862763616,18.4106404875725679914922,312.384146101361977798661,-487.283074204447871125012,260.298675828201851345511,154.862933720360501865798
39.1925000000000025579538,1.98180149469107336202001,-0.155399265788244506092397,0.375580802178969885840587,-0.0392308342783773689177451,0.0523452828809686174227345,0.0188838014428322209514732,-0.0072418032905468120857817,-0.00692007166490071854575428,0.171472928835374543998782,0.985137626554454803873284,0.0135733136055852798840249,-0.0473705107664588176419329,9.39515033755054673747509,-0.0110911142916159371346607,-0.00397255027989354067563532,0.151693353668319735882974,8.46013335533460875126366,0.639220996693595777671248,5.10347973465888760102871,1094.6392770821319118113,1127.14350693692040294991,1122.25845318008055073733,1109.64184736079846516077,34.5189915498673016713838,404.590521311113150204619,-523.867722886784918046033,351.601200745292089777649,154.865632524131399350154
39.1950000000000002842171,1.6952002597685951190698,-0.0494402036296728505937459,0.373301051941356931695992,-0.0337614550708043512083911,0.0517995106172949165701525,0.0201541274316894662710364,-0.00730401153173908766758071,-0.00684146798384330061260084,0.171512114538682231001943,0.985130907819250611900941,0.0127352397710025211363671,-0.0450262478556650996841526,9.38038313895617648086045,-0.0111890346548558002742757,-0.00364313204271548380860923,0.150572472894311526481204,8.46011092564013900130249,0.639210681116188061956507,5.10386563568927620337945,1094.70164415363592524955,1128.28060279038186308753,1120.86240754062168889504,1110.60749288231363607338,-13.1394219022360072557376,404.400194424446794982941,-492.087497007552940431196,316.840408292015865754365,154.868772208843893167796
39.1974999999999980104803,1.41859973192323352009225,0.0193740505872577843671234,0.330795958592377925544525,-0.03064263456083751724357,0.0520396198093378350990612,0.0211060883492747049239302,-0.0073587816585197985894129,-0.00675906472286846079361444,0.171545171455419004358234,0.985125330936202581177952,0.0119373827140042410022147,-0.0416288815185166527488292,9.36655569485062322598878,-0.0112944464619605406535685,-0.00329993160326227073786409,0.149403758458590996127668,8.46008739389092134786097,0.639198688909922929646257,5.10424871044163896982582,1094.57357997262079152279,1129.16550790904079804022,1119.79801569504502367636,1111.22604940225710379309,-103.188004787572893405923,316.311971864226563866396,-406.531269615353551216685,177.343003460237241597497,154.871304786819109722273
39.2000000000000028421709,1.14207506576403572395861,0.0278278158476996384518287,0.253223788485703482642464,-0.028612264798607761617788,0.0530547874557522058935888,0.0219987440100671838294488,-0.00740119405647557491306765,-0.00667613305814188529724307,0.171568863446516312043499,0.98512147233072766550066,0.0112609009603800852561406,-0.0371274778559490398199827,9.35371294979903034061408,-0.0114038911974929761672382,-0.00293471362649965102076255,0.148191604787062947146126,8.46006363078104328678819,0.639184314787837215554589,5.10462621756565315678245,1094.18570412969779681589,1129.86216264970380507293,1118.82975119254388118861,1111.49420789961527589185,-229.675498989145864925376,245.100682260601502093778,-418.849106533766075699532,26.9037312309909495411375,154.873748371691618785917
39.2025000000000005684342,0.838990330956889573954527,-0.0651573565013086331010328,0.131054924008732059936833,-0.0267962747333410286620925,0.0548555083598012208079275,0.0228980345580059585497423,-0.00743410039628036520276133,-0.00659243252752420537399214,0.171581131491720190185291,0.985119668905158007987666,0.0106930050113104579967427,-0.0316237178315524058991315,9.34188784700071117583775,-0.0115145009854471149640665,-0.00254176415640600290857254,0.146941275318492242663027,8.46003911159585086920742,0.639166142987219298987611,5.10499623563310933604953,1093.42520247767447472143,1130.3910113203444325336,1117.70377016237512179941,1111.36056805841212735686,-318.130439499844328565814,136.426272983896012647165,-422.464436718585091057321,-114.60453366418242637792,154.876575116323692782316
39.2049999999999982946974,0.618379276933693766693523,-0.235420212490251884451808,0.0168120998161085492828004,-0.0254958460381333705535578,0.0562500831334187822996284,0.0233566844947195144388541,-0.00746376497968989204706558,-0.00650848776484627602328947,0.17158458521830352583315,0.985119414757866684873022,0.0102201637579506787734118,-0.0253034005890946100958416,9.3310991397376259470775,-0.0116227315177454687544767,-0.00211721831519254537895547,0.145658545122099275515026,8.46001297089913606441769,0.63914422598959497179294,5.10535923537810631955836,1092.59505193220002183807,1130.54429401462266469025,1116.71742900895287675667,1110.92118523129488494305,-354.252158297686719379271,-1.43105649112766974972999,-421.226196282180410435103,-215.928969693939990293075,154.878840568146159739626
39.207500000000003126388,0.42959850755430101232335,-0.483002999667212939982619,-0.0916870196839151552214986,-0.0243905809489581015814252,0.0563995478639176053836657,0.0232436469226397074416823,-0.00749827349551393951970768,-0.00642324344235674186964768,0.171582303533559160646504,0.9851201204335234828946,0.00978885759801015331582619,-0.0183970932486560573293488,9.32135092183222546680099,-0.0117252692645958122436012,-0.00165911883852660883321983,0.144349084985943204584302,8.45998418449606504054827,0.639121446795488434844401,5.10571780242723161080676,1091.65394168618513504043,1130.38385603788879052445,1115.59763918096314228023,1110.28092320994187502947,-378.656925772690556186717,-117.450264827206353857036,-476.865266001624831915251,-263.728478395479783102928,154.881009484814171628386
39.2100000000000008526513,0.26234207311762808290112,-0.762814200533865283127,-0.179675578381807948824544,-0.0235418885175937182829831,0.0550198949223620684123581,0.0224460999934905924835249,-0.00753963581302937758954474,-0.00633690211535200068060369,0.171574804596518637467284,0.985121680296445756397361,0.00938239820006994684753465,-0.0110415493173310064189963,9.31263081338453702073821,-0.0118182268487755474939416,-0.00116572206370968000505028,0.143018214570088730841491,8.45995089569715474908662,0.639100858552713924076727,5.1060741156860620648672,1090.70176730333560044528,1129.9570426904863325035,1114.33310267894353273732,1109.60254283931681129616,-364.580199761589540230489,-235.478731138514802978534,-539.053616124318978108931,-254.671200538182034733836,154.883095910009927820283
39.2124999999999985789145,0.114332801031843581118785,-1.03467208068404215026703,-0.227706978798868642233089,-0.0229201331810708897052109,0.0521990971104005496705724,0.0211387946779524882323642,-0.00758709029457704884485958,-0.00625245731198177754489587,0.171565555992876095370292,0.985123478930595486424693,0.00904052695737334044423505,-0.00334342725081392122543633,9.30490997312200285307426,-0.0118973682987829881135822,-0.000636327622409566277458803,0.141670870071774090970251,8.45991301531725525819638,0.639084714910041484792202,5.10642876546583845964733,1089.83104068737884517759,1129.20646238219728729746,1112.90237110034399847791,1109.00756720725212289835,-344.845647551761430804618,-402.219751297319589866675,-653.258506024105827236781,-227.358712938914436563209,154.885079628058065281948
39.2150000000000034106051,-0.0473818334643114000281905,-1.29799589822449279452599,-0.232490908541638119366723,-0.0223197251388814743577882,0.0477314638167335922314116,0.0197369239382422373418891,-0.00763941201395587285438715,-0.00617446273672466860310548,0.171558735036122927963831,0.985124772202573217860788,0.00883009169660339821028572,0.00458506795744509365597708,9.29814396110180396703981,-0.0119590409041147628654844,-7.14466889931691245818612e-05,0.140311749566002758049521,8.45987138037542329982443,0.639073647427343516369547,5.10678129362115740264016,1088.9775390655759110814,1127.94594393399870568828,1111.06681014882133240462,1108.46574927462165760517,-273.209922003567328374629,-516.008013245218307929463,-675.344464416884989077516,-175.295294596072750437088,154.887337111726566263314
39.2175000000000011368684,-0.169070456674644070682589,-1.43697790761744159659941,-0.197523766708965403671172,-0.0221805531506954062281878,0.0433622130889811038811921,0.0188620337967196072259668,-0.00768961306298183121243905,-0.00611006709135175109237625,0.171556995830428049565342,0.985125107293373658556845,0.00888184794662633114725736,0.012722659456429349922324,9.2922723079006974700178,-0.0119999984332657856633819,0.00052921604441473696703313,0.138945570272568985625838,8.45982751292577361823533,0.639067521448043684983986,5.10713012889297601759608,1088.46499107736030964588,1126.62642231596987585363,1109.52564877825784606102,1108.1310907342713107937,-163.918355089675884528333,-570.544754951034065015847,-594.825094011362011769961,-132.753324203242982548545,154.889113065427039828137
39.2199999999999988631316,-0.270540710125579231259962,-1.47625772622134143752248,-0.136236990536023422349032,-0.0226769733357982464228009,0.0388512176488439164856459,0.0183193580092339443343707,-0.00773451881898291199179951,-0.00606311853932985523468746,0.171562422346766330072398,0.985124121099947513968687,0.00925412749705128989674563,0.0209845031637697077009364,9.28722200333409020345243,-0.0120196562042944217474361,0.00116504529392587666269954,0.137576947999783621989778,8.45978387294100819815412,0.639065063218197226824202,5.10747349128806149565207,1088.15794729012827701808,1125.09322015924612969684,1108.09268467876722752408,1107.80198265360604636953,-98.2729156237789709393837,-701.582781447137108443712,-580.299348246284012020624,-181.651750748231108900654,154.890776876709765019768
39.2225000000000036948222,-0.356764745167381713830679,-1.41197098133124288033002,-0.0539224043571060046575738,-0.0239615261370725654566094,0.0339609722915981265822793,0.0182111338700639384391433,-0.00777356957305600296259662,-0.00603304535243174254455223,0.171575727312669762403274,0.985121697305068821926,0.00991806664615513255967016,0.0292499708784867279431907,9.28290908656301638757213,-0.012020199871118074017029,0.0018353430732989620827178,0.136210213982288858014513,8.45974317280925447448681,0.639064340794625262986983,5.10781004039053065923781,1087.97362649924116340117,1123.11850840873239576467,1106.62415203702494181925,1107.22283198052969055425,-48.5196913116148706990316,-726.502522909178310328571,-483.701776889964037309255,-269.919070463309424212639,154.8926410839318066337
39.2250000000000014210855,-0.392060375041215103397718,-1.27985266369871619751564,0.00610174113473870450424785,-0.0254126118065596817707785,0.0304096089939320142481183,0.0185567807555537568620085,-0.00780871462912118268623329,-0.00601527595669853164250807,0.171595752232809400927849,0.985118051132910066414183,0.0107672739295895519839874,0.0373652110342242577134542,9.27924060176092879714815,-0.0120060613486215640721699,0.00253943131280452011333537,0.134849037014914657772735,8.45970656304446499973437,0.639063935565947094374906,5.10813993116225795176888,1087.9153488335700785683,1121.46070754469837993383,1105.67417579431617014052,1106.45238730128880888515,-17.6413431628294716801975,-640.127736772492539785162,-316.815728474754735088936,-389.46318508523239643182,154.894082692544742485552
39.2274999999999991473487,-0.388445205118141734246251,-1.09100793615874680497768,0.0428992209070511026913763,-0.026857824487409934222093,0.0275054568836314260182885,0.0190596362738545792303579,-0.00784379993088924268307416,-0.00600329900645366065781161,0.171620776739116714937339,0.985113493014321717211601,0.0116592899091740309636123,0.0451494934987260593262093,9.27611656740875467619389,-0.0119827614898801275422624,0.00327652280229475669978689,0.133496007236256181149869,8.45967385624457079984495,0.639063141837413861701123,5.10846513709662364277619,1087.88541978342709626304,1119.91786972487284401723,1105.04007339465260884026,1105.2755160551052995288,-19.4353003013830551992669,-625.371644182130921763019,-210.665180089319164835615,-616.097599578145945997676,154.895406711890558426603
39.2300000000000039790393,-0.349172773913540512857878,-0.831923932952814082497639,0.0524689983773467816252634,-0.0281424494239883964119553,0.0249934876030270883284778,0.0196131191131439716612839,-0.00787894722611482550833628,-0.00599270243383846074047838,0.17164796304196366927286,0.98510854435733496980987,0.0125078769644629828050597,0.0524869170368006121574211,9.27343048937210490123562,-0.0119550366985355597387874,0.00404656057975445303948048,0.132152398654613006945269,8.45964374993959111748154,0.63906230931485141777415,5.10878823837043860578433,1087.81817233206311357208,1118.33384932378612575121,1104.62084989386903544073,1103.37189930339650345559,-35.5483135531176301924461,-521.69515194282803349779,-106.554863198007353730645,-768.189258866839622896805,154.896858485781535819115
39.2325000000000017053026,-0.299539625770280260042,-0.612330301212385852416276,0.0314659925761074585337518,-0.0287941212982263279596129,0.0237495984018728685527311,0.0199673005315875763676647,-0.00791610378467712955119495,-0.00598220265267021371335954,0.171673765174870956995434,0.985103816047683933376788,0.0132845507486934744090235,0.0592234795241939060428393,9.27107313138336053270905,-0.0119264226173958036436584,0.00484825190194896650519585,0.130818190419226293430555,8.45961468927036186471469,0.639062506239888583614572,5.1091111106854283363532,1087.70767821566141719813,1117.30939396515736916626,1104.50729907866229950741,1101.43456976076913633733,-57.3950487267733464591402,-340.424358737200634550391,-11.7170845358593549434545,-818.393408510354106510931,154.897953655017772689462
39.2349999999999994315658,-0.247380381852063097047889,-0.410841712480903398230225,-0.0148608963715671591604428,-0.0291999599413613093734643,0.0231434286458513729933806,0.0201904571320228390374218,-0.00796001880243741265219537,-0.00597022365286519005739274,0.171696751761908045219585,0.985099529112628102822669,0.0139541006194492528402762,0.0651618768493830435861724,9.26893582714656538712461,-0.0118999044276510840267846,0.00567876143616658553975318,0.129492312422793465209736,8.45958452597604804168441,0.639064575964886860681702,5.10943380592714646581953,1087.53119708842950785765,1116.63172753010167070897,1104.56226447118979194784,1099.27993226084845446167,-79.244921757804533513081,-216.365102859734435014616,38.8066366579807180414718,-867.172447716586475507938,154.89892974477257325816
39.2375000000000042632564,-0.202128124709989615004346,-0.233966509045996168270065,-0.07575108982655924527716,-0.029518241026907827279091,0.0227069390286928456113014,0.0202981821570854988057153,-0.00801085591095980487086337,-0.0059568148031809301304329,0.171716927573328320688617,0.98509567980729517699956,0.0145324961177757949748468,0.0701923598993084152386501,9.26691031004066623211202,-0.0118770353895847006336917,0.00653540422407304470719946,0.128173104696331141560961,8.45955167680817154973738,0.639069246529070822404606,5.10975503429739141836308,1087.31145360687219181273,1116.2275684508581434784,1104.70133226195230236044,1097.09870752218398592959,-91.3228110458009041394689,-110.545552570863776509213,65.0301524879645711507692,-836.636730597755899907497,154.899807344826399457816
39.2400000000000019895197,-0.172587280981761681530884,-0.0913832194171750877842442,-0.143264004940645950370026,-0.0297438370526025841478202,0.0223238785798905575719076,0.0202375368536591125623314,-0.00806906553165888558443175,-0.00594091990182022550159857,0.171736881677468922191565,0.98509181817741531261845,0.0150214030380420304755518,0.0742141634430940333455595,9.26489232633914916448248,-0.0118589798070146204556075,0.00741460726778749631277199,0.126858642316846931263896,8.4595162045920524462872,0.639076812655304693500113,5.11007349170541580463123,1087.07458303320026971051,1116.07899976724706903042,1104.88741523362978114164,1095.09674860785753480741,-95.3498118471501072690444,-36.9690506267824900987762,81.9849623793579524999586,-787.726521979391463901266,154.900566877302850343767
39.2424999999999997157829,-0.16057316210387378996316,0.0368952793095743483697824,-0.213799509185331415572762,-0.0299590981161144236100125,0.02212718921567610741441,0.0198906513417394861797938,-0.00813368473058080111715018,-0.00592091092181687688594804,0.171758537761739576987807,0.985087625971472258257222,0.0154209719468784561824393,0.0771668565539600226355077,9.26278268549937777720515,-0.0118465702633443609181896,0.00831242075556200624153469,0.125546926679605375110071,8.45947840888799795777686,0.639087370446607905272174,5.11038809211561595446938,1086.83470454763687484956,1116.04272319772439914232,1105.11125707384871930117,1093.16007491229061088234,-70.8660648508347179586053,-15.8147224383499764854832,75.5117017797379190824358,-603.063794523680485326622,154.901343208766746784022
39.2449999999999974420462,-0.170912053391094359566793,0.104897734111097928888512,-0.248170897775795706863278,-0.0301581906060616640463667,0.0223740806401832408034647,0.0192936145309432031946795,-0.0082006675740589531770075,-0.00589677080511224679937321,0.171783422470774466139787,0.985082870226650753053832,0.0157740043841320121131844,0.0790552610099664876397441,9.26048776589327360397874,-0.0118399105906921223163586,0.00922504185678553120797396,0.124235928191161026923339,8.4594390958993130880117,0.639101244347061503425778,5.11069868968625851124443,1086.72025270894641835184,1115.9999261550553910638,1105.26497374252812733175,1092.08142963524187507574,-20.6941039915712821084526,-48.0449320423512986621972,46.2754374737178011400829,-300.572158683536088119581,154.90187892382394352353
39.2475000000000022737368,-0.199979579600511464532175,0.12841687818912086993528,-0.237792082449304276181579,-0.0304627066604205923305848,0.0230701906805935788580264,0.0182997033308278760077581,-0.00826588283563786489771541,-0.0058694738427545831843668,0.171812812883319288026485,0.98507735701865550836942,0.0161439970532702148364734,0.0798977500293358566807456,9.25792167948844557656685,-0.0118388047067020090591383,0.0101483058941845491474076,0.12292351909108874263854,8.45939875684080888618155,0.639118820666410902830989,5.11100561947399345541498,1086.73123402767896550358,1115.80249853751251976064,1105.34263426121742668329,1091.6572141188721616345,31.706292159544467779142,-142.649024230576969785034,4.83177980140433849243209,-34.4275861560896672131094,154.902301221027215660797
39.25,-0.250278578714610122624151,0.105581184293633278947766,-0.156068838937763243457368,-0.0310174299725369181923718,0.0240388023255273461376014,0.016693770584224019992714,-0.00832611902481729740377325,-0.00583869573773852876957813,0.17184617251401632098684,0.985071209170568007351676,0.0165681928593407468142118,0.0797160555543362792096929,9.25500781871256705812812,-0.0118434220242606032258426,0.0110777381891213281411845,0.121607360746504702952997,8.45935749302940287464025,0.639140369100663185975009,5.11130935249630358185868,1086.87878416974422179919,1115.28668103390214128012,1105.28913264153516138322,1091.9092917044613386679,67.1350701560796920830398,-237.601434058285661876653,-53.5535081200610463270095,206.198089109426462073316,154.902679728392200786402
39.2524999999999977262632,-0.299040065119437092899801,0.0508208689617776765423685,-0.0263951176190770527008045,-0.0316286639038249814404047,0.0244457825128882415277598,0.0152513605950355731616375,-0.00838142046867364036433212,-0.00580750821742669759428779,0.171881283810159518621319,0.985064794215562700152589,0.0171345557164114259407484,0.0784780843653288540107127,9.25167974333882447979249,-0.0118532302132615049994335,0.0120080754742697415338171,0.120285075925398374230291,8.45931550316245761678147,0.639165988574114662945647,5.11161051272377697785032,1087.06690937845905864378,1114.61449136722217190254,1105.07486672061736499018,1092.68820456441835631267,72.0309987290051907393718,-306.675200628003494784934,-131.115432494358401527279,401.462608482665189058025,154.902890698653408207974
39.2550000000000025579538,-0.346840312140250017769461,-0.0268147807715324176802696,0.154558933782357132979968,-0.032298287624999602596354,0.0240934907053403056520491,0.0144098862285917724695983,-0.0084373251465583807423565,-0.00577691242966792660451514,0.171917183224313041556286,0.985058225609601434413776,0.0178750852658038084097569,0.0760743168046521811564986,9.24788293140638550937638,-0.011868254399647049784905,0.0129333570933354742582555,0.118954261480917644622224,8.45927278064392140777272,0.63919525774298135978313,5.11191001856185245344477,1087.23893916338943199662,1113.75330503076133936702,1104.63355547906303399941,1093.91660474687569148955,52.4132898846533095138511,-395.920858034357763699518,-253.292515431537623271652,602.111998231895313438145,154.902996379607202470652
39.2575000000000002842171,-0.392279187327561729148329,-0.131754812715893176999771,0.393366226965657650449515,-0.0333197802024030945156063,0.0231764566578765048021626,0.015157853684641012931289,-0.00849790282013970776908707,-0.00574610231672456357038259,0.171953664894687385800154,0.985051508358462668546451,0.0187911897963775886832849,0.0724437256911827920369262,9.24357248815095822180865,-0.0118886075994974940023274,0.0138488191529557800457662,0.117612574184916593433847,8.45922951813592227665595,0.639227690656458791274019,5.11220821771355371510026,1087.32897582788245927077,1112.63488707704937041854,1103.80840414345902900095,1095.69876455557937333651,2.78061297117599748318639,-402.929991797239324569091,-350.709460260896491945459,671.436025122985824964417,154.903005148197820517453
39.2599999999999980104803,-0.411323756807389251388685,-0.225114318930818901876023,0.575759035408749286766295,-0.0345826173063733185997215,0.0224519734304140620995138,0.0172193420286982923350649,-0.00856664912476747322789272,-0.00571514031602990239810946,0.171991884998043492727149,0.985044410734418285358061,0.0198984599326243460915009,0.0675483862392917411288096,9.23871298994602874188331,-0.0119137712981843470888554,0.0147507388197094593818015,0.11625809436588066536622,8.45918654307193307317903,0.639262383623931618181757,5.11250479345552300003419,1087.2528422282452993386,1111.73865507177697509178,1102.8800081777601462818,1097.27378487248756755434,-68.6918783460999833323513,-330.291249204368966729817,-410.475414754609232659277,609.685281328581368143205,154.902916745480979443528
39.2625000000000028421709,-0.402532285447979865100621,-0.327467670697691726200418,0.707162599205322983664246,-0.0361609531827214794597047,0.0219942004416551623036113,0.0198112266882020174318946,-0.00864516987790083478448988,-0.00568331392871270976718812,0.172031701966117556157343,0.985036949157859331727138,0.0211981984571863735222763,0.0614023257246509024387393,9.23327806302759412915293,-0.0119428808450087152459584,0.0156367686377797757146801,0.114889525927470481647674,8.45914400044757464058875,0.639298467361174127532308,5.11279894861831518682038,1086.98551643615178363689,1110.98343083102668060747,1101.75602706968493293971,1098.74719096222383996064,-139.140659178221284264509,-269.676595330200427724776,-466.041493922728363941133,546.62157111355782035389,154.902732154096440808644
39.2650000000000005684342,-0.369971523421909254114581,-0.440465886372986226149351,0.783290081630299561687991,-0.0375385682769990361440371,0.0216706261308653863606466,0.0223572507079221362291666,-0.00872846547460030819376442,-0.00565318508244988613548054,0.172071554264625475871853,0.985029425046251461139946,0.0227646426979966343129291,0.0541437967995150593036868,9.22724830227292436291009,-0.0119735117325761239448489,0.016506702822833715926798,0.113506358065003726265374,8.45910138603091432685233,0.639334870016076806109595,5.11308867148396828383738,1086.55713893235383693536,1110.39027209512528315827,1100.5498007081453124556,1100.00689272805675500422,-206.397762943748972475078,-195.734444206160105750314,-475.191812056141486664274,428.958981019176405879989,154.902470136674367040541
39.2674999999999982946974,-0.31574972064327833098929,-0.56426349796508934453243,0.790866139118593047818706,-0.0383153715683633849797829,0.0211571193538374925646739,0.0247727582870400121761723,-0.00880916507866671104343137,-0.00562884663657625076288449,0.17211295268907020328264,0.985021615677073469896641,0.0247003772938085702781663,0.0459625735337377272493598,9.22061291527805337864265,-0.0120020669355924911037015,0.0173614042958413726525091,0.112108879939774919165529,8.45905836614505801662744,0.639369730771895627974288,5.11337212573847743612987,1085.95352762143397740147,1110.00475860999677024665,1099.38006800940638640895,1100.89198586731777140812,-297.64314530710413464476,-125.924552166660916441288,-467.867463163235527190409,287.472720942231092067232,154.902117564129071070056
39.270000000000003126388,-0.238103105194722025617082,-0.710211062677438498269566,0.73062842935472094296756,-0.0387055673552479662102854,0.0196996498260952682124447,0.0272891324276206166665748,-0.00887793516601398553789171,-0.00561607858641082879208595,0.172156580272441656065396,0.985013451781979076926632,0.0271348332219804450060607,0.0370920781544544636565419,9.21337010104924125641901,-0.0120239837460830445436955,0.0182021632341673317290187,0.110697895750205679843425,8.45901429876310828603891,0.639401187377417357105003,5.1136479928740703471135,1085.06892320581755484454,1109.76064933429165648704,1098.21046339232793798146,1101.44425633276864573418,-343.285520549995339933957,-58.1786335882655052387236,-365.261073992173407987138,118.562105417398299778142,154.901593395397242147737
39.2725000000000008526513,-0.169444690522883689709488,-0.811604844170231820577044,0.635608118764180662907393,-0.0386939651695748232373973,0.0175271145188702973105599,0.0288590041122289003849843,-0.00892913222009746390672724,-0.00562084609715390263323664,0.172200319764665099597778,0.985005319707138560225701,0.0301774846438959687411341,0.0277117648084578144240808,9.20552919336723363130659,-0.0120346133588590670226992,0.0190288446706634410687808,0.109274328865127501320131,8.4589689129457319438643,0.639429617109549930376033,5.11391544140386677952392,1084.23710001868312247097,1109.71386544205529389728,1097.55376263944458514743,1101.48479639440506616666,-342.234592282913808958256,8.93150749812678590444648,-177.83697252564510904449,-56.0821619792987675623408,154.901074970721538193175
39.2749999999999985789145,-0.0975372542942160580814459,-0.871069400404516969160795,0.511130044126142601967899,-0.0389269000578850790650343,0.0145469065861695886349159,0.0298909127553009870692513,-0.00896290183083703166644352,-0.00564592586866241672588496,0.172243652493673016223852,0.984997292384234612860894,0.0338515756753250962596269,0.0179197529022620261063281,9.19711212601936622945686,-0.0120301680251093910667404,0.0198390566503391582720006,0.107838541873301149709441,8.45892218676622675843646,0.63945708707230597411808,5.11417488819119459009244,1083.35775024440454217256,1109.80530687178224980016,1097.32127852970052117598,1101.16384552287240694568,-387.833955768593853008497,68.1741566434190247036895,0.441096067833997851348471,-195.615198337454756938314,154.900474935678118981741
39.2775000000000034106051,-0.00255976821794659525899363,-0.883699155636975652861054,0.343306143970946719967685,-0.039709277993047187305109,0.0108177733606393128296119,0.0307120797058190800332689,-0.00898258812182760324471786,-0.00568841628032148820259817,0.172286957914847910222633,0.984989289496232434117928,0.0380572283186600551774248,0.00778843333767342826945423,9.18815405895132464308972,-0.0120083960253109956611839,0.0206283508405687363018721,0.106389515237023252192117,8.4588742517966863943002,0.639486933653257705323369,5.11442836662491018273613,1082.29793023983916100406,1110.05473622527256338799,1097.55596811978375626495,1100.50672040271729201777,-385.97604478471373568027,110.259796125626948537501,164.175624368324548640885,-262.566420555142315151897,154.899664130190558353206
39.2800000000000011368684,0.0841095580884104743191187,-0.851797170965696293087888,0.19477156905685619192603,-0.0401510452792437425029171,0.00834106282534302460873743,0.0312083240539563315507632,-0.00899561437192067034351872,-0.0057416210614638649514796,0.172330425251123492413896,0.984981249301835060094845,0.0426033355835020582924599,-0.00265690540784023487841381,9.17870441320777175064904,-0.0119683372067222355827898,0.0213898587790070336678294,0.104924454638604378042821,8.4588248430571564284719,0.639521784330035703014516,5.11467809770991976847654,1081.42787002047998612397,1110.35660585241066655726,1098.14215665154256384994,1099.85101342009602376493,-348.264429307663021972985,129.362300570282400258293,297.773102360131588284275,-260.851841147733352954674,154.898915429393781550971
39.2824999999999988631316,0.169971679356951177464197,-0.795564099582112049802163,0.0410053355041715694717652,-0.0397348027931811384472205,0.0066750690685410604685579,0.0316120900131059423543434,-0.00901088395098311595310392,-0.00579789691316622089051203,0.172374748825654622308434,0.984973014452283579522884,0.047268821089236939814171,-0.0134002250106153297792844,9.16882683981840784781525,-0.0119095842960969654916736,0.0221150831641311086672719,0.103438630124913347185789,8.45877351540971744725539,0.639562908069530866583818,5.11492662101032635746378,1080.55660809330242955184,1110.7015477281233870599,1099.04483363158306019614,1099.20246119697981157515,-394.375400287961554113281,140.125283310700240235747,445.942546274635958525323,-268.141593743256805737474,154.89809402722170261768
39.2850000000000036948222,0.257720537508305980178847,-0.724198304045416074714581,-0.145407552994340744101365,-0.0385561112315228882163609,0.0048270074146112059571001,0.0319060285368262808169959,-0.00903127734268206576462301,-0.00585191649272304853512949,0.172419478940893211582619,0.984964668842448931584954,0.0518861255197766296776152,-0.0243103695674403985638179,9.15859807271676906736957,-0.0118314055128925441073839,0.0227958735026372663612371,0.101925374254858466804841,8.45871945951235737481966,0.639610850578040235347999,5.11517544444399696601522,1079.45599301903916966694,1111.0572322689645261562,1100.37186938291688420577,1098.51030545137905392039,-421.814448169755223716493,100.049926930017790027705,511.327807499594541695842,-237.406657847501691094294,154.897027886167506949278
39.2875000000000014210855,0.311686534799703596210207,-0.675273890633013906814597,-0.295701814537647600378278,-0.0372086210130677108587349,0.00325495106073611694189052,0.0317555839497917560820817,-0.00905772962732040616551377,-0.00589814612589277184606651,0.172464493620718889443921,0.984956259422307689455067,0.0562847305577306722401687,-0.0352095824335614676625639,9.14810948857044614612732,-0.0117333796985548514946185,0.0234244502740785752459285,0.100376648907398141608027,8.45866253518492072771551,0.639665610844658449885003,5.11542582376916410424883,1078.44753585245257454517,1111.20179736277373194753,1101.60147266908234087168,1098.01542790774169588985,-429.385711921831330073474,-0.266573669933010570787246,503.291413317541184824222,-187.289587349630238577447,154.896075005493685239344
39.2899999999999991473487,0.347753795395215448138515,-0.650614015990896854546577,-0.426728246207917050192293,-0.0356092089877705006428776,0.00196761049264995019347779,0.030930400104395055355111,-0.00909196649044617319357364,-0.0059287068018125258297979,0.172507835571742151881125,0.984948161550684653242627,0.0602453360199695087118243,-0.0459192156572767323785556,9.1374671597992485061468,-0.0116160767499949857395336,0.0239937341085534119877742,0.0987838389539096861646783,8.45860268144397942080559,0.639727130516905995172294,5.11567871333682688828048,1077.30906445943196558801,1111.05589940061486231571,1102.88832644950230132963,1097.57385751463175438403,-476.629961185046227001294,-123.771140998251553355658,516.67185131533130970638,-175.750465626061782131728,154.895058375376379444788
39.2925000000000039790393,0.379735330990806640993895,-0.653688372984670196252921,-0.528508495218497409418035,-0.0342141137213714113807228,0.000964370988508845184035423,0.0296111938977802434391773,-0.00913421974741824779786548,-0.00594187738877338927218075,0.172545883418916468077242,0.984941017687745334896476,0.0636624757281215036819333,-0.0562499120803811036850561,9.12678732686909555127386,-0.0114794033179160519936302,0.0244984018193645444738671,0.0971388517409355056742015,8.45854028199928542619546,0.639795103694510203240498,5.11593394081479679869062,1076.06438604652612411883,1110.58294165778215756291,1104.1848319256603190297,1097.13667557961093734775,-514.768311490261567087146,-279.954400246235763916047,513.016975453330246637051,-182.280123322968819365997,154.893991217920444114498
39.2950000000000017053026,0.429806982334657305955261,-0.693055972434180933561265,-0.579989013704214517730406,-0.033394653344805937111861,0.000115505678970247808719056,0.0278411862561987154263132,-0.00918631024062215029157841,-0.00593864269242899353584697,0.172578698694563770210664,0.984934794987964101764533,0.066475585731634645458854,-0.0660528558883345245922314,9.1161939572031744916103,-0.0113232583147980566534718,0.0249354090881881602925763,0.0954351431066839672734403,8.45847608263513350834728,0.639867997822846090727467,5.11619069181921126698853,1074.73522290197934125899,1109.65612739938296726905,1105.45341132677026507736,1096.66245689801644402905,-583.256833822982343917829,-512.037403792885015718639,539.281671325206161782262,-221.81399371868047865064,154.892865839906193059505
39.2974999999999994315658,0.543438314528103205702791,-0.773023195458540035573947,-0.570631573949669013146035,-0.0328689461099159405121917,-0.00111157949551166914878286,0.0254609153413501432261512,-0.0092481630509364740055922,-0.00592138043389243019093415,0.172605457268621642619166,0.984929626562560889269093,0.0686571823093039823593386,-0.0751585146083864480415215,9.10581424407595818593109,-0.011147999211101721622752,0.0253053195429003043026572,0.0936684714580847677112274,8.45841059222563096398062,0.639943540312669423286707,5.11644768315298570371397,1073.14810187741386471316,1108.02275463882006079075,1106.88124028228389761352,1096.02760561101854364097,-560.151738391036701614212,-673.517389870468036860984,495.567084045452475038473,-241.479696802629547391916,154.891450913954486168223
39.3000000000000042632564,0.700512213841960496019112,-0.84982722301090907190968,-0.501411906807207374825452,-0.0324088440422069593016552,-0.00259302253441519650611902,0.0235567028102577624704139,-0.00931421839429341820448816,-0.00589767768852200290757848,0.172623284653354414075466,0.984926023328292710168341,0.0702944984983703002878741,-0.0833310360948750217247039,9.09577223590594385882468,-0.010953825088742229210137,0.0256132226559257630826849,0.0918376253943910536570172,8.45834481708468111094135,0.640018843020983108083044,5.11670191118520190087793,1071.93446421002272472833,1106.28854045002890416072,1107.93124674699879506079,1095.45505841400267854624,-436.985453312130800895829,-744.921252578916210040916,373.281482458687605685554,-230.700974036945098077922,154.890219483348204221329
39.3025000000000019895197,0.929109184379528052488695,-0.907110827427868082750706,-0.376057275094898835199331,-0.0316136852304101031996275,-0.00474628785021169712771139,0.0220321813428202319118387,-0.00938071919112902496973305,-0.00587267880232209167623569,0.172632702366711410224553,0.984923898576785639136233,0.0714322869869607468551465,-0.0903830627567474148564841,9.08618563847559457258285,-0.0107422879980748949696467,0.0258677802417165182691239,0.0899449858834654725203706,8.45828076316697696768188,0.640090672750261546752881,5.11695002670107879083616,1070.96317461085209288285,1104.29814837592357434914,1108.74764769457829061139,1094.87410074083322797378,-346.868169660089620265353,-894.63346493934716363583,284.725627737484273893642,-249.242674674496129227919,154.888934602864253520238
39.3049999999999997157829,1.27115887348492906383512,-0.914455934894641719878905,-0.181128545640012517115025,-0.0298690143561398217808556,-0.00813789595165684796762573,0.0209060218593120558661091,-0.00944382223963828419666111,-0.00584605070649044187419685,0.172640626068810532078857,0.984922076852864036844437,0.0720270127144679583874876,-0.0961391565649871021603801,9.07716076145149131093604,-0.010516600282671231120224,0.0260813236038428923613264,0.0879963852791385975349314,8.45822051449912670761933,0.640158275101663121198214,5.11718982834352420496771,1070.20012336172385403188,1101.81537312533623662603,1109.35487488568492153718,1094.20884504063133135787,-202.641189486851232004483,-893.95118885626652627252,148.559491453760131207673,-237.568587410703514706256,154.8873309394026875907
39.3074999999999974420462,1.5853898679502060886648,-0.845990391518883222410352,-0.00178389506742696046792673,-0.0273099490481166079502984,-0.011568456017639422439558,0.0206641744711548343282903,-0.00949509441808313488231352,-0.00581971727662353166543596,0.172652427910151951007123,0.984919683692091929572143,0.0721000457092199897868312,-0.100382956785556490264533,9.06878493442692246162551,-0.010280417982499708354216,0.0262694112066831318708093,0.0860007472962124180915211,8.45816512072301662783502,0.640220877805556476403126,5.11741949791872485775457,1069.94996866341875829676,1099.8283924316463071591,1109.49044515184641568339,1093.68625780378079070942,-19.697406877993600460286,-741.564126503119837252598,-31.1509570575094372202329,-211.484437552809168892054,154.885942371251218219186
39.3100000000000022737368,1.88113150708654552900612,-0.688577018914018235129504,0.168847680281559719972506,-0.023096869467157839228566,-0.0148420834976180360254006,0.0211449677881864611661555,-0.00952499359499295664144292,-0.00579681397314817364180284,0.172671696975754324077101,0.984916162299746544839252,0.0717094297363792265720406,-0.102919765058972295657114,9.06112239004963804234194,-0.0100379292350687224222305,0.0264492279312780152744633,0.0839695198180581831026714,8.45811499432361735273389,0.640277237142004906900183,5.11763741475406863656872,1070.1016363273338356521,1098.10755249281874057488,1109.19912010039729466371,1093.15142285286674450617,145.738645928047873212563,-663.057457536048787005711,-227.151952486812859888232,-261.105218261766935938795,154.884498048866930730583
39.3125,2.15043007034787425624245,-0.41246830401424222634077,0.335873593988523455600159,-0.0160429739893134665207342,-0.017347064538789314092071,0.0224197403802720747478805,-0.00952891549185994925219578,-0.00578153320620958168646331,0.172698035490997603425001,0.984911601161571170770515,0.0709288811535190855117605,-0.103685121412644840055428,9.05421102083704631979799,-0.00979387668555923088242743,0.026637428882332989110715,0.0819160142809888525139428,8.45807016627643726280894,0.640327365610227072778571,5.1178424994499982503271,1070.67866189305937041354,1096.51310514396436701645,1108.3546853894117703021,1092.38073171247128811956,260.20809962265974490947,-492.552423194722507560073,-384.348315827841702230216,-324.100933065869071469933,154.882697600917168756496
39.3149999999999977262632,2.26461275736611744591187,-0.136622378629986718223677,0.428515235179423414901834,-0.00904630076876286083609191,-0.0179341612021983558278304,0.02388565000076141656149,-0.00950878995311347716135053,-0.00577520439101198834047635,0.172731238406829135101361,0.984906008619210071586281,0.0697738484018415594523077,-0.1027612880366798320253,9.0480619235106498621235,-0.0095536595343840499672261,0.026849000782665635028712,0.0798542389815821707088617,8.45802996835631404337619,0.640372393276477658297097,5.11803438260509313550983,1071.40267682544595118088,1095.644790376847367952,1107.27737852125983408769,1091.53091818753887309867,315.328791541762825545447,-249.913592141146580161148,-487.864885273552829403343,-401.42287287419475205752,154.881138775469167967458
39.3175000000000025579538,2.24157109726274850203254,0.149191707973324677594107,0.4633885137064821524433,-0.00198106439800202222684122,-0.0171882806736447929507605,0.0255722812931982179662782,-0.00946920216645644012565253,-0.00577489791145652329312776,0.172770567566862293107377,0.984899486861322781550143,0.0681885323261086084833948,-0.100301124424461499118344,9.04266029134145021828317,-0.00932308170814325279374124,0.027096907997424760777827,0.077797454498732127037286,8.45799377575742639123746,0.640414477046841068563765,5.11821429445334086238972,1072.25530585076899114938,1095.2635371832579949114,1105.91536096304275815783,1090.37361734809928748291,343.584523735905122521217,-80.9048436590314707927973,-567.765828921920387983846,-517.550545551065511062916,154.879516877429637133901
39.3200000000000002842171,2.10922931685332182283332,0.419830144083531309195934,0.450625323920277820466396,0.00453268009361136852558571,-0.0157123949296098554262446,0.027245785988200290489436,-0.00941797202409246601850779,-0.0057773193731847040030547,0.172814232113013388492107,0.984892295321585731215919,0.0661125574708467111939569,-0.0965465124714149358631232,9.03796667164768052771251,-0.00910740561693427520817412,0.0273910957146074537926772,0.0757571740007261240634762,8.45796055268796465043124,0.640456165088278073227457,5.11838440909177450066636,1073.12059944412635559274,1095.24026615855200361693,1104.43854937664877979842,1088.94316545978222166013,329.1881841211572350403,55.9151166232422056623363,-581.076200531089057221834,-626.089877158234344278753,154.877841548403409888124
39.3224999999999980104803,1.87318411017232744342209,0.655354347847666884874229,0.389737126127025712563068,0.00987069966375804692948481,-0.0137256211420582387855438,0.0285871424770776268176053,-0.00936535850537541757210303,-0.00577714453114024605040466,0.172860499381864568535505,0.984884673444318181623203,0.0634524211245093283650931,-0.0918038306674512361027496,9.03392149933510957282579,-0.00891118656585985179086062,0.0277382442073076662669706,0.0737421972732503067105014,8.45792866948264077109343,0.640499171413147938558552,5.11854731303576926393362,1073.90124677137328035315,1095.54311276637395167199,1103.00997996038995552226,1087.24316796231096304837,304.973567892446624227887,174.367142271650578777553,-568.77714906166158925771,-775.650331594500812570914,154.876101272925211560505
39.3250000000000028421709,1.52397747655528403853964,0.890202588384419901679223,0.281694391037542402056459,0.0144148949024327371892795,-0.011040287454043881676391,0.0296279766571512503947616,-0.00932383916584465788357505,-0.0057663777385520585336276,0.17290910527524575024394,0.984876596838915374654277,0.0600691298358999037354522,-0.0864318886840043654196108,9.03045052165828820989191,-0.00873799570026268478117881,0.0281417441668918508201891,0.0717580820412207082137357,8.45789623496615661224496,0.640545531803983103635858,5.11870661255708991888014,1074.64546728358936888981,1096.11210186991070258955,1101.59466363133901722904,1085.06491380180773376196,234.040124067103846527971,216.903202563096783705987,-442.243329610938644691487,-787.73421318688349401782,154.873938280829861469101
39.3275000000000005684342,1.21968056237065991531665,1.04837845607463653330171,0.180395276913166729970683,0.0168028315760676387469186,-0.00854712581689090998560143,0.0300413194845550075851026,-0.00929728719179392058824529,-0.00574091490617399148599365,0.172958164325504676339662,0.984868382068898151615599,0.0559261598603515985850265,-0.0806622388258260297755342,9.02746871085862245820408,-0.0085892939542905923089311,0.0286031921172012447429633,0.0698066870538965739134696,8.45786150674426195905653,0.640596345253788501672432,5.11886318992685485085303,1075.07144739170939828909,1096.62762877918999038229,1100.79876331233413111477,1083.30449689637453047908,132.106123702517010087831,187.251815011756889362005,-226.314930263857888803614,-652.04100512987861293368,154.872074667489556532018
39.3299999999999982946974,0.94116790260274751922509,1.1751316345698623599958,0.087934845177208717514894,0.0181493771216981111815691,-0.00593419255435462689868276,0.0300720656079522946635407,-0.00928277726513632162053113,-0.00570103141139785638685789,0.173006065621956084399358,0.984860336382844425706651,0.051090467711935469430351,-0.0746261816450791981569779,9.02488614324770033192635,-0.00846448632138549830750129,0.0291224744165863407008299,0.0678864952273875027488614,8.45782365325693419322306,0.640650350731936324422122,5.11901739373307140823499,1075.30599790210135324742,1097.04836094496863552195,1100.46308898002075693512,1081.80470877616130565002,72.5147604913756396172175,139.805723947685095254201,-55.3904838367260197173891,-565.485070182314188969031,154.870149867439920399192
39.332500000000003126388,0.660489997846122278701841,1.30116150707700062305605,0.00647286238927619397842683,0.0192337264181900793880153,-0.00273189220161218406651704,0.0297761460651095911933428,-0.00927568295524013389230511,-0.00565176572438849927210169,0.173050973702501637019324,0.984852795963685134772447,0.045721239763429288860408,-0.0684394257756110041546194,9.02261409063382835427092,-0.00836137278919069949767451,0.0296974708748997395790781,0.0659932445222227992420727,8.45778243482979519285436,0.640706271726655507414705,5.11916978833024227668602,1075.43402119416646200989,1097.32665739892877354578,1100.52181089315035933396,1080.47707154546151286922,35.1708735526519546965574,54.3181992504009443223367,72.8694789950250338961268,-398.153772473575429557968,154.867773169226978779989
39.3350000000000008526513,0.473047033288408524942525,1.38954216876326408502962,-0.0272333246113168336854926,0.0201052419751031295758192,5.76389422825752899119146e-05,0.0293294886452427350231886,-0.0092713105900211062460059,-0.00559854111829497392421873,0.17309319651096918835087,0.984845720804171764761747,0.0399857478881548433768955,-0.062211036439500211336906,9.02057175901219210345516,-0.00827706218966087550747979,0.0303243279383953560912612,0.0641203344216160209256827,8.45773778800780462461262,0.640763341344927850329327,5.11932117602497616104529,1075.48185226986470297561,1097.31995194122077919019,1100.82743637499606847996,1079.81393991379241015238,22.287875762797092704659,-55.1767420015541389943792,136.806498032307729317836,-181.075645270612824333512,154.865740161867250890282
39.3374999999999985789145,0.323556926037648850957851,1.4609483868770181125285,-0.0205225033397238298960019,0.0210075894355161683912936,0.00321741374720882749443929,0.0287980611098603497821635,-0.00926408996938933929077287,-0.00554912787183426802622987,0.173134873335140798689125,0.984838745479100441393427,0.0340955587003268500989606,-0.0560288246024175928816646,9.01869041875236732153098,-0.00820817223309207311121583,0.0309977073601717494077956,0.0622593745962932987314531,8.45769026543688262620435,0.640821491128968356854045,5.11947315810519221201957,1075.54546057298034611449,1097.05077368892125377897,1101.20584338331127582933,1079.57169331910927212448,42.2902650804882895840819,-171.150707428436106738445,142.05591628776355150876,-38.1903339768800975662089,154.863656784104421149095
39.3400000000000034106051,0.170629301895937640631828,1.52064775569012922140644,0.0305658285084186506774806,0.0220145783660419744331982,0.00768506955985302948886062,0.0283190432244597098399019,-0.00925398382152683995904852,-0.00550898330894295396725768,0.173176515862336510842567,0.984831751338000382922644,0.0282021941000951681388642,-0.0500527371111075813914226,9.01691827680051183335763,-0.00815218937127942799847347,0.0317101704936970027470799,0.0604011561862028700797822,8.45764046511660971816582,0.640882398783784168472266,5.11962739016258616686628,1075.69330359526725260366,1096.46419840407816082006,1101.53771595643524960906,1079.62298824390791196493,67.7119447543299486369506,-246.12266874515768222409,80.5675315773029865340504,49.0027495149865330859029,154.861102857775335905899
39.3425000000000011368684,0.0541935624764696699529054,1.5436035190755132973095,0.100139962408336627430749,0.0225929099624715239158501,0.0118045761533624189026925,0.0282850651172593947624279,-0.00924726714187536734390616,-0.00547485023069603417983364,0.173219177089681097836404,0.984824510553418241975976,0.0222810570236823268785997,-0.044504604776646167207943,9.01522366424300969356409,-0.00810831174374289365136548,0.0324525360432933868137795,0.0585364860594843952612543,8.45758921699846766273367,0.640948604361064155909844,5.11978260736755963478117,1075.88402029675216908799,1095.82016034519483582699,1101.60868104119799681939,1079.81670706668433012965,85.9605528402298233459078,-268.319548272000531596859,-24.9568347174999480841961,81.4281562240752663228704,154.858932638545496729421
39.3449999999999988631316,-0.0592967502521144496085981,1.53803445485688916605227,0.182264898215652004775933,0.0226175354298270812891669,0.0158894102419512919799338,0.0286205164526933605873005,-0.00924755187312797932719377,-0.00544277239105628654614044,0.173265791248622541553814,0.984816493794442804343703,0.0163021271730541539302095,-0.0395305972787267784207543,9.01359287257293928519175,-0.00807619031984436498705637,0.0332152327763512861258377,0.0566568368657545881617033,8.45753746167601683225712,0.641021045711282488888116,5.11993733099152148469102,1076.12310635946801085083,1095.12260066271937830606,1101.41293178284786336008,1080.03012902502791803272,106.262903083316118113544,-291.322120432220003749535,-144.882150247457047953503,83.78660535536516817956,154.856722126976933395781
39.3475000000000036948222,-0.198258903976361505749892,1.50676941010958476141468,0.2753562273775139734866,0.0221743581969325205538457,0.0203920276089411614539593,0.0292635746076249231295563,-0.00925464777951344290396474,-0.00541199260454025381228416,0.173318229469869411474292,0.984807377729700283985892,0.0103020770800737737626918,-0.0351908670626942116088642,9.01202820762937584220253,-0.00805554678253533364140626,0.0339888190595364764190478,0.0547551361137301115245002,8.45748590703799330015045,0.641099002250677840741844,5.12008968797227748126488,1076.41533481216902146116,1094.36354974303299059102,1100.88427028996034096053,1080.23564009346137027023,99.0315591299752639997678,-246.244031152729348832509,-234.208482966567544281133,69.6701916031641417248466,154.854026372869242322849
39.3500000000000014210855,-0.321033565381969865359935,1.47016093107582612731221,0.333661368311792660978909,0.0216665645169775433753756,0.0237019015914400610345325,0.0299851537417072828983766,-0.00926178907462366259040198,-0.00538677924673338671957001,0.173376638111094744099105,0.984797174910489458987684,0.00442521604390486156255236,-0.0314154462788982374865654,9.01054521533207797290288,-0.00804581119880655795673086,0.0347647213149224129646875,0.0528261233357316326020303,8.45743441491487324412901,0.641180923662084900627178,5.12023737540831636039229,1076.61826415511814047932,1093.89138050695510173682,1100.24188936801442650903,1080.37847998304391694546,61.5333868584107506194414,-137.078664378202205398338,-284.96947299575822398765,65.3062142297724790296343,154.851746264327942981254
39.3524999999999991473487,-0.456334798766950433535072,1.43342360611188301966479,0.354365070581505126057209,0.0210770274097989325501334,0.026547379066449154627616,0.0309825751388777478889658,-0.00926327679007002413591465,-0.00537026447874617944566733,0.173440311041762912358521,0.984786044958238848678889,-0.00120939891485477568622287,-0.0281215148584144786214623,9.00917126477773244630498,-0.00804668995377358017839775,0.0355348843080918880277252,0.0508668587566037527780693,8.45738270347797360670938,0.64126583671377157536142,5.12037911396692013710208,1076.72300174646079540253,1093.67815642114260299422,1099.45942292498284587055,1080.56217116460993565852,17.5630465809173266222842,-32.4739978952327277283985,-325.081141619027334854763,92.5704123895665560439738,154.849433743495751514274
39.3550000000000039790393,-0.60336383647959912490677,1.39964183593862956378473,0.331703399885770577881772,0.0202953803225361106843394,0.0291099897770585036571589,0.0322733651404846638710566,-0.00925687696923387440262054,-0.00536227173478134692963248,0.173507468921220125990246,0.984774323290060316082872,-0.00655385018854118261977248,-0.0252509537030556202585885,9.00794220775634002507104,-0.00805824508872831149486338,0.036291839836674846808684,0.0488767931133051308778548,8.45733033971450431920402,0.641354006274941546017487,5.12051453404440870542658,1076.70607938802277203649,1093.72901051747885503573,1098.61648365991845821554,1080.84133204499198654958,-44.6553134611575686108154,90.5770397984716026940077,-339.47865981982346283985,144.147192522967912964305,154.847096051079233802739
39.3575000000000017053026,-0.760074311827084958537171,1.36238912409777790379906,0.246988562653305349092747,0.0190040618890749725411471,0.0316838490375679140975684,0.0338694511240771739535305,-0.00924295333621052983552602,-0.00535889381128029640422028,0.173574915121951528496069,0.984762591975948176070688,-0.0116360114500711209206685,-0.0227564263964582236265954,9.00689805831897594146085,-0.00808077928149009312719375,0.0370290610292790811630681,0.0468575526404244740996674,8.45727665644364634545127,0.641445813091756966706214,5.12064379965565574792663,1076.49972517915489333973,1094.13104162013519271568,1097.76202962588286027312,1081.28290712722514399502,-142.611057834567532154324,258.437280029928331259725,-366.827042830815855722904,231.302331308262466791348,154.844729873829550115261
39.3599999999999994315658,-0.945894290320208108724387,1.2899399255159509358748,0.0749533889382075491081281,0.0165059237558222507424865,0.0353358136907968162221394,0.0356930842356533856163381,-0.00922375303673372837209854,-0.00535649675267619706370281,0.173637740219382524786695,0.984751716738378024551537,-0.0164861704429964534002195,-0.0206049306051082486979098,9.00607828412691979735882,-0.00811439240461652756819522,0.0377412615180126448377607,0.0448128270269951833881805,8.4572209904506845390415,0.641540038988275496123492,5.12076618444389808360029,1075.99302409885058295913,1095.02119691762732145435,1096.78234844576604700706,1081.99784370153224699607,-231.090704540447404724546,387.868586532096571772854,-346.817955919464054659329,282.592253628346099958435,154.841859707721567929184
39.3625000000000042632564,-1.08701009811059212673001,1.18327286328495984157883,-0.111694684057674242794178,0.013651082771610931546058,0.0390303582076897415120698,0.0364173035228832486787098,-0.00920008004466972909018985,-0.00535280342412146337149892,0.173692971089395686856705,0.984742228953607301455975,-0.0211061411833454865005777,-0.0187267610040315612973671,9.00551757270731378923756,-0.00815864328106170356991189,0.0384250042221879126169704,0.0427479391098082583955176,8.45716288069306010299897,0.641635390870927024842274,5.12088085698149342306351,1075.34427165645206514455,1096.07038455279666777642,1096.02793984628465295827,1082.69586839536759725888,-302.522248525456063816819,467.034660249907858542429,-286.882078978386402923206,279.212310891937647738814,154.839443701456190183308
39.3650000000000019895197,-1.20383837481377198308508,1.00607399162812538584433,-0.309363202120847557985428,0.0105862371264872981435623,0.0429559480537838669911288,0.0356001786205453404909882,-0.00917313745368580381323032,-0.00534175125921524350525171,0.173737610369194800385984,0.984734681639848452583408,-0.0255665189851416521649163,-0.0170368216842922831633089,9.00524334696254413756833,-0.00821337170814012175468211,0.0390786901683627396764109,0.0406694899881168830946265,8.45710230266322859904449,0.641730486374603503740843,5.12098731061491196925317,1074.4804128562225287169,1097.35637021887805531151,1095.3479380508733811439,1083.39390525599264947232,-415.918322608027608566772,591.125879119309615816746,-281.972881710618821671233,279.603572302430279705732,154.837004095490698318827
39.3674999999999997157829,-1.31226775713449450577741,0.707439511695346356923153,-0.515384797735413568986473,0.00708838976732432783645077,0.0468002013569735822451356,0.0333648143944109965008948,-0.00914823556437824488007937,-0.00531562751013793001464425,0.173765988010541966302114,0.984730069628580007012886,-0.0299809253607391315576969,-0.0155121088918001165390947,9.00527364003438890449615,-0.00827903301208144509759634,0.0397021545396669256478006,0.0385852704099060167530766,8.45703964001835650776684,0.641824545680617308818228,5.12108510973546593447736,1073.26468004341381856648,1099.02601394839052773023,1094.61807543773284123745,1084.09388625687847707013,-460.806994517234500108316,607.348627542757981245813,-254.341934010430435364469,218.003417920243009575643,154.834050832939396968868
39.3699999999999974420462,-1.37504000113959290452215,0.401107666021131237243935,-0.637359329278160302578726,0.00434649123106091873208756,0.0487649701618529593516449,0.0311184945174495346253973,-0.00913349763363546437999752,-0.00526834486230143544255311,0.173776925932644293881779,0.984728559421689797481747,-0.0344414821130768072920958,-0.0141842926945525971138551,9.00561538712045717147703,-0.00835615664193472759690984,0.04029673545450029176207,0.0365037733867677252619366,8.45697592435808331856606,0.641918080094282639258552,5.12117358754500884288063,1072.17637788363845174899,1100.39311335658908319601,1094.07622838082238558854,1084.48392234559287317097,-432.636645563440310979786,510.93832630464260091685,-207.443600106610858802014,108.086666901080391767209,154.831569330595783640092
39.3725000000000022737368,-1.40327084561646664440104,0.0667202811583217647584121,-0.694274032886441960776835,0.0017572212564272871732074,0.0492899615564076562512774,0.0288997951802801716914004,-0.00913870390874145163695452,-0.00519668369664764030063653,0.173777055408541492020902,0.984728905321938796646464,-0.0389919382597325933637045,-0.0131278332656495355657,9.00626408522120058819382,-0.00844519492467832484650092,0.0408652476536088757330667,0.0344335915586381491326762,8.45691292578105269228672,0.642013510900184547480762,5.12125423348344188667625,1071.10149681559551027021,1101.58070557991504756501,1093.58085743719925631012,1084.63431959138415550115,-455.510844342865084399818,452.480009721644364617532,-218.620748596756158121934,18.4488610358945344103176,154.82906764329533189084
39.375,-1.37797934134553767826503,-0.32393445440311519067933,-0.687595253365654635047122,-0.00169855092430107410678142,0.0483406179838865163178596,0.0265502835242530550730056,-0.00916846428744916633335471,-0.00510071264293571798725813,0.173771272032983981059573,0.984730195744189518158862,-0.0436017468752521591968119,-0.0123444174960382208050547,9.00720391206386850058152,-0.00854721366969035667437993,0.041412192951909225502316,0.032382387575852530914311,8.45685198940752869134485,0.642111154978468157139559,5.12132717413325089239606,1069.89882366192296103691,1102.65551340519846235111,1092.9831246378380456008,1084.57616665077239304082,-424.163820540501717459847,322.867597739307598203595,-231.047866855698032395594,-45.2951297646407482488939,154.826043388257659216833
39.3774999999999977262632,-1.28524785974357080853281,-0.612636542675618955833272,-0.626221513472857371773728,-0.00514176340328691226094771,0.0463997487021007362639757,0.0249582609992628490225286,-0.009218165374142769236121,-0.0049855593825969745855331,0.17376341212138826652911,0.98473176017638908152918,-0.0481221262062265370262892,-0.0117004902609300354132671,9.00840925667838732238124,-0.00866347875376017630133507,0.0419438764645572656486472,0.0303561562348313093706587,8.4567943694704794665995,0.642209065648831178840794,5.12139063644968128841128,1068.98067771289493066433,1103.19504356861011729052,1092.42561810292181689874,1084.40784394256115774624,-356.78202069238915328242,136.897522048114296921995,-247.44508873837804685536,-65.4932745968045821882697,154.823505566512920950117
39.3800000000000025579538,-1.0898091735653232525749,-0.840968817283399339146399,-0.517519630360755766851355,-0.00879043001289660751174093,0.0436917973161464606723925,0.0235401389288234473562422,-0.00928032152655530219453883,-0.00485805956742804603137875,0.173758995546435757173498,0.984732646514273279869656,-0.0523653020413355138606981,-0.0110324295038427694359839,9.00984876178823945735985,-0.00879512226395713463122927,0.0424677852979290781920696,0.0283590407786634378373147,8.45674171452376377544624,0.642305012935494246129053,5.12144409344283779716989,1068.11491355846010264941,1103.34000101543938399118,1091.74589919414552241506,1084.24870027778820258391,-347.084407139622953764047,-4.32293984449422019622489,-295.691947412782326409797,-40.8314909723931407370401,154.820950850144953392373
39.3825000000000002842171,-0.7943428158924529247642,-1.0139644299794305926099,-0.377921956322415208973098,-0.0121909437781180501197964,0.0408311583931112095924298,0.0222407635721118233929072,-0.00934636508263541124219564,-0.0047248644546049375220198,0.173761319565551020094318,0.984732303620440729829966,-0.0561462027071279318191088,-0.0101745418724847741520634,9.0114892425986763413448,-0.00894304110369793618662282,0.042991899890106571868742,0.0263927183517959108860484,8.45669404797799550976833,0.642398943427063384703501,5.12148936624876505163684,1067.24525567719592800131,1103.17342886938763513172,1090.94715836585714896501,1084.20368648769908759277,-359.326805214513399278076,-131.32010822708372188572,-341.843013001600240841071,30.3137991838687526069407,154.818383393450915264111
39.3849999999999980104803,-0.375116180811430943720097,-1.12606284578355642089775,-0.213203916679731764194372,-0.0151810629144430910691943,0.0378945106466683986901067,0.0213710015369611983082621,-0.00940457790572476852453132,-0.00459750846576958884653896,0.17377306127273642322173,0.984730291660774637030329,-0.0591873814569127271179028,-0.00893935625170994008215075,9.01329930877835572289314,-0.00910686181348134213275891,0.0435240869077838307688033,0.0244558003056893208393419,8.45664959774336644215964,0.642492536420609439140605,5.1215304368025069692294,1066.31827953238916961709,1102.68340047430456252187,1090.03668412913907559414,1084.40026927370740850165,-426.096515869412826305052,-269.735819929245053572231,-405.367773116560783819295,156.219293903461334593885,154.815802407278710006722
39.3875000000000028421709,0.247807552695794575114974,-1.20735777401272814657318,-0.00591716463416825516619113,-0.0175422752951585117497935,0.0343073979762902880885633,0.0210464893537185768201958,-0.009440877208894277172746,-0.00449397523637902734233718,0.173796533428785121566662,0.984726234815172407621731,-0.0610957302338406837982632,-0.00713656315611091440764824,9.01525342255254180656721,-0.00928439835926423914780337,0.0440714634339785596428563,0.0225437807922446373232184,8.45660514558435139065296,0.642586527324949474682114,5.12157209689241099681567,1065.11477309784777389723,1101.82474976974071978475,1088.92031950027330822195,1084.98478295721679387498,-450.637245762206021026941,-340.566396974653287088586,-392.203731020917416572047,270.930576952921569500177,154.812692343935935923582
39.3900000000000005684342,0.825617021923754634826764,-1.2474310891408115775647,0.15938559926176917858065,-0.0176517105049430016172618,0.0315859564455674354799264,0.0213809780335540329521127,-0.00944624741703044799867595,-0.00443180176463014042359534,0.17383234735577743346191,0.984720055831946217139716,-0.0615109425430857906236248,-0.00468256223970531237910109,9.01733617369601070379304,-0.00947193828129074856525538,0.0446398064447057763004523,0.0206498969022309089571543,8.45655790184398981068625,0.642681338293184967191962,5.12161732651428902585167,1064.06509330357698672742,1100.98056848943042496103,1088.07566547403348522494,1085.75492215847270927043,-410.507287775963504827814,-339.062607542736316190712,-294.065971277535993522179,351.848948955877744992904,154.810092197427934479492
39.3924999999999982946974,1.38927785301939543671779,-1.2786577786352162355854,0.299905688581194707076349,-0.0151182919873703771468376,0.0292241307220530571742145,0.0222001445530195726241196,-0.00941156510531090256810316,-0.00442057912267819833052052,0.17387829380354102859485,0.984712217056067040665823,-0.0602252737909855923037483,-0.00148341552873769433329443,9.01954371491426165619032,-0.00966465924139018640881549,0.0452337780115060067442911,0.0187654674423553199935633,8.45650587095136252457905,0.642775818750803140666505,5.12166653141891181633127,1063.06223665896982311097,1100.12943673202858008153,1087.44998964388696549577,1086.7440277019945824577,-396.961388586602595296426,-349.691084497365693550819,-199.929867741536810399339,456.759228482217679356836,154.807486412406376530271
39.395000000000003126388,1.94695723132629749940747,-1.31992963627311699070788,0.424525751448858845726875,-0.00869335297335688782227603,0.0264870894952588323278952,0.0235271760003266001970434,-0.00933655300577167744646712,-0.00446028553709401382604272,0.173929934254396900694672,0.984703524333372826049526,-0.0572432624972198378365817,0.00241388957775699741770126,9.02188622085626512614454,-0.00985699262223262151483283,0.045856586488455378103346,0.0168818612970856214705595,8.45644868374261449162077,0.642868618162136140625762,5.12171839772446180205634,1062.08028636064295824326,1099.23211306694270206208,1087.07601613532528972428,1088.03871830088496608369,-296.724362500283916688204,-294.353488916098683603195,-62.803063186460960309887,468.525559270198243666528,154.804357022956111222811
39.3975000000000008526513,2.24652746520627788484603,-1.35736257890208089627038,0.483913764996055040246148,-0.000901251941634678157243277,0.0239167207220647888565868,0.0249490846244258580866049,-0.00923290429892487107821353,-0.00453772215715168066724194,0.173984326017835450040039,0.984694452926488161814689,-0.0528553129440388139159701,0.0067802494734119644892445,9.02438906242596239337672,-0.0100428810702890801420661,0.0465099913012949478519076,0.014991876751195209668821,8.45638626909052604219141,0.642959367940486248294008,5.12177022541540782896163,1061.57861484646764438367,1098.65766928744733377243,1087.13597432795450004051,1089.08665549834677221952,-109.943475745294506396021,-185.313447555777486286388,105.642708161809096623074,386.334781015408509574627,154.801750446809677441706
39.3999999999999985789145,2.33074949539509068685561,-1.38582178392551447210224,0.492636482676394260593611,0.00790196555413039819493193,0.0207962457784546111971835,0.0265872243603148192270247,-0.00911536870020829108340887,-0.00463184415459819663618557,0.174039040321404908651104,0.984685390616676925468198,-0.0475162157798012657616837,0.0113495242907284826783254,9.02709143330984176145648,-0.0102161721063425900424271,0.0471944471118090902450604,0.0130900852814802830942353,8.45631977375478349756577,0.643049176590804960618186,5.12181851184148140276875,1061.53056898191698564915,1098.30554582916465733433,1087.60422967613385480945,1089.9703922059602518857,94.1103502827873512615042,-104.15197859382844569609,294.349875573365750369703,329.032651811999073743209,154.799149477613781300533
39.4025000000000034106051,2.19634771064733680390191,-1.38757873323699243428564,0.447784873720233234095645,0.0173282087530840026023959,0.0163641891693997940104843,0.0283256291600488194215579,-0.00899950183980021030383245,-0.00472518133653328578636099,0.174090873343905050418812,0.984676839233552092522928,-0.0416353727648699351027162,0.0158263859505466536470308,9.0300444810551958596534,-0.0103709967429246926323705,0.0479089206374371107122201,0.0111735221502822865830007,8.4562503842610201587604,0.643140239301110971936737,5.12186097665935502476486,1062.04916659788182187185,1098.13690939447792516148,1088.60772370582208168344,1090.73181875740760915505,277.970628660790339381492,-25.7417017608400051642548,430.602976873713316763315,221.433178143593465847516,154.796040303252823377989
39.4050000000000011368684,1.93844640555393965541953,-1.3476496008232972112495,0.372189733665025945796856,0.0230431068280791406799324,0.0121711265755201306776323,0.0293825293041007941374776,-0.00889577995043588400092549,-0.00480402290968579177843356,0.174135277796120868654128,0.984669568445602605422096,-0.0355540137027793579083124,0.0199941726853073015179874,9.03330734890308129081404,-0.0105023155608921867770755,0.0486509784180654270002719,0.00924122598887576994497461,8.45617871322328795713474,0.643233838676648073118258,5.12189630125474959498888,1062.92042212522164845723,1098.17683732036039145896,1089.75724456050352273451,1091.07755809667878565961,413.257411589132289009285,41.9853319028261324774576,505.44999204885738208759,78.9335427433151721743343,154.793463676634587500303
39.4074999999999988631316,1.61555277797236263026548,-1.25861845174421649318219,0.269518921549205203724853,0.026214961799480802906448,0.00797627919693287210090027,0.0300279753987191776187782,-0.00880793680307990003996998,-0.00486384038690060131748805,0.174171249320330234766629,0.984663737726370724701042,-0.0294396162684193926639686,0.0237309952665729351206636,9.03694267219153246628593,-0.0106056767558422044422928,0.0494169721053924759779363,0.00729404949488851248040611,8.45610540538211097327803,0.643331193003560120047268,5.12192424700772619416966,1064.11545365582560407347,1098.34683605399186490104,1091.13497366606407013023,1091.12648647112382604973,504.094049594701971273025,80.8396483671954513283708,570.539336815617502907116,-22.8563850283418510400679,154.790907569934290677338
39.4100000000000036948222,1.30286123435175249518636,-1.1368995056051651726392,0.153650695381863405808431,0.0277507429257658339016857,0.00444380315516790160706995,0.0304053491420453146643066,-0.00873693973575082397098335,-0.00490526805563321413594657,0.174200832603269073484142,0.984658969505701198166037,-0.0233671610930688694596213,0.0269546812403583663231288,9.04101312955044278396599,-0.0106775554750750418381289,0.0502021909150861395110255,0.00533451470786175819399633,8.45603123329321348933263,0.643432476667647579304798,5.12194495138500816011629,1065.44089237319644780655,1098.58103556219657548354,1092.6099412445830694196,1090.9632761715370179445,525.730606434676019489416,102.204720605952857681586,587.76978924090087730292,-103.705324489639380658446,154.788373000038632198994
39.4125000000000014210855,1.05735621752777442239335,-0.998614436484158596307736,0.031178414497023000662157,0.0283592525835925333976828,0.00206690098412949142814288,0.03054964690202813595854,-0.00868205402382663839200294,-0.00493023978196843563892582,0.174225257159942165108291,0.98465504198736220065058,-0.0173895096566659135284283,0.0296185995109394528679303,9.04557788301769249983408,-0.0107158224803227362931235,0.0510010778432692588046926,0.00336639190038825423384461,8.45595608737580839431303,0.643536975079591289095049,5.12195848380279095124479,1066.74410668800032908621,1098.85785965702189059812,1094.07382261227007802518,1090.60795984867536390084,526.46874366871679740143,129.426864618407705620484,607.225612587451223589596,-182.870422867320371551614,154.785870269328682979904
39.4149999999999991473487,0.870596965394966559870227,-0.846970411901363240403384,-0.113318035690308877017074,0.0292628520757351739955965,0.000337435952890838308012439,0.0305098693894355829647758,-0.00863815692697913854736225,-0.00494207045670673125736805,0.1742447435649278342229,0.984651944464474904172846,-0.0115242799797770079095471,0.0317612302878657326576928,9.05068844745147771391203,-0.0107197472992723429746631,0.0518074965681173532638937,0.00139406514798854231501624,8.45587894607937329283232,0.64364456583213014440048,5.12196416277467925226574,1068.07323609153763754875,1099.22816988528802539804,1095.64606930751756408426,1090.04892405720124770596,424.741377657538635048695,144.26891305071771398616,523.137873473575155003346,-214.740702957150659813124,154.782911827999441811698
39.4175000000000039790393,0.800854294021945634085569,-0.75054335697993013187812,-0.224292528009430336410901,0.0304461111833350533961706,-0.000559653480713804825190383,0.0302809492514228804915799,-0.00860313926167795110788727,-0.00493989905524358768190707,0.174261775215051123444354,0.98464926040680589292009,-0.00587158062424936177947643,0.03339276339604865806443,9.05638786355217995094335,-0.0106897060013069183231904,0.0526150050949720712867297,-0.000577368440766551924495098,8.45580035196589818724533,0.643756550979560970837667,5.12196289164499773960415,1068.8678135762891088234,1099.57920422227584822394,1096.68951197963929189427,1089.53425633388906135224,237.059891910636594047901,153.020433895257099266018,342.673787518158178500016,-202.363640921872644184987,154.78048963831625428611
39.4200000000000017053026,0.79608247212016303162585,-0.691854963908820841389513,-0.314762373922601923492692,0.0320330829719285559153974,-0.00142360790596295213802924,0.0297614817507573167776336,-0.00857556505368095231545134,-0.00492099982811241339758501,0.174278610013986673399344,0.984646616853149803105794,-0.000563356873141851455244478,0.0345297473485253053615551,9.06270790250451696579148,-0.0106273922956042314591496,0.0534171884974033658877168,-0.00254257391726791029396004,8.45572089046364716580229,0.643873917704615106316623,5.12195621693915992267421,1069.25853555109142689616,1099.99327205476470226131,1097.35943824510923150228,1089.0371058525913667836,80.6397687101531488451656,199.307321739205974608922,200.585906593869907510452,-199.575749425184369556519,154.778118560460768549092
39.4224999999999994315658,0.825766174347421610946185,-0.653347731931618325162958,-0.384138001235279524792077,0.0347718653673631528100429,-0.00295036752468300945972945,0.0286631363488274344686335,-0.00855169226214624531023922,-0.00488946420187696267900535,0.174295394039383294559897,0.984643998406187437311132,0.00440314593625543149180146,0.0352203893769471032548779,9.06966576790608591807086,-0.010536007903735034735293,0.054208090020357084515279,-0.00449613048793910154155018,8.45564105196887183524268,0.643997800012187426865751,5.12194425091186733567383,1069.27101241983950785652,1100.57574083097097172868,1097.69244151260772923706,1088.53637758676404700964,-54.2688435901431844854415,227.362073662763663151054,49.3663749758272700773887,-157.475431119847968375325,154.775338712422467324359
39.4250000000000042632564,0.851445607280770233593614,-0.631105173731892343802485,-0.397561264489755872286736,0.0376905452741094007529377,-0.00485024978992684534240265,0.0272886874297822851209716,-0.00852910932723376959130324,-0.00484991986753749351052312,0.174314236647233306021221,0.984641028148758423732545,0.00904627605089691755324566,0.0354977293696283613400055,9.07726432928128268429191,-0.0104196744077533539479807,0.0549829072249466976884946,-0.00643249715049659578219865,8.45556154075223531663141,0.644128133848286932305882,5.12192661320569886385101,1068.98719133314057216921,1101.13008242307910222735,1097.60627011998849411611,1088.24972869699172406399,-137.310704996955564638483,233.009210546669180530444,-89.2956050320660921215676,-78.3520515451127010919663,154.773080747791709654848
39.4275000000000019895197,0.854733092440412178802944,-0.599586826306204523362453,-0.355261147710036473412742,0.0401773439715438634989297,-0.00726967545590876187966423,0.0255411823604868998272011,-0.00850436685668785365133093,-0.00480550227376071691087756,0.174336406289826884030703,0.984637496093691666487757,0.0133721606721924346494745,0.0354264539771772107856762,9.08549140375501629307564,-0.0102834173509228458953668,0.0557385418493768769465646,-0.00834642062921944934139606,8.45548319790395197514954,0.64426356799320638746309,5.12190317418398066706686,1068.584458894854378741,1101.74078688370491363457,1097.24596348744717033696,1088.14461732903828306007,-149.803904800137217989686,277.457596022738869123714,-182.923668562519139868527,0.0100208454114272364765537,154.770887663110386256449
39.4299999999999997157829,0.819965465763805578802703,-0.542336640536833836101493,-0.242493769348666426965977,0.0422420057406918958431419,-0.00988736256855621969963366,0.0235524272307297659334591,-0.00847577615910827600331778,-0.00475797960957018931799078,0.174360673137086447104238,0.984633627762578678144223,0.0173687023822954589302725,0.0350501810565727184298979,9.09432071307773171042754,-0.0101329626600346004577924,0.0564740983595780829396027,-0.0102327718534622504054088,8.45540701474631006817617,0.6444022141384706525713,5.12187333993842131008023,1068.23817180914056734764,1102.51737040319153493328,1096.69165177717673032021,1088.2497788012187811546,-65.7681147826822467550301,290.33318999298927565178,-189.015400196230075380299,74.5710832127993654694365,154.768334766478886876939
39.4324999999999974420462,0.750390166733764352180458,-0.484715700205350763507539,-0.111223630169184684035599,0.04397657611191974763587,-0.0111111771836405609503728,0.0225132246436678083723049,-0.00844552113386450725718291,-0.00470933125842873476912809,0.174387609188476733201867,0.984629297154965499316859,0.0210293498578064674831012,0.0343453066793859701499869,9.10371303067636361561199,-0.00997384414312098462052081,0.0571912713981778259020317,-0.0120864437268358628635445,8.45533459844390655746338,0.644540299385155446287854,5.12183690364484256463129,1068.25561832094126657466,1103.19245283366853982443,1096.30088648646687943256,1088.51747274510194074537,102.784594905499204742227,276.448719288732263521524,-100.576534818668207549308,134.18062986745511011577,154.766275182777036434345
39.4350000000000022737368,0.624970938915136331459621,-0.431233328827434203578406,0.028763514489252670069952,0.0461043064633443744337882,-0.0114409833126215450260776,0.0224473937750602203777817,-0.00841319076262283735423431,-0.00466369468922483380174393,0.174418354530008645753014,0.984624291319151745405236,0.0244078986202201919653021,0.0333281291980489086101969,9.11361561172437539823932,-0.00981118153442404189457093,0.0578939551690729123367696,-0.0139032397167051045144825,8.45526719738761123323911,0.644673383807568667336341,5.12179377353348286305845,1068.75209478366832627216,1103.89961399963590338302,1096.18876910308313199494,1088.92068195055639989732,286.040338154715868768108,290.130183734742615797586,25.4257337882660969796689,171.4620070398755729002,154.764287901106115441507
39.4375,0.444795499390303328279828,-0.387760759638634100454624,0.149471349833303152054853,0.048245397677464718633189,-0.0116393264406811618866255,0.0231659598853069248480807,-0.00837067471019543873911317,-0.00463287541971933811840723,0.174452479417286560048339,0.984618702470453355246605,0.0277323133340317551365217,0.0321275812865100401927165,9.12396180055204020220572,-0.00964977078216638743668465,0.0585871634727923168428632,-0.0156805844689999578089878,8.45520412906240714789874,0.644799889071081433478128,5.1217433526065860860399,1069.68582001171557749331,1104.64310375234299499425,1096.42801515540827494988,1089.37478278030175715685,465.711347827769429841283,309.04326728246729771854,194.145872697248847771334,175.98984018398004991468,154.762361696887381867782
39.4399999999999977262632,0.198475094503874738283145,-0.352892444511362479708794,0.218921486080126070916663,0.0501113288144889035269358,-0.0120327204604948265198594,0.0244995939265502324366786,-0.00831231918820325189900533,-0.00462869051980378809485472,0.174490494434294651782125,0.984612438232253195380395,0.031235182829236485257951,0.0308261042376157812228143,9.13467672576254052785316,-0.00949330803708411594121763,0.059276008798483853512451,-0.017417109798818147109456,8.45514361860783481006365,0.644921536899297542788645,5.12168756918643275355407,1071.0806515228050557198,1105.44483033604683441808,1097.15949846656849331339,1089.80063115147549979156,677.189554264913681436155,369.151781766270119078399,429.121830681886990532803,159.178437828050363123111,154.760510536725632846355
39.4425000000000025579538,-0.154348774175024572308246,-0.304692537146177555573701,0.220958306742121746157892,0.051389348817871043084704,-0.0131238006635410013600573,0.0262289364765812341162565,-0.00823825846736592724839365,-0.00465732450909410889555717,0.174533847260258861977533,0.984605220654685919789983,0.0350395514912017758124563,0.0294171692188665151457272,9.14568138553228315856813,-0.00934399111121702284632473,0.0599646326271304416777319,-0.0191127268351723930694952,8.45508296198232045526311,0.645042252010423977637288,5.12163062510603595001157,1073.07176778304187791946,1106.48886266117528975883,1098.57362430881880754896,1090.17067496944241611345,739.046716467905071112909,397.164176920001978032815,586.740779486144674592651,101.829132737423350363315,154.758377878473197597486
39.4450000000000002842171,-0.467028831935075994241657,-0.244752785648028908793705,0.151356605445422093270125,0.0512361637269238348602052,-0.014647514343039491277465,0.0275000068831027129345745,-0.00815644040658882255034889,-0.00470981555837479953091629,0.174581992876469388464855,0.984597127308719399785275,0.0389769129197219538207619,0.0277997255052049724310947,9.15689730034565840810501,-0.00920237514268885947732457,0.0606555123610847540804869,-0.0207685539150491357829331,8.45502034380393041601565,0.645165213749400834331027,5.12157506498950176876406,1074.77588510514647168748,1107.43065122064786010014,1100.09320236400071735261,1090.30977681516287702834,635.488336441117553476943,389.804166817830093805242,639.363257342383235481975,18.5298706696981128061452,154.756676184784680572193
39.4474999999999980104803,-0.751516914662147650361135,-0.155269647452959846933851,0.0178209507151693112569912,0.0495786251719723888853331,-0.0161990268206060779310196,0.028224081522745452649259,-0.00807881472552669614717313,-0.00476629727733007910878138,0.174632248186926686273068,0.984588626848233783306341,0.0426718501651586201717237,0.0258342459180216921232898,9.16824736068021017842966,-0.00906752089937093788685196,0.0613492517068283463310685,-0.022386512022497549734279,8.45495521750735079535843,0.645292130496372906556246,5.121521114466820456812,1076.24920946524457576743,1108.43788349526266756584,1101.77044059552781618549,1090.26332432279082240711,542.257092774975717475172,452.463071698498879413819,720.684098574242511858756,-53.6983906915518645064367,154.755054929750002656874
39.4500000000000028421709,-1.00136270711725883231225,-0.0235517860829582183213038,-0.190562294715114877163842,0.0457222177273766822169776,-0.0171928682964651961817548,0.0281716853757321659956769,-0.00800944722148229718006185,-0.00481799467375864081536418,0.174679085847186915669838,0.984580696776806929548798,0.0459740295010046817747451,0.0234886243326036942002943,9.17965062954101895797976,-0.00893829723524267386047804,0.0620444847020463138842494,-0.0239690212646446638988795,8.45488737619956332025595,0.645424105520875368569023,5.12146654832202763429905,1077.48717056902273725427,1109.69296657914151182922,1103.69662285687377334398,1090.0412848617049803579,342.945066331055443242803,461.574350715673404010886,654.677735024489948045812,-98.0225365703926030391813,154.753205017933396447916
39.4525000000000005684342,-1.09936561887456130115481,0.0874290783571950030905739,-0.380761889803840236634613,0.0414192122358127204351241,-0.0169954439791456142494486,0.0273529102627856450513644,-0.00794995554551832309120307,-0.00486229754027272566274664,0.174719834899814546735897,0.984573800570708534962705,0.0488532836972785655671458,0.0207567986364648182640025,9.1910254116843663751979,-0.00881278004536076992048166,0.0627386145557320695775871,-0.0255179184812748850730291,8.45481647340269759638431,0.64556051697427419000519,5.12140837569989404443049,1077.96393479690073036181,1110.7457552488422152237,1105.04382927065194053284,1089.77321163993860864139,71.2443195450043731398182,413.406593951516185825312,452.684613016029004484153,-110.86163236819707833547,154.75174513590559399745
39.4549999999999982946974,-1.06698164937314832201309,0.172991618490334064794922,-0.560150121944224865799811,0.0370501341737027173328656,-0.0157759224756928197186401,0.0259660813114403546397746,-0.00789959411035777263332402,-0.00489709424770260522835619,0.174752448163030010830354,0.984568312330233674778412,0.0512951121617365446425651,0.0176772509433944791101823,9.20229112161134032987775,-0.00868855202406584002650103,0.0634282617426634859336687,-0.0270343844705061633892917,8.45474182369958171534563,0.645700290281182809337679,5.12134441072074775291867,1077.84339216674743511248,1111.75999954889721266227,1105.96004592195185978198,1089.48697669986449909629,-169.383090477462900480532,426.059157511245132354816,289.016163303665450712288,-117.18280873809278830322,154.750372629338073693361
39.457500000000003126388,-0.896404153601531139550218,0.22621739527079803844245,-0.734677567476264670176533,0.0327785676014910667963598,-0.0137266292359505340248127,0.0240044985260983653740929,-0.00786000042110315995380621,-0.00492071270686123950904856,0.174776991375699464192905,0.984564212881186451298277,0.0532839422420816055669945,0.014248018421297165003736,9.21336999880989360178773,-0.00856279647432246771021624,0.0641100239324108173155636,-0.0285184680845349189381999,8.4546637336174992327642,0.645843558452666277602816,5.12127368340681865532815,1077.11701934451298257045,1112.87605103639953085803,1106.48891008717100703507,1089.18729759624784492189,-334.176928309136201278307,384.667696763002481930016,105.74428380431574225895,-95.9790342110373018158498,154.748828979594748034287
39.4600000000000008526513,-0.679350835508828687636651,0.229745199305090658237205,-0.827862851547885192360354,0.030521540986442774467946,-0.0123187895484860813338779,0.0220813275322462344851804,-0.00783083179257901100533967,-0.00493393198131598584299518,0.174796388531647972630623,0.984560981412313518390533,0.054853386744122101248422,0.0104995803988692099073532,9.22418621710891351028749,-0.00843272591816083237625801,0.0647807238896180997977936,-0.0299698785897208469508612,8.45458355423797769390148,0.645989665261748169378109,5.12119648329707821687862,1076.17250752520089918107,1113.6833380327132090315,1106.4887673409737089969,1089.0070815288090670947,-405.214946510436845983349,289.634897911618850230298,-65.5159783260983346053763,-52.7012943896376810926085,154.747629364125288020659
39.4624999999999985789145,-0.439007254237563038223868,0.208910742261301046740485,-0.846231111400870927852225,0.0296862273935948432768139,-0.0118040792564677900211567,0.0197523000667536863250717,-0.00780926204560720635394766,-0.0049378272902192424029244,0.174812086497728863543344,0.984558379269778849440797,0.05604740229278698526727,0.00651205598460384560421943,9.23466693159251938993748,-0.00829634231100145544401947,0.0654376014534324285110145,-0.0313885674207511483624344,8.4545018586059708098901,0.646137263120036386965239,5.12111356497172653945427,1075.09094461196264091996,1114.32422552595630804717,1106.16133019554081329261,1088.92379112429989618249,-422.535969263537765527872,224.00563270350539823994,-157.390431045552276145827,-14.315253356964555919717,154.746519087091456867711
39.4650000000000034106051,-0.219845163523030295849026,0.187295158355838792241244,-0.789470330328245317730307,0.0297998734602000214799489,-0.0119986575250571742001782,0.0171091853411350601488206,-0.00778781767056067712740042,-0.00493572976382070875006614,0.174824190948936669665059,0.984556431207004756345214,0.0569634614053283194756716,0.00244822232781603810192195,9.24474229701334415665315,-0.0081528073301449337229041,0.066078335043894903533257,-0.0327753118220125705395418,8.45441935309196423986577,0.646285412639018508329514,5.1210259683374861339189,1074.05982767888212947582,1114.80336619623130900436,1105.70181518574554502266,1088.9355052620242076955,-366.387683273791424198862,148.485607231410966733165,-180.152135362958375708331,31.7988448815705062600045,154.745481268693055199037
39.4675000000000011368684,-0.0646058636069253844347315,0.183204260726931522640371,-0.63404397694034519972206,0.0307618136861434569861995,-0.0125552890553900196868309,0.0141981189481348892000856,-0.00776077741389085123263625,-0.00493007361728389510019399,0.174835583206244760123838,0.984554659343581883845786,0.0576766377570656907369795,-0.00155394438606505647104683,9.25434850088452520822102,-0.00800179956741205525294625,0.0667014274569203285958352,-0.0341312910046986731082974,8.4543373398587249312186,0.646433853170161554224649,5.12093523337728040445427,1073.2590061955927467352,1115.06665356211374273698,1105.26056951872556055605,1089.08278534870783005317,-269.477255170358603209024,64.2640552786490530934316,-152.145011106269663514468,101.425222161380062857461,154.744527538808256394987
39.4699999999999988631316,0.0202361574858943848997939,0.205804280689521390534935,-0.342233535412934608554991,0.0325152063418609332812181,-0.0126822060996576134461744,0.0110082447592801235120019,-0.00772683554243233476632735,-0.0049243498753450366464679,0.174848290106814074906794,0.984552696519346848269549,0.0582660354554027093421098,-0.00543649644985098878802177,9.26342881185939326371681,-0.00784412395717982123544143,0.0673062238927636669050258,-0.0354577200402749342922348,8.45425703228981006986942,0.646582994407995936825273,5.12084230171646304086153,1072.71244140303156200389,1115.1246864726242620236,1104.9410901302148886316,1089.4426313728306467965,-122.726924371619105613718,-18.6807112027413424470978,-65.2200478382958976908412,164.232540058453764686419,154.743474355218268101453
39.4725000000000036948222,0.00589309329288358486192978,0.241926809049178626054299,-0.0367830246644704830782935,0.0340935729023012154548233,-0.0121262117004817624593693,0.00944546017844337566782276,-0.00768400346991819638287069,-0.00492462314623757623638367,0.174865433717211915531919,0.984549973260959165877182,0.0588603749269914211517118,-0.00913510169877246314129593,9.27193324351402203831185,-0.00768151070944764549630612,0.0678924458523043200530722,-0.0367563445235965027824143,8.45417901044062070070595,0.6467334772464223835442,5.12074692258140284906176,1072.64537157373433728935,1114.97325000609998824075,1104.93446927953391423216,1089.90394804900051894947,47.9973551512312042177655,-91.7948028506528856951263,57.4077932820434497784845,215.722611250274582062048,154.742667256693010813251
39.4750000000000014210855,-0.0719793828941684143973845,0.284828377339673532997466,0.281661233454599035930244,0.0350394828019268550489684,-0.0110805602746638278549574,0.00988259854407237854634349,-0.00763118457482289246768259,-0.00493477628414547894036835,0.174889852104073845184828,0.984545974811368185264371,0.0595463762425445519710365,-0.0125931282852945747308127,9.27982101779298140797891,-0.00751617887702793474602458,0.068460042282404987012967,-0.0380292905829354155322619,8.45410327675933004343278,0.646886034213074334608962,5.12064843662171487181922,1072.95242817878784080676,1114.66571245837076276075,1105.22812909662525271415,1090.5212444290825715143,198.435048748113729288889,-150.808936996100612759619,192.101089841837250560275,298.835246646057214547909,154.741925508955517898357
39.4774999999999991473487,-0.183407905872102150457437,0.335579829653109118492438,0.609068532512593296956993,0.0345866878522081908076125,-0.010098009821396001367555,0.0125569722743207150272848,-0.00756898812935914277327809,-0.00495612697759182513346232,0.174922310029299699074556,0.984540554769749443053684,0.060358781812665851518318,-0.0157760166547553926097436,9.28706178260393855339316,-0.00735066454840125824143904,0.0690091328460195468919025,-0.0392788989568688268194663,8.45402960422217120139976,0.64704101813476067039943,5.12054613997138297065703,1073.63754681747400354652,1114.2192053211201709928,1105.89497472874222694372,1091.39812428222944618028,281.104599376150758871518,-157.373814164713138552543,287.006597987818679484917,334.623340590689394957735,154.741101566065651695681
39.4800000000000039790393,-0.244172354464210566993287,0.37452613217034969039787,0.794488857292551919897505,0.032903049885999895163291,-0.00986587715012572988304562,0.0157030164653918120898357,-0.00749992824838338189435971,-0.00498647154498729327370965,0.174961789879868101493798,0.984533886858037665668064,0.0612622179964597279866467,-0.0186730181083037821698767,9.29363673559113223632266,-0.00718731304919622161070381,0.0695400236068902943831205,-0.0405077562831221704708895,8.45395749820032271770742,0.647198292138211117574542,5.1204403058037870621888,1074.35795117566931367037,1113.87884338754679447447,1106.66316208656508024433,1092.19436113203687455098,291.374117660994784273498,-106.209106624455898781889,337.520299180923871062987,319.465630714894643915613,154.740464231809369266557
39.4825000000000017053026,-0.226100395719124463989047,0.402454832592224420739768,0.861646061327286938436032,0.0306175106726944354362807,-0.00955555146951088223150617,0.0189298477477058794959941,-0.00742860197104863034800459,-0.00501990545052904708206443,0.17500767988461246593701,0.984526075594663319101585,0.0621474829232103731513348,-0.0213014617967966224387766,9.29953941892407343061677,-0.00702759673701916932203604,0.0700533048846023187472554,-0.0417187363537206354346942,8.45388632339298773388236,0.647357751342719445197815,5.12033153275649421942717,1075.09441740577972268511,1113.68815978799761978735,1107.58257622464770975057,1092.99545243580473652401,300.692647399501481686457,-29.9422556841636300362097,424.3806013323359138667,341.262254427593916261685,154.739872606246109398853
39.4849999999999994315658,-0.0908797774468909497214142,0.402011055868484235009674,0.802296071478229122497794,0.028345209531778766537391,-0.00803373366661844050262697,0.0225226557938908340805728,-0.00735730928135310859039553,-0.00505113148391126819819474,0.175058595540409589474962,0.984517378415320387752274,0.0629237163765210549826179,-0.0236414381894939074069129,9.3047745324359318885854,-0.00687243741045198350270162,0.0705496093627800552328111,-0.0429154413033488377204883,8.45381525054376403716105,0.647519598013295838434544,5.12022055831255951119374,1075.86141441266545371036,1113.72913210912611248204,1108.78506509322482997959,1093.90067240417329230695,246.875051495918455657375,64.4042876682886031858288,448.241575254767553815327,316.958405946226491778361,154.739211112191043184794
39.4875000000000042632564,0.110103102183327861141038,0.355751969257977529448311,0.649530658064861321498995,0.0273800972910653896141842,-0.00595613421937467909378361,0.0251163035667232581449326,-0.00728892605976053358646238,-0.00507286599136656975173043,0.175112051168249349686334,0.98450825622214366283913,0.063460846143227556126476,-0.0256809470771902775831919,9.30935928006501534071049,-0.00672186349682737504379615,0.0710298966131141795710136,-0.044101840308424185288505,8.45374369998066299558559,0.647683200956861937491738,5.12010851559017687861797,1076.32879266325994649378,1114.01018122633922757814,1109.82378410092269405141,1094.58024446553667985427,138.647643365331532550044,156.14321068729819330656,414.148613102740512204036,253.683495558795868873858,154.738698327748380734192
39.4900000000000019895197,0.374721164897947323080274,0.253182666123510147215825,0.420565983981179725148536,0.0276548210608172674584981,-0.00406422098083208081786832,0.0269171594856486284808028,-0.0072295797031917260686007,-0.00507866689472862269799647,0.17516165356512997108851,0.984499836925167848278306,0.0636312118174179319751715,-0.0274747412714266281419384,9.3133229268864212713197,-0.00657558479207713975772664,0.0714958139544075443883031,-0.0452815845673684574945739,8.45367107773887660471246,0.647847888310763120323088,5.119995379772832144738,1076.55465262949246607604,1114.5098481625630029157,1110.85580815873959181772,1095.16908988196792051895,44.3358824355476244249985,222.932038929659881887346,405.598884773422128091624,220.431941830538960402919,154.73822469571692295176
39.4924999999999997157829,0.662660659659241146890452,0.112004627536440984347799,0.160425787648336121149484,0.0290048598352637861108594,-0.00291638522354787993115521,0.0277045477016636260136906,-0.00718292396048202282099471,-0.00506772639821981979446619,0.175202566475826188030496,0.984492960244281123394217,0.0634168446103589300566483,-0.0290572598063087994546549,9.31670421091065037444423,-0.00643285583343841498027427,0.0719494254916059339244327,-0.0464583482664265787209779,8.45359675766380469497108,0.648012845823533800704297,5.11987989064213611101195,1076.5504720754374829994,1115.1248414209865131852,1111.85177852478796012292,1095.68240417468837222259,-59.2486957121393515990349,253.342552492770977323744,381.771735574676995383925,188.189234042318446427089,154.737784096910672815284
39.4949999999999974420462,0.941832758235785161282649,-0.0519399074766156154669972,-0.0942515396829655127675096,0.0315320987214380496488353,-0.00288403744954606822484267,0.0270299199858622767045357,-0.00714952165000732123290028,-0.00504273285934035784411344,0.175238437083558906692815,0.984486958305556214554599,0.0628734362352080522473585,-0.0304266879267908879613813,9.31955089627481036984591,-0.00629153962789141384809311,0.0723931843904526833854973,-0.0476358200246383978182507,8.45352115838357853760954,0.648178173662413703581819,5.11976221422858568388392,1076.25840915093203875585,1115.77656092502570572833,1112.76466683661124079663,1096.11003605217865697341,-189.68362057470886838928,269.992412921235995781899,371.475413224962778713234,171.632129268121815357517,154.737385380558379210925
39.4975000000000022737368,1.22699195340527045239298,-0.238690074813918851059924,-0.345475491091300379586926,0.0357797983911976452686687,-0.00393566751326474527361565,0.0249815575912524408253024,-0.00712670626427143807934961,-0.00500680864053476126079856,0.175270253755202748413566,0.98448165764130846078217,0.0620714729076199678292625,-0.0315308913769258153392272,9.32191930907131727224169,-0.00614970607845232667548752,0.0728296493120012128352769,-0.0488177148404165123229959,8.45344439836113359376668,0.648343634265212465095374,5.11964324287162053650491,1075.60205397256345349888,1116.47480348559338381165,1113.70915559091372415423,1096.54056482102942027268,-281.574779978829269566631,228.642755313395696248335,313.681354028334283157164,148.824854443379336998987,154.736959257915145826701
39.5,1.40500005299305574801849,-0.363434616851339598042614,-0.487954743566097359774858,0.0400156029847859376347152,-0.00534200267072880343593999,0.022986042897722134409344,-0.00710569533034477972266441,-0.00496730667247690087923173,0.175296675406185542556159,0.984477321590966680808776,0.0611753546083640131758585,-0.0322274595357135290596418,9.32387140207786657697397,-0.00600626083873887807451641,0.0732611666202547251458554,-0.0500078626183314348119247,8.45336671503458880749804,0.648508938689721925463516,5.11952349344969892541712,1074.8505352510371722019,1116.91977470159326912835,1114.33307360675371455727,1096.8541603243959343672,-324.123029611586503051512,142.001830305836847401224,209.370273339399659562332,124.760740024771408229753,154.736650838811073072065
