t,ang acc x,ang acc y,ang acc z,ang vel x,ang vel y,ang vel z,quat x,quat y,quat z,quat w,acc x,acc y,acc z,vel x,vel y,vel z,pos x,pos y,pos z,mot 1,mot 2,mot 3,mot 4,dmot 1,dmot 2,dmot 3,dmot 4,vbat
51.7150000000000034106051,-1.16693331951966916548713,-0.877123038822511080780941,-0.739649852692991216507323,-0.0221042823768798600558849,0.0091969919687538443514585,-0.0241789962155445174729618,-0.00300388882097838479795504,0.00454790891233540755383968,0.857205254905569424828116,0.514945655407241797973938,-0.0351533941510594472035223,-0.0104682704147031069297213,9.82137974080438169721674,-0.00250809584544820635132467,-0.00512185892441336526603735,-0.00712665196664343750937443,7.22810126019080101400505,-3.37015570233820360712684,4.52171750211158318677462,1096.85037276867456057516,1172.54251974981070816284,1159.87229555460635310737,1098.52308225093770488456,-131.594948785756031384153,-1258.8704959548449551221,353.652746856597389069066,85.3226798791201872518286,153.990447965301115118564
51.7175000000000011368684,-0.786825608661155917467056,-0.95930081812348688696801,-0.532006557207128638609106,-0.0262495652571552336163041,0.00749025855705060666922535,-0.0261493399376759132202164,-0.00301378687194917135525052,0.00450678292014103105272982,0.857170238282988439237897,0.515004032727036209493576,-0.0348775995786913817209296,-0.0115923421426035455628067,9.82461118269856648055338,-0.00257499867700926483859991,-0.00513102740386731093202854,-0.00709733631925487176705936,7.22810880924807186431735,-3.37015223390701068595376,4.52170002958574102081002,1096.57609301394109024841,1169.7203603931602629018,1160.43286076403001061408,1098.97172922946219841833,-90.083942120227291638912,-1049.78390219348489154072,130.083694882459980135536,279.983510362289962358773,153.992462631440929499149
51.7199999999999988631316,-0.302217589950259490905182,-1.06712577006373887655855,-0.305364827267337268779102,-0.028412870665818247550849,0.00663870203490578118799004,-0.0276847667008982868674938,-0.00300765350813073269187203,0.00445514569672186312720985,0.857140284034572763616211,0.515053937655876592494053,-0.0337566634204428533960751,-0.012566126226377899444131,9.82792562546257997269095,-0.0026434208939923138290129,-0.00514991267254623092536336,-0.00705654801992607223770637,7.22811998993378246325392,-3.37015041214739152763968,4.5216825108880787098542,1096.39995305807383374486,1167.29360023884805741545,1160.52271402901806141017,1099.92299980274788140377,-41.4186355938242769525459,-865.962623046710064045328,-26.9900363321401677296763,450.639419210844152985374,153.994415236566624116676
51.7225000000000036948222,0.215487322547982224074659,-1.19990986573864399922229,-0.0775843322058642065330858,-0.028660221009567415917374,0.00578247960980213943082973,-0.0283711563252406068214029,-0.00299792463659794353181276,0.00440321463155267638772683,0.857112402708674836482317,0.515100363134635030881725,-0.0324714902904333496680422,-0.0134701345467108449249771,9.83125365167420284251421,-0.002711408098843902034214,-0.00517054373869087462861627,-0.00701335274777191691047973,7.22813204365261618988825,-3.37014909854743915929021,4.52166507561645314439147,1096.36899983597186292172,1165.39054727792449739354,1160.29791058236924072844,1101.22492632551757196779,38.6551789992865977296788,-605.047742880069222337625,-136.375564823832320371366,572.527164976852873223834,153.996316183040590885867
51.7250000000000014210855,0.700954147992572940140121,-1.34163382244105156004821,0.128380046772125194776137,-0.026476925825476702730521,0.00359303137435295748963737,-0.027674945594219940020464,-0.00296945967575724164427831,0.00436730802296402421253108,0.857103299224590164939741,0.515115221998757033539107,-0.0305523634956842427001789,-0.0137000528848349178989707,9.8346120378882027068812,-0.00277064922232217762318451,-0.00519633253121782896083447,-0.00695909796824732695963434,7.22814914470062319651333,-3.37015161415433883718151,4.52164887289969019690261,1096.59322895307036560553,1164.26836152444616345747,1159.84083620489855093183,1102.78563562763361005636,171.496311301481455302564,-301.418933691731069757225,-217.373668796487777399307,692.151964571387111391232,153.998154980452937934388
51.7274999999999991473487,1.1639550632177222411201,-1.46952947251643051274073,0.325393989429209662400666,-0.0217333243291106398276114,-0.00123377728294816720391869,-0.0256574425395070249145135,-0.00294560695015059440665661,0.00433937479641981725675404,0.857098457956350423536662,0.515122837470409100646407,-0.0286730101798577940996893,-0.0137788038122340986135761,9.83796074126755470956596,-0.00282454760515514968419182,-0.00522195258074806527986977,-0.00690196829669435449328141,7.22816763761635527885119,-3.37015560188486373860428,4.52163384387538513919935,1097.22648139247849030653,1163.8834526094672128238,1159.2110422383877903485,1104.68568614837136010465,294.677423802281055031926,8.24328914531666967491219,-225.643179801020835384406,661.333278511281605460681,154.000290372919721448852
51.7300000000000039790393,1.40969924424103010274223,-1.50137714971721147882988,0.442078603547636561632572,-0.0169340283311300680846312,-0.00644828918327302897522957,-0.0237631942603202389596717,-0.00293501969287336249986309,0.00433437419183038859238355,0.85710587544908789503495,0.515109619877715640967608,-0.0269093974231787574913355,-0.0134225508487847006167115,9.84128220197789005396771,-0.00286310636552544349117677,-0.00524706664820733924975427,-0.00683659006124588946445852,7.22819013374881169653463,-3.37016382365990985192639,4.52162219056357805868629,1098.06661607208252462442,1164.3095779701727678912,1158.71262030589286950999,1106.09230202019170974381,392.690005400599261520256,292.079084378006598399224,-186.073876866562699206042,487.988169821506289736135,154.002011416101282748059
51.7325000000000017053026,1.49105755582923382718263,-1.42815909136024554726419,0.520612512084415390845038,-0.0119782877028323953699784,-0.0116203531754002012399418,-0.0222850454358495021767173,-0.00292994518097311387044845,0.00433385191987769625987514,0.857111235229153778369948,0.515099856155023294590478,-0.0251169716410146043328311,-0.0129412324791003396917688,9.84455767488455357749899,-0.00289015609016610294443317,-0.00526985479665863319059804,-0.0067651630717525963049086,7.22821238287386513832189,-3.37017203316953128933164,4.52161022874991047615367,1099.18993141948249103734,1165.34384803135799302254,1158.28067285405450093094,1107.12562699748013983481,541.155401865845419706602,537.287617818117041679216,-181.955763168236416049695,344.066663150119040892605,154.00367301171655753933
51.7349999999999994315658,1.41074282022638852751584,-1.22207435575944556305217,0.597400746331642529263206,-0.00650329122641080115130308,-0.0164924818379004710366953,-0.0211215816537975234479241,-0.00293166224227992249645736,0.00433884684885995405151382,0.857114059955396356826895,0.515094347519289286196909,-0.0232892436701832572509829,-0.0123057566937999282585814,9.84777658264915167762865,-0.00290302967826792370983902,-0.00528977897072551318108369,-0.00668628592692612107317718,7.22823432769158547017696,-3.37018022756843738108046,4.52159788686917440969637,1100.77239308140929097135,1166.99601605926090996945,1157.80284149005251492781,1107.81263533594074033317,603.63800840824342230917,623.995898330121235630941,-179.241000403180066768982,156.680539810406003198295,154.005599309085766890348
51.7375000000000042632564,1.22240584702961885277261,-0.972206231757330230358605,0.665906274514298512912092,-0.00295348095828379224314642,-0.0191619621184526932322623,-0.0204927131823697782075921,-0.00292928454582206797968125,0.00433572647221676116952027,0.857108162568794407221162,0.515104293602786977857022,-0.0211346187703055077289349,-0.0116352107488081474295782,9.85088245430642395206178,-0.00290198656125920020215636,-0.00530491006995781073235507,-0.00659473409258263913723663,7.22825362631768975063551,-3.37018501522374691603545,4.52158273428611412469991,1102.20812146152525201614,1168.4638275230101953639,1157.38446785203814215492,1107.9090296965325705969,581.056405172033123562869,544.871340342291205161018,-182.080098246704068287727,-48.4304893310061359557039,154.007148652748782069466
51.7400000000000019895197,0.952136030346228845466783,-0.672962818770255100098154,0.751244663047996197313694,-0.000702194555082094390083269,-0.02058985184339902352324,-0.0198511803151711595238904,-0.00292458428234438922582727,0.00432800305376138637336592,0.857097317956300397412406,0.515123005680087509006171,-0.0187945335741736135881652,-0.0109446522932128004201857,9.85392415287766887388443,-0.00289304565161421995203583,-0.00531732374288112173699172,-0.00649599353454060560869587,7.22827142401071753852193,-3.37018787055710378197659,4.52156598745868265609715,1103.67767510727094304457,1169.72037276097375979589,1156.89244099881852889666,1107.57048288928558577027,582.294693998921729871654,427.548560201037219030695,-210.16334971687697930065,-189.872921207997819692537,154.00864004916647331811
51.7424999999999997157829,0.647579462914256942518421,-0.353728300909285975350826,0.847523080501867753788758,0.000622120965417927228140182,-0.0212645862979859157082529,-0.0188712149163370208893031,-0.00288864325873809408423698,0.00429928771064324363043729,0.857076456639355610533926,0.515161453630164856143381,-0.0155667553624664611877648,-0.0101617501613441851837649,9.85674981429025898194141,-0.00287412900633687634285862,-0.00532293739633861104354473,-0.00637412979646229116426071,7.22828434664120234032225,-3.37018493831193088894338,4.52154469355675736608191,1105.11959493151721289905,1170.60157032401343712991,1156.3336511034547129384,1106.95966509049344494997,558.830569880806820037833,228.995059217978621290968,-230.709792496527569483078,-281.797183421068893949268,154.010083110524817584519
51.7450000000000045474735,0.335133844623661913963986,-0.0273932578721309480385138,0.938304275730917347608795,0.00111574327256087815068986,-0.0213066773210179166708755,-0.0171131581423267994934712,-0.00284560690903858104494617,0.00426574017018838385489898,0.857053430536392935046308,0.515204252257398964687241,-0.0121376446878322385991567,-0.00935937291857924513749367,9.85952375949947601441181,-0.00285305316058374934876096,-0.00532697721912353712447885,-0.00624687776061781316339072,7.22829618510036375766958,-3.37018071679980835142487,4.52152238525482452757842,1106.47182795667640675674,1170.86534805706423867377,1155.73889203633530087245,1106.16149697217952052597,562.006164918997342283546,-40.9282391735605202143233,-249.209412164927755384269,-354.295721090102858852333,154.011467125791767784904
51.7475000000000022737368,-0.0183714120040708757397585,0.359773354587486937639085,1.00469755471682420377988,0.00103289914305236150623979,-0.0207946458489626020971208,-0.0138472432761223354646951,-0.00276953451998580846282749,0.00420650555326149491741639,0.857025766266593880260416,0.515260804756076495891648,-0.00780495664273851696979278,-0.00856278579551960489224527,9.86195414974930173457324,-0.00282848648941016675428806,-0.00532228581526941399437725,-0.00608757334539475076368165,7.22830411345321088845139,-3.37017173656102864143236,4.52149625859224180146612,1107.92962575611363718053,1170.39692912814552983036,1155.08760404262943666254,1105.1881864850420242874,500.153970356950708264776,-290.08807926151354195099,-211.739126739404809995904,-331.267782063815729998169,154.013058158203449465873
51.75,-0.280607734211758830245032,0.672418185821592850892614,0.998230099173104012955093,0.000489331812130131991664395,-0.0198819566788689013059344,-0.0103370099335560652192845,-0.00269751786953606464969369,0.0041462822798731735138289,0.856999846930981634685054,0.515315992731673944149406,-0.0035305477023132164626773,-0.00781912331202944121955056,9.86429415995398350958112,-0.00280335524222097851390623,-0.00531536576082950254495962,-0.005922084734968315576642,7.22831265120930055445569,-3.37016320280313719237597,4.52147068726591516707458,1108.97259780845888599288,1169.41490766075799001555,1154.68019640263923974999,1104.50515806186194822658,376.959403420893920610979,-476.290489831968727685307,-120.736981991304432426659,-219.842118830247130745192,154.01432435799245013186
51.7524999999999977262632,-0.497545597654354021521783,0.964985443415971477776338,0.908950972443200777561856,-0.000575701193902872676751159,-0.0183403776685624603226543,-0.00673656677994141812881868,-0.0026409241485603131456561,0.00408229940056072018034206,0.856980563130727013287924,0.515365991777389731431924,0.000520193934567078630770709,-0.00727894879241308689898915,9.86629417610129166860133,-0.00277624553223822364764195,-0.0052999755674290362217338,-0.00573305192582414420432446,7.22832350636898546270004,-3.370156366897086641643,4.5214472277403618960534,1109.81442277321639267029,1168.01547667898785221041,1154.48391913267346353678,1104.0889758908917883673,324.134750644923485651816,-646.675862653670492363744,-35.1832578974883389832939,-103.699490249565926092146,154.015526361427305346297
51.7550000000000025579538,-0.695428904496095734444339,1.27379484682188692801219,0.710195773626162263347794,-0.00255517253763539332195309,-0.0156415387340749535705076,-0.00316380510275038632703182,-0.00259882752674291811478824,0.00402746971078933070631312,0.856969490692535251774586,0.51540432971429162023469,0.0041965752182600013497904,-0.0067545981968592794242312,9.86810625634746862999691,-0.00274551652632939319209626,-0.00527939288501711422030294,-0.00553653531150535838101234,7.22833661227328239107237,-3.37015187341930388953415,4.52142568364289409998946,1110.5932715616843324824,1166.18152834748798341025,1154.50428011315170806483,1103.98666061061385335051,249.930220669429587587729,-647.86802584502368063113,41.1103630987116730466369,32.3059510528599531653526,154.016891309134678067494
51.7575000000000002842171,-0.803210834170203447079928,1.47572526571565076913828,0.487942793664100482597945,-0.00477453062279044240096004,-0.0125749453460253460962415,-0.00121363180243725678718325,-0.00257863493324819812585469,0.00398646980315319268695085,0.856970825005875735946859,0.515425048591343082371452,0.00730689256741845483134057,-0.00625471747407188582990045,9.86963532226522488599585,-0.00270936872379390087522966,-0.00525096105068552192196574,-0.00532870427567901875504086,7.22835311888369425048495,-3.37015091917475517746539,4.52140703361344620248019,1111.06407387656417995458,1164.7761365497610768216,1154.68947094816712706233,1104.25050564615617076925,155.734336637993436625038,-487.984403752523576258682,87.617109518794322298163,173.542892981434789589912,154.017961450227772957078
51.7599999999999980104803,-0.851064175423224322791782,1.5907188522744659664454,0.243230127192980039030346,-0.00731226411413983534703931,-0.00853277356173626905233576,-0.000454049651015974136802206,-0.00258944625012394154597861,0.00396214075931160258914332,0.856983894073796159673861,0.51542266826434257609435,0.00961207985654389390761665,-0.00587069269050875808257928,9.87089391293991269549224,-0.00266213161875437529999,-0.00521384540003141504910245,-0.00511981172662864542771688,7.22837326502199939426418,-3.37015422676680698188534,4.52139404763338692561092,1111.37194324487359153864,1163.74160632872758469603,1154.94236566074528127501,1104.8543750755202381697,102.263458980489744476472,-341.779541100102278505801,95.797562506955827643651,331.569920145660489652073,154.018957931423358331813
51.7625000000000028421709,-0.848865613091070780882319,1.5957932077216103738948,-0.0300383313123203446459719,-0.010292196923771913114054,-0.00296585048284991317432691,-0.000811067888530778743731708,-0.00262195407110547579893067,0.00394947796854715378611633,0.857005175110719052966601,0.515404123138464620446086,0.0113537377574329523266528,-0.00556801939915515381462896,9.87196357992011641613317,-0.00260715968119627772292546,-0.00517066707158171916941525,-0.0049101674309714989433151,7.22839595809812518467652,-3.37016051678766181964875,4.52138502534917563480121,1111.57539117146689022775,1163.06723884425969117729,1155.16845876070215126674,1105.90835524688532132132,49.5456811454661263383059,-155.212752527916279632336,49.6971853689247353713654,428.534999036181886822305,154.020063537104590523086
51.7650000000000005684342,-0.811433917161459294931092,1.47388103673454762265749,-0.211493793036783811478685,-0.0123795367531825007550994,0.00184057909809146849795802,-0.00201793391362896498350543,-0.00268212473200509253154489,0.003953248991134053653973,0.857025739484687187896839,0.515366836978764619736637,0.0122326793386039398003895,-0.00543501923751912169313627,9.87272610367642755591078,-0.00253288783613965940572088,-0.00511688038708661783321441,-0.00471240280887248296631808,7.22841868471021697928336,-3.37016752316092471630782,4.5213832994398801545799,1111.61967165060104889562,1162.96554256608760624658,1155.19085158759003206796,1106.99705007070224382915,-6.17386763029223750720575,29.8879817973828600941033,-39.621753875953459100856,460.323704474340331671556,154.02090566094611290282
51.7674999999999982946974,-0.758277059428779209859783,1.219021583927007323922,-0.322627995394702660192365,-0.0136440977132860508796997,0.00645148805997538404843894,-0.00387048378204420638615257,-0.00275017290857536853346255,0.00396169985218246430147548,0.857046099775355618710648,0.515324213956036447648046,0.0128658490231919886426226,-0.00535056120500092963210292,9.87340143747078613500889,-0.00245315172617822582767921,-0.00506010035602754044969931,-0.00451799936921270552103724,7.2284414208723077877039,-3.37017473352905394534673,4.52138365131102659688622,1111.54452183331545711553,1163.21667875324646956869,1154.97034999132256416488,1108.20997376925492972077,-49.6865563290812630725668,131.433904621031672377285,-128.072602025102213474383,489.62022105349620915149,154.0216602111627537397
51.770000000000003126388,-0.705191848091759720951188,0.868108889635728186995323,-0.372085589077121303702711,-0.0141935380588299048243428,0.0104691467478403368862594,-0.0058290528525092475883862,-0.00281560562629582910448844,0.00397949896971914063997788,0.857055030339779699843916,0.515287071808127827843293,0.0130723496365052344048152,-0.00534223191184753087856762,9.87379749646490978420843,-0.00235154253421911152432955,-0.00499454561643304824347656,-0.00434833337658234366646104,7.22845885632697893186105,-3.37017750140043936823986,4.52138610527165063501798,1111.37123886895551549969,1163.62271208919310083729,1154.55048857746419344039,1109.44515117597097741964,-95.1556186009351847587823,166.808152236632082576762,-200.530239492524913202942,479.298045152363897614123,154.022337793214433077083
51.7725000000000008526513,-0.654197916629260745047247,0.440385318504943334971813,-0.360616185589271720512983,-0.0145407942893883649487785,0.0128132026867285933602325,-0.007032648567735920626387,-0.00287612600255656315068054,0.00399596741717105768953999,0.857061910758255662834415,0.515253312409667429960791,0.0132898352389262952577553,-0.00536255471009566136997293,9.87415905857960396474482,-0.00224705111134670260097934,-0.00492833971887802774897169,-0.00418346874135885112705457,7.22847508863283749747097,-3.37017934378651373705793,4.52138785485190908275399,1111.0687437403105377598,1164.05071951443005673354,1153.96769879385942658701,1110.60646399501797532139,-168.283021440555131675865,160.798370000666920986987,-258.116036322288096016564,471.179886340333894167998,154.022917321634736254055
51.7749999999999985789145,-0.573649763081461760982904,-0.0897652301912347516665847,-0.306820584551747654877829,-0.0157959535236977741123887,0.0129013779687246841337833,-0.00696225440814633202146755,-0.00291100779515007096476253,0.00400374750096910668462069,0.85705988310855185652315,0.515236570435746665808097,0.013640097623919336666809,-0.00552117065714968074940927,9.87438476840110013199592,-0.00213088745385045779529021,-0.00486007691405512202292849,-0.00403995679387200278681602,7.22848584925982251547794,-3.37017704053877853453969,4.52138549871580419647898,1110.52982376175350509584,1164.42670393919570415164,1153.25990839585392677691,1111.8010506076705041778,-230.808211336916571099209,100.483536170798728903719,-228.774978723478227493615,393.719523787629952948919,154.023493692411960864774
51.7775000000000034106051,-0.462487579203816501216551,-0.489915510124162567606731,-0.246769909656323144231393,-0.0177224628242352993945374,0.0108995761720959583734869,-0.0062780413715991341058742,-0.00293329194812705969924727,0.00400504452893056094725521,0.857056882110628137638741,0.515224120148571218535949,0.0140928104804385750936646,-0.00576593807294470406255016,9.87459626586834993133834,-0.00201334578360323496887263,-0.00479322938165452610420614,-0.0039021182799096297555419,7.22849518736288310094551,-3.37017390612026401797152,4.52138038699949085241769,1109.91470268362536444329,1164.55313719528430738137,1152.82382390024145024654,1112.5750616139571320673,-281.21201561738581631289,4.95879457234624254624578,-106.794630004824213642678,259.020225496491832473112,154.023871611395094305408
51.7800000000000011368684,-0.274430972983874310600072,-0.79484252965727342221669,-0.173687268478971257312793,-0.0199999657307869185829396,0.00771211424257757169331562,-0.00615522980881184379742255,-0.00293202409752126372244341,0.00399422111536981098295351,0.857052061382861274374534,0.515219693413797696912582,0.0147371363029608765105039,-0.00617169959441182802706294,9.87478103441974042198126,-0.00189320076182794864647074,-0.00472901164247855904793072,-0.00377491635433650860736998,7.22850186597658250775567,-3.37016921778071587567638,4.52137012356929091083657,1109.12376368366585666081,1164.45149791205744804756,1152.72593524582953250501,1113.09615173515362585022,-379.858368551940543511591,-94.3428834187619429485494,62.2712112450810977293258,174.281661767167207699458,154.024140654982602427481
51.7824999999999988631316,0.0543402718045602334262512,-1.02160616033956452852749,-0.0535461867164793992035499,-0.0221046408482409896534282,0.00373252147790917093370111,-0.0072459475002863912851403,-0.00293064157353646430326233,0.00397639321628620243109786,0.857051438982158075852169,0.515211912962815543615136,0.0151763071757066020373017,-0.0068414029957887950716966,9.87499395718180394965202,-0.00177445596505881441479202,-0.00466927276533958979937156,-0.00364995461945867485237249,7.22850994917996736432997,-3.37016570694423744924961,4.5213574724761462775291,1108.01541084086738919723,1164.08142277819092669233,1153.13517995646657254838,1113.44646992279217556643,-419.038697317832259159331,-168.523721921524355593647,243.674450865876622174255,87.7600698704105894876193,154.02433611894824139199
51.7850000000000036948222,0.404145589431888829778927,-1.09278591806468194924662,0.0861815477406339541799341,-0.0228387906232156885633078,0.000710522436027415126881535,-0.00888940702821045848625037,-0.00292916078559720023666291,0.00395256315303485830647823,0.857054414140216880291234,0.515201258702587927551519,0.0154396652282020874213941,-0.00773729206054338258802261,9.87523097397197169300398,-0.00165690640585543723893591,-0.00461338000706309949577877,-0.00352691340797701546189158,7.22851923598036982809845,-3.37016320511358991041106,4.52134277538763029724578,1107.02857019707562358235,1163.60887930244939525437,1153.94430750015953890397,1113.5349520845059032581,-384.299602108770898212242,-206.079873535267410034066,409.977534832086689675634,-0.203476994010894085551655,154.024392729524350897918
51.7875000000000014210855,0.797762197340503131925971,-1.05311119558975607723994,0.262668576350822580156574,-0.0221668965274969438639108,-0.00202002963691021424769145,-0.0100779041398528571016335,-0.00293147425554940574063401,0.00392213822968385302653038,0.857062724998061908898705,0.515184843222719957012146,0.0153451818888205235302813,-0.00894433495454804994295728,9.87555075929412495838733,-0.00154371389076813671226152,-0.00456506579705349274656001,-0.00339961453706769979599134,7.22853106965287750540483,-3.37016228616521118510718,4.52132708566578589426399,1106.09391283032255159924,1163.05102341051406256156,1155.18506763062805475784,1113.44545253782212057558,-345.344554200433208279719,-220.286419371878110951002,548.023256155645867693238,-59.968490758101296478344,154.024340057712805673873
51.7899999999999991473487,1.18839830452039052488544,-0.934397803102182789025676,0.445613950970253080985373,-0.0199735629666987941910339,-0.00462045999791486916574712,-0.00988666520762889085294223,-0.00293520123730262082542564,0.00388925645894829235399426,0.857073023616051532513893,0.515166281459656927310675,0.0151173341222816948192786,-0.0102672994375645060260993,9.87590130409209976392049,-0.00143213726417823570408183,-0.00451959303548813036421894,-0.00327072961287774030894604,7.22854385213642469665274,-3.3701619569033613998954,4.52131102614859337052167,1105.30184742607502812461,1162.50744720559100642276,1156.68442378093527622696,1113.23510963071566948202,-260.867020158050991085474,-191.907304870112113803771,628.206124187087539212371,-105.099275104785988332878,154.024198386068718491515
51.7925000000000039790393,1.52091902436435333356712,-0.738807247832994451464117,0.590402384190837459243539,-0.0158775688124855873795127,-0.00695372371709242903525805,-0.00780052064067512061773524,-0.00292788845322940931639732,0.00386938744037285901195,0.857079591130452511649196,0.515155750515105648190683,0.0145352210729993297499973,-0.0113978437966640380740735,9.87637953044795224855079,-0.00132850440642240841433719,-0.00448481500942275301130335,-0.0031321436650404450158236,7.22855593756376890723914,-3.3701606815928788485337,4.52129779320439162404455,1104.78957772953162930207,1162.09148688616301114962,1158.32609825156509941735,1112.91995616229792176455,-143.052237021874617539652,-131.43100890095053046025,706.135307860270359014976,-149.793062914355459724902,154.023952045787552833644
51.7950000000000017053026,1.7903261092454285652309,-0.444406958330973489434967,0.664428961890939584478133,-0.0095118687472453156833696,-0.00890229167717401792536691,-0.00410171499571076840495731,-0.0029199411111307874144849,0.00385330375310994049237179,0.857084523354819660667658,0.515148143651363743522609,0.0138489671018518223366556,-0.012478303425044363905716,9.87688381491472000561771,-0.00122688244698290521879358,-0.00445235259438542165660868,-0.00299164810898065866226481,7.22856778211069528339294,-3.37015919153787191220317,4.52128557751819837307039,1104.58658624096528910741,1161.85029216108591754164,1160.21510032023843450588,1112.48614431614350905875,-3.96257683765176116352791,-38.8785145962527849405888,644.158578205992057519325,-158.416650450734238120276,154.023538961153519721847
51.7974999999999994315658,1.87656382330675342018367,-0.174434887019746104330764,0.61947843732019447493542,-0.00376483722739410662724846,-0.00962715530655484583166803,-0.000876727983711288855715738,-0.00291481070932630374065164,0.00385881350937799291050956,0.857078753359149736468225,0.515158685917103564833042,0.0125660262070508566001337,-0.01328789203194090384752,9.87750900305347201424411,-0.0011360592248098385238092,-0.00443103317400224579192258,-0.00284249980196672399901381,7.22857815735532316381295,-3.37015662748484423616446,4.52127965194501690859852,1104.76976484534338851518,1161.89709431318192400795,1161.54689114259213056357,1112.12787291004497092217,134.192874372979105146442,65.3197409070010053255828,446.725098495061217818147,-133.57152097094046894199,154.023099316414601389624
51.8000000000000042632564,1.80611644062138942956608,0.0900176267019969222893394,0.463307244861552058878829,0.00196142404711644683518168,-0.00936983431025417527748811,0.00193819095431101671989094,-0.00291020985313302643637812,0.00386960843715319566249455,0.857070033044241785802342,0.515174059806790096693874,0.0111385237317250529454071,-0.0140110890086945286125975,9.87816789331990641187531,-0.00105006437386196641720071,-0.00441358588477196688015791,-0.00269121866113657213365196,7.22858813534125133060115,-3.37015366437425534229533,4.52127489996583431519639,1105.25755061283052782528,1162.17689086562108968792,1162.44872581271488343191,1111.81828671128846508509,257.207340852533263841906,160.702232625644313657176,269.359092542571033845888,-121.178222607006176758659,154.022563501833019472542
51.8025000000000019895197,1.55380608035180123316366,0.369074968276589920890274,0.180909071401044924121138,0.00827644082638873991586426,-0.00785423688558856136765485,0.00436211942869726282401288,-0.00290685221379030417007683,0.00389281138821560238755248,0.857054386250266642122142,0.515200776923913084104356,0.00937158270413854244118568,-0.0145314694916426553894517,9.87890583972084712627293,-0.000975409292077287267547225,-0.00440523193317925859657791,-0.00253492657430427845849374,7.22859718068096324117278,-3.37014976439425684162643,4.52127290323908503921757,1106.05580154960671279696,1162.70060547631055669626,1162.89368660530567467504,1111.52198179700963009964,305.089438899408435190708,210.034570677962648233006,48.8915422730305095910808,-98.3283510817257848657391,154.02181252585674542388
51.8049999999999997157829,1.23157637339291414768638,0.553855017084567746721291,-0.0893964233564704668921763,0.0125683415852805204643294,-0.00566970752772845160843973,0.0050162749723243671082229,-0.00289928522642195121011843,0.0039168595060676001176625,0.857036822945598797396372,0.515230553452433515104758,0.0075856121938305404173164,-0.0149531200177658099570444,9.87968010735918866771499,-0.000910195260475025807664351,-0.00440302017462614395104659,-0.00237536297047604523166586,7.22860535647562407746136,-3.37014487673776708120954,4.52127078153014760886208,1106.7829978073261827376,1163.22706371900994781754,1162.69318352407981365104,1111.32664495588028330531,281.562387423438508449181,217.242874694855174766417,-191.261859724675019833739,-74.9303936895174587107249,154.021098948550246632294
51.8075000000000045474735,0.844193044418004578943737,0.685312771262548081629973,-0.328825638987606749807924,0.0151612285897367582432338,-0.00322747567735109366568458,0.00341601972368153847942063,-0.00288731523992998354022355,0.00394179167261585368386978,0.857017254961144447911181,0.515263530140603220885964,0.00577974714597834227092221,-0.0152715210447045210417905,9.88049239986797012136321,-0.000854852086794586295791232,-0.00440723148140685205137457,-0.00221237813328257733672122,7.22861262272180482568729,-3.3701389559667207507232,4.52126852908921339491144,1107.46361348672462554532,1163.78681984978538821451,1161.93737730668181029614,1111.14732982856185117271,277.341289695317755104043,246.377924884210557365805,-432.09903583834324081181,-88.8252291101707953657751,154.020296839607851779874
51.8100000000000022737368,0.374188029097694108138228,0.798518793466591825236378,-0.508929113524951626246207,0.0157224494603664249892105,-0.000955483156896846344725838,-0.000672363500540809795602559,-0.00286150254804719891138509,0.00396331721453318033820956,0.856998068931185130736594,0.515295785665765726513143,0.0042027049811938083090368,-0.0154046509761953803741008,9.88131913184079380130242,-0.000812889196778215591433769,-0.00441880972525296022296315,-0.00204293445304204891038724,7.22861891918171650672775,-3.37013227798291126191543,4.52126423829079637783934,1108.16970425580348091898,1164.45895334343163085578,1160.5326883448869921267,1110.88251881032920209691,242.651212534285747324247,242.58711235324207677877,-567.314979104883036598039,-117.87768494729596113757,154.019234809912518358033
51.8125,0.0233320504591796699933592,0.875670549554632082767114,-0.542335928489457552714725,0.0144272458388247457744535,0.000257739672163886446906028,-0.0042993938491613214319953,-0.00282913973265049674063465,0.00398323080188905248588682,0.856979063635341598015316,0.515327699949340134466524,0.00273400807632968867455503,-0.0154501657517626400650812,9.88215282116595439276807,-0.000777245295743573486740852,-0.00443385812499096608474414,-0.00187043526686278094132987,7.22862475675590410162386,-3.37012524169940608231855,4.52125898297764727828962,1108.67686954939495080907,1164.99975541155049540976,1159.10080241115997523593,1110.55794140382590740046,196.379587991256244094984,205.536066367272297839008,-584.664867493697443023848,-166.831788744381668720962,154.018268871537969744168
51.8149999999999977262632,-0.255019746949834535953983,0.953078232596383134733742,-0.462464828826255169857973,0.0125944848672257352084625,0.0013151327177073355093051,-0.00680021560912141311006085,-0.00280026392837220885340122,0.00399941991689533021120395,0.85696650750347569402976,0.515348729185111320560964,0.0012785950340391538659901,-0.0154235247437489383925957,9.88294763115851893076069,-0.000755527224713689908239256,-0.00445517700125498423285864,-0.0016860254098344793546177,7.22863304613841428647447,-3.37012019287496578101582,4.52125312645011057099964,1109.15160219575886912935,1165.48663367526705769706,1157.60936400742116347828,1110.04835986660805247084,192.330758692461870396073,178.336315678461403422261,-574.690247372270050618681,-243.164945901310801446016,154.017221246315784810577
51.8175000000000025579538,-0.471961342062394983987161,1.03239285166949890104604,-0.31839308329360577198841,0.0111133774943102444504595,0.00275493865219629367746546,-0.00834988296128445252330952,-0.00277186657413038255864945,0.00401509182594816330796883,0.856955849891904986037616,0.515366570989679306791231,-0.00016726033531065664927695,-0.0153719153984027551151925,9.88373011551683333664187,-0.000736453763213854397697011,-0.00447754501217766803788933,-0.00149879827708095602310789,7.22864188441996180500837,-3.37011561589869579336209,4.52124704640671826183507,1109.63852334285775214084,1165.8914369899432585953,1156.22735117429715501203,1109.34211667431873138412,199.731190296313485532664,132.962882633478528759952,-493.894104125112960446131,-332.324560072641418173589,154.016107534271299073225
51.8200000000000002842171,-0.629571065879938052134435,1.10049964637973385350733,-0.147480300181328516373469,0.0101404257790402175382072,0.00510252162304703806017248,-0.00865324807059411095500057,-0.00274270358156174145353168,0.00403148285157481876816998,0.856959974058956741593818,0.515359734389703283419237,-0.00149330063566277537745464,-0.0150946638023469539846566,9.88440779236558597631301,-0.000726227477307277006525477,-0.00450182916550176132758354,-0.0012952989241719731726421,7.22865357990756951522826,-3.37011378494691360430124,4.52123884482404658768928,1110.15025814724094743724,1166.15144808843479040661,1155.13989348679433533107,1108.38673706624399528664,218.46823630687001127626,75.3759872655112985739834,-384.101668538400303987146,-467.2482961156831606786,154.014916056571905755845
51.8224999999999980104803,-0.770485505986600149874732,1.14166329962277757203992,0.0211093372790214783840668,0.00884456403916474530324532,0.00905589900753199332494869,-0.00744330833461875028544963,-0.00271505826182896412013257,0.00404895413785233589110124,0.856968512813965910268621,0.515345530855913391832246,-0.00281091275521784533797387,-0.0147613999786273333847397,9.88504326567074009801672,-0.000716631533335391926291258,-0.00452518055815858723234246,-0.00108739846123471909158931,7.2286661258356055270724,-3.37011233758457873221914,4.52123022623033143929661,1110.73086452439110871637,1166.26831692627047232236,1154.30684283160690029035,1107.00587519374244038772,187.506594228393197454352,13.4354469030244612071101,-222.8907494641358653098,-527.205271327878563170088,154.013398781497102163485
51.8250000000000028421709,-0.855667341369585110477658,1.12490378509646582472215,0.0918917999654336598025495,0.00734081870922243927973794,0.0127866099177813916792923,-0.00552120570544119022154961,-0.00269199185029724745790713,0.0040696846340443938727649,0.856990370640468235308163,0.515309100849552614853621,-0.00410318049566235631964162,-0.0142592954528691501225879,9.88555116086780039097448,-0.000708968020994116959743181,-0.00454576383996542748161529,-0.000866223893463648718371584,7.22868123759243186299273,-3.37011204753416127033461,4.52122034948977535862014,1111.08779111838339304086,1166.21862532294994707627,1154.02543973947308586503,1105.75071070960325414489,85.3155721609728203702616,-39.3075385314458713992281,-40.5624649102057333038829,-491.840470851251041040086,154.012063162026805684945
51.8275000000000005684342,-0.907955489024936612807437,1.04833264333389308831102,0.0683958345465801309526199,0.00556247400981333284947228,0.016020199420373856108446,-0.00362573923914683883540366,-0.00268154451934138728444457,0.00409189034322377832852968,0.857013157106239820137716,0.515271050164510358015946,-0.00552782371763051172397496,-0.013781165018746585615439,9.88596799776806278714503,-0.000700586694836152486069725,-0.00456267854294102343654105,-0.000639473497315297119240884,7.22869711764536670983716,-3.37011153194212953465581,4.52121234265334948076998,1111.1574423851961910259,1166.07177923361314242356,1154.10403050705576788459,1104.54667283948492695345,-70.0012991024050279520452,-69.5585056991326950992516,85.5097633675864159386037,-473.885976435461884648248,154.010655572608698093973
51.8299999999999982946974,-0.925032967234158842728675,0.896804108590640858267307,-0.0573011135695248377541766,0.00293233249342067297735226,0.0188838949946213870145773,-0.00236027194640624693108832,-0.0026872242399032597939823,0.0041159813589993357943464,0.857037130363176746783438,0.51523092826925287468498,-0.0071216737105019717324339,-0.0133337613024639284331485,9.88626835303716333669399,-0.000691305790073767716628905,-0.0045749189811103785699431,-0.000405598295356844845520328,7.22871397957260430899851,-3.37011072811030043538949,4.52120672553462910059352,1110.73778462287168622424,1165.8708327944545999344,1154.45298855631062906468,1103.38128082742809965566,-253.281588440684146235071,-65.0275433475721200693442,143.29016604967310399843,-348.871855480596195775433,154.008885472313693298929
51.832500000000003126388,-0.893127113746816192474398,0.732644629213446196835946,-0.215606423485557502361942,0.000211060662809229703656966,0.0205407588921066551479466,-0.00248969532657702897690544,-0.0026994931977230322492356,0.00414230838371698432964774,0.85705185421924467981114,0.515206150256735329051594,-0.00869687233487519140151534,-0.012834430227166231108793,9.8864372779528952861483,-0.000681063887792752379983507,-0.00458060789991988643460319,-0.000169775554419664739119744,7.22872888268527624688886,-3.37010795046623634618754,4.52120482016772839983787,1109.89103444299212242186,1165.74664151687511548516,1154.82048133730449990253,1102.80231356208105353289,-441.269105343100648042309,-28.6137529144379243462026,135.556186529696560683078,-118.554973064950274874718,154.007344611544709778173
51.8350000000000008526513,-0.80823387637812138528659,0.541016708668154100436709,-0.386503152216795986539921,-0.00281925703285990222543567,0.021765234120825087404949,-0.00390466166707545327824169,-0.00271564817273656482904398,0.00416995409963569468175804,0.857061123220766662988979,0.515190421332877512838877,-0.0102610694430495946738446,-0.0123045098932200447361396,9.88652860248479470328675,-0.00067026955825284599815167,-0.00458242779570937949079612,6.71962271063329783134244e-05,7.22874263058274113546986,-3.37010400876205817866094,4.52120510381464324467515,1108.53143909615505435795,1165.72776402988233712676,1155.13076948895945861295,1102.78850596210304502165,-611.780096494941744822427,14.7015596078424106707416,102.218260930705781674988,103.021297653279376049795,154.00573809861182894565
51.8374999999999985789145,-0.685002576783201977406179,0.331711290355811871943814,-0.538304707135101812021105,-0.0057286368885407215265082,0.0228374504456307254873781,-0.00615376716026482407234655,-0.00274176067583165950294899,0.00419451958925404211342425,0.857056845435624214957215,0.515197209666970690200571,-0.0117499571685235476570242,-0.0118730486925079856130871,9.88647887426475691086125,-0.000660829750236511192194866,-0.00457617822326790175263556,0.000297382620759702002988245,7.2287541593997843847319,-3.37009882111596326126346,4.5212100794365337463887,1106.83213396052019561466,1165.82014931491426068533,1155.33157264195756397385,1103.31742005034698195232,-723.89632755593333968136,63.1619441219431507761328,50.0914440472313984287211,345.150488305131034394435,154.00407969389073059574
51.8400000000000034106051,-0.538263984558149499726198,0.105249174879682244609924,-0.645342281183310939596254,-0.00771839671502221134208321,0.0237585441415295098299687,-0.00866742241470526073032765,-0.00277011087847388098523438,0.00421831481167275496729774,0.857049447150682985885339,0.515209185434671756986802,-0.0132194756084573344923072,-0.0114652854029084483311607,9.88639695576986810010567,-0.000651762621787942055678888,-0.00456807167088388223902262,0.000525914836011340822499727,7.22876517495664572265923,-3.37009335188234437907795,4.5212161177989660387766,1104.91195745837353570096,1166.04357375049221445806,1155.38122670919574375148,1104.51425840362958297192,-836.692361060822236140666,120.43656630515420147276,-6.14430136178866082019567,661.846342381502608986921,154.002362542609830597939
51.8425000000000011368684,-0.379628384226846971039038,-0.176304041868502792134166,-0.715880655169659707581786,-0.00807362025784462075672643,0.0242936991541482065481983,-0.0109592723176024867820511,-0.00280260890719175818214248,0.00423234463389780823927566,0.857028125586172917493855,0.515244368087160231617361,-0.0143908738233815836071727,-0.0112617253985652504555404,9.88621713933156520681678,-0.00064774465447843890264501,-0.00455226122472459759221719,0.000737475008815677594495308,7.22877368207849002601506,-3.37008719045332760799738,4.52122501673182952686147,1102.64867215521394427924,1166.42233214644033978402,1155.30085113514860495343,1106.62665176225618779426,-781.654539745415263496398,147.531565036977127647333,-42.22903150588738441229,857.37776188371515218023,154.000239944078117559911
51.8449999999999988631316,-0.292640288223955880031468,-0.40496926783504161306837,-0.731516433756981165892341,-0.00691321473086897730908618,0.0237915927170990020023122,-0.0123219761263715713028866,-0.00283180038344062494012898,0.00424343780175254984415867,0.857005994459567821408541,0.515280932097708088690524,-0.0154207934876620794684143,-0.0110852843136712217453343,9.88603738135247311902276,-0.000645086641494619804013122,-0.00453531579456957403134743,0.000944904608481579024945041,7.22878192227831029015306,-3.37008066548600826450865,4.52123348683209069776012,1101.00368475965001380246,1166.78123157567642920185,1155.17008155166649885359,1108.80114721304425984272,-571.960462376571967979544,138.703262195323958394511,-51.4579697137569880283081,905.762772803419011324877,153.998424427627725208367
51.8475000000000036948222,-0.265792265464908805672195,-0.604660544626086982056279,-0.707730123916861297850289,-0.00570762409337804803299843,0.0221618963208353378369075,-0.0139752529801498957817696,-0.00284769630249349361625355,0.00424272276256644053499256,0.856980608105882613045878,0.515323050511296454345711,-0.0158817840304858598488025,-0.0110174426115034751472166,9.88585825211790236721754,-0.000647788842513600171199584,-0.00451379930135676569330494,0.00113572265186390034853725,7.22878908919195328763863,-3.3700726787411010576534,4.52124023260817065050787,1099.78886984332962128974,1167.11584845741731442104,1155.04356128657968838525,1111.15546562627559978864,-419.194839761043283488107,127.068790949241275711756,-42.2126738529880256578508,1009.94751398946561948833,153.996567243956917536707
51.8500000000000014210855,-0.278188892560160105915656,-0.786843899546749048212746,-0.63552592108828709349666,-0.00571845547576487617247309,0.0193384303585565978100824,-0.0164483868501585361876494,-0.0028558216102927327234573,0.00423595478188114587386748,0.856957370513564242742177,0.515361666373487792291996,-0.0160411945882696083121033,-0.0110136045550675229498516,9.88572067392783715433779,-0.000652332217254188531131709,-0.00449055776170492661897304,0.00131889847697712813898163,7.22879696015857131641269,-3.37006486131092941604948,4.52124593201055269275912,1098.90771056084372503392,1167.41657553042296058265,1154.95901818240145075833,1113.85088478299417147355,-233.398191422278074469432,87.4904882212263004248598,-15.2570852295095917838808,917.168215195731249878008,153.994299365552649305755
51.8524999999999991473487,-0.289858708295761213769026,-0.880970215446960858152181,-0.543207853908865057057653,-0.00700626946347052831365332,0.0165941866568371683421379,-0.0183823256678728209900786,-0.00285175243506454595410204,0.00421968787119291182524661,0.856937504989820797440814,0.515394785653471076969367,-0.0157273108491695623456508,-0.0111101102272659346681394,9.88564831133437493804195,-0.000659744011746013969341162,-0.0044646064563982866546521,0.00149008166129708835741241,7.22880593600121024167038,-3.3700573095877395246589,4.5212499893302355857827,1098.62187888621929232613,1167.55330089852304809028,1154.96727586043220981082,1115.74130670225008543639,-44.8912176688961608306272,32.8481466526059406874083,20.6432862530058507388731,630.17963655983794524218,153.992383728744670179367
51.8550000000000039790393,-0.260105075492480852794586,-0.915629819720889637224559,-0.430740381419131568296876,-0.00892064012286154436881525,0.0139154879647096028222331,-0.019742122774683196900769,-0.00283682066029594063399921,0.0041983211363835464674521,0.856924821751687382231921,0.515416007848496393606297,-0.0150238774250889550732069,-0.0112641666514340169080732,9.88569311380769377706201,-0.000666529234829615511645495,-0.00443662358784009582673979,0.0016518684545898901661759,7.22881695303966331778156,-3.37005180227827949579478,4.52125352134320479535745,1098.68325447249912940606,1167.58081626368607430777,1155.06223461366653282312,1117.00178296579497327912,58.6421567897259734536419,0.685185654537794675000839,52.1143989709077573024842,371.570957439863377658185,153.990449602052365207783
51.8575000000000017053026,-0.175258670270531879964437,-0.909564453808470396722896,-0.316185360889984889976034,-0.0109716219246508827483977,0.0117604035314647931836918,-0.0205042397755612407217463,-0.00281399878068516826751244,0.00417325011818953962861034,0.8569173554035126594286,0.515428588534895260053759,-0.0140374713446175664044446,-0.0114600160650081897562025,9.88582295268813915356532,-0.000672846941730735983479283,-0.00440716537753337283395139,0.00180683087863627261752952,7.22882945271115584517929,-3.37004777993920878742529,4.52125667179695156505659,1098.91508967016807218897,1167.55672682679573881614,1155.22784785528688189515,1117.59916148945035274664,106.668215798805860572429,-9.43092592738997304024906,84.3741656317291699451744,65.5727589402573158849918,153.98850599042791031934
51.8599999999999994315658,-0.0201138400052657262406797,-0.868446178439302163276636,-0.217278237993856343512888,-0.0125972981241162847870774,0.0101340994760083461662115,-0.0206719569327407613756886,-0.00279223607768478094062758,0.00415308197265251699548116,0.856916127216543754840927,0.515430663455644810788669,-0.0129364405518922614968247,-0.0117100805365710630701059,9.88616020811968709836037,-0.000672838196327070524674352,-0.00437643919730750213109571,0.00195214969541641675428167,7.22884428163048831095239,-3.37004720671994562053442,4.52126321621719196031108,1099.2165955514926736214,1167.53366163404916733271,1155.48410544182479497977,1117.32964676049596164376,122.620075154401121153569,1.84663045906651057670445,137.319426744509428317542,-304.00100945342182967579,153.98655764310649374238
51.8625000000000042632564,0.223881737021362298145633,-0.791057443183365127659101,-0.13383027326702046089224,-0.0130389355688056082782644,0.0079061223203582692287128,-0.0205261255087390015461324,-0.00277079100314125536391741,0.00413438411248735933345433,0.856916769744522799356901,0.51542958788185055940545,-0.0118010014660296924660088,-0.0119764203476194555642032,9.88655959189917865614916,-0.000670921400490725431016437,-0.0043453341171515950241977,0.00209457656259119922442791,7.22885980905032532461973,-3.37004766783111486816438,4.52127077842835589649439,1099.5281900459403914283,1167.56595997909107609303,1155.91444498900978032907,1116.0791564421824659803,95.2960971610504117279561,22.507464322904834119754,180.920142791954475569582,-578.774571555754391738446,153.984222345550620048016
51.8650000000000019895197,0.444059208177722208876759,-0.707908075017188775923671,-0.0991431071415828091275557,-0.0118608606587814798677405,0.00580641514419938300356483,-0.020312192728939984509573,-0.0027431809001010492611583,0.00413638367662427439142014,0.85691628526370866580919,0.515430203484140259106994,-0.010581881984311897193507,-0.011992539808308576299023,9.88724810598763959035296,-0.0006568354041149750263337,-0.0043161180908861934008014,0.00222973568470060138843603,7.22887455613601126458434,-3.37004948804636184078731,4.52128251377744039274376,1099.69307603729816946725,1167.64619895566374907503,1156.38870615578503020515,1114.43577390271570948244,43.0493098269317187032357,33.2354691265966124547049,214.182419957582339975488,-719.906009557844186019793,153.982284181223889163448
51.8674999999999997157829,0.642765034954010161527549,-0.612366480740354379719292,-0.0984901935355825403073382,-0.00952315271960758359670596,0.00411212621818907858584069,-0.0201646888603221607905169,-0.00271489652233666530281586,0.00414185645278317485229458,0.856914639852390136454119,0.515432745798535818515518,-0.00935541596148785348230348,-0.0119732872114238289573684,9.88799152670430459011186,-0.000640461314748688964430812,-0.00428804041158634564184782,0.00236471287852607668991678,7.22888852157029404565947,-3.37005102321065441728365,4.52129416366472192123638,1099.7434365950748542673,1167.73213732472390802286,1156.98535708879671801697,1112.47962639439651866269,0.2096415449613069359458,20.1546261468035154962308,286.158136123539463824272,-848.758470828600025015476,153.980360597408179046397
51.8700000000000045474735,0.826255913654987184102652,-0.495705119046234321533717,-0.125285640649996504736308,-0.00609811871729761326155206,0.0028316426503333055365863,-0.0201957530755453133763933,-0.00268426048228267814799164,0.00416211110634632976829073,0.856906656211500639130918,0.515445850460982679663857,-0.00810759021442571115034781,-0.0118131536606838824510213,9.88897817646045496076113,-0.000614051051122825705848307,-0.00426602457343183347204807,0.00250042206730354378899084,7.22889822468463183469112,-3.37005060739963013816123,4.52130432001037974032442,1099.69412424502297653817,1167.74697208639781820239,1157.81949683640345938329,1110.19198154857053850719,-29.7036838825381828144145,-20.8197166717475639075019,318.380867517563217461429,-771.684501221548885041557,153.978076067018037065282
51.8725000000000022737368,0.926393928498345675670578,-0.404818959706270131704287,-0.157638863534157430690286,-0.00327910144071841746712948,0.00213450409926857617368134,-0.0204692027903151767265211,-0.0026583747463989320508615,0.00418534413847125499191781,0.856895109722858761003295,0.515464941668467790947261,-0.00693119084162027720985577,-0.0116943203069065360111267,9.89003784094688320749356,-0.000585300146038755927588304,-0.00424800710481172336119293,0.00264057634042719809736033,7.22890563624761828265264,-3.37004891606790080160749,4.52131206341752900357278,1099.59491817566208737844,1167.62803874136511694815,1158.57726142638534838625,1108.62120388828680006554,-40.0346393019299569004943,-78.2761855331757772091805,302.163599407460594648001,-508.785746845395635773457,153.976196841980964791219
51.875,0.978927338351579190423024,-0.324671824982086465460895,-0.182495691355902822650137,-0.000874250246226184000303272,0.00129352440200190821339987,-0.0210570987670546036496511,-0.00264173340024221074348598,0.00421437328200166636676949,0.856876629709123704969898,0.515495683067913157415774,-0.00589388332037962814347054,-0.0116559704772980082809752,9.89123970061402957298924,-0.000552007156495078156119294,-0.00423778583518301301541475,0.00278938757471517643354852,7.22890858830800731027466,-3.37004474249291474663437,4.52131511109507222556658,1099.49395104851350879471,1167.35559115873229529825,1159.33031483343938816688,1107.64805281434587413969,-25.2961534428552994313577,-143.819127479667997704382,305.5632924741581177841,-265.579809850183266917156,153.974348407219054024608
51.8774999999999977262632,1.00431539372740252780147,-0.241485551006675902563359,-0.184243821437204413626887,0.00162192706936473401285737,0.000304598763007149866445522,-0.0220997941279726280161544,-0.00264258620747597101907633,0.00423737273100910621231874,0.856853141590045330744374,0.515534756280652595172853,-0.00504674410780760196448824,-0.0119455904917093805317485,9.89249132762645899674681,-0.000517575149303584947958756,-0.00423452149943956846628312,0.00295160634167231702290612,7.22891130817696225818736,-3.37003965064538135720795,4.52131674008415629373303,1099.46843740844792591815,1166.90894310396743094316,1160.10507788875474943779,1107.29330483903709136939,24.3179549019135450294016,-168.435846224797614922863,239.574383648837510918383,-0.725138334928116967681433,153.972171608568970668784
51.8800000000000025579538,1.00552209999688280106511,-0.184448725182275424794298,-0.152451015754966917592483,0.00353172615723783061766894,-0.000143427319409688511795201,-0.0230987972055458450071352,-0.00265898503124184330814739,0.00425501394811790903394133,0.856825203064780938078115,0.515581233481702927434753,-0.00436860564156317521256057,-0.0125266829467555323995853,9.89378723023715345163964,-0.000482141551729255331271151,-0.00423744600129634645807597,0.00312574297204211730069612,7.22891382171116081423179,-3.37003374278349898673923,4.52131710836894917804329,1099.61554082302313872788,1166.51341192760787635052,1160.52818675168418849353,1107.64442712267123170022,115.281899522765485244236,-144.859037280428793792453,94.6906415140317534451242,242.940378326205376424696,153.970395945427497963465
51.8825000000000002842171,0.992856151644334383732371,-0.142693751059752849119633,-0.0829488849520138155080318,0.00529233270531326033953023,-0.000269139883271655685256091,-0.0237993398181173612671024,-0.00270753478279275872075971,0.004255386053843230979854,0.856796355009268317814985,0.515629146900786095031322,-0.00401496243183768752871288,-0.0137645801282039736967988,9.89503447015243509099491,-0.000446204417536466676954404,-0.00424737743625977579725594,0.0033238074172570785183578,7.22892019867282442646683,-3.37002851367859967979257,4.52131831404508943705878,1100.04484690606204821961,1166.18464791756491649721,1160.57853109632515042904,1108.50800673066873969219,230.750222343822997572715,-112.30708821641411532255,-57.6028234605088087505465,394.733118850713026404264,153.968664405204265221982
51.8849999999999980104803,0.966780609663487666693982,-0.113629898109403659756111,0.013690523617974037842715,0.00696562176691821900026413,-0.000264928609401898947084408,-0.0238911972772341933690665,-0.00276861705308463273630948,0.00424902661317277680758098,0.856767152416401001069346,0.515677620161548944111018,-0.00378779999758424579248128,-0.0152585752029364973836323,9.89626269384701551246053,-0.00041009963710402316154971,-0.00426006244436531646829769,0.00353120264288249224512994,7.22892808160898070468647,-3.37002354915501056709104,4.52131984613864723598908,1100.76929193474120438623,1165.95187648652631651203,1160.24017263438190639135,1109.61809271692300171708,366.333257706850361046236,-70.3765016027413423671533,-233.955732219618226963576,456.387656642658214423136,153.966972454718614926605
51.8875000000000028421709,0.912322124949337176502695,-0.0955780564315788644380589,0.134961004803415274277967,0.00887135805375587407906046,-0.000239230732545786615311778,-0.0233192083891871557166375,-0.00283013574137512460143773,0.00422551010299838068762224,0.856749238895817777361685,0.515707373987264072745518,-0.00335298290214204597337044,-0.0170627755602464556416997,9.89726719972857971185931,-0.000371884752892024121519871,-0.00427566406048997607602935,0.00377076446448001284528218,7.22894148888059717705801,-3.37001901037475448674741,4.52132162339741583423347,1101.8765131945972370886,1165.83276540955102973385,1159.40875243522646087513,1110.78994501388319804391,567.500654258474924063194,-38.3800348085318674407063,-462.323659468202038169693,476.257430846937609203451,153.965331596607768460672
51.8900000000000005684342,0.788907098358418434891348,-0.0754268058077955244611346,0.302807477474179465026793,0.0116115875651658616296569,-0.000316319652566698287891878,-0.0224184846969970076602241,-0.00288842871883416727959992,0.00420090248358397089223359,0.856734142022466449439833,0.515732457409776468004736,-0.00284566967892589672839421,-0.0188533213324338366767563,9.89820749164411672893493,-0.000333065802047312472730645,-0.00429134580275845022023784,0.00401661014791413525232278,7.22895571175672291275305,-3.3700144834531751136808,4.52132362381628105651998,1103.60679520603503078746,1165.75997631248355901334,1157.92855433703971357318,1111.99937987115890791756,684.55899702401848117006,-28.5924472550310326823819,-594.265629601608679877245,382.343884221684106705652,153.963425619289949963786
51.8924999999999982946974,0.618571934967493852752796,-0.048771889545494960527261,0.461181763296242108740586,0.0140618104305606003018303,-0.000538080446048210003263945,-0.0217288180111965094354343,-0.00291717414717926164235973,0.00418185005958220199634434,0.856734359028987313422476,0.515732148720012828491122,-0.00186984190398263583343663,-0.0202409561532757992230458,9.89876954077702642109671,-0.000290412094905372986184539,-0.00430477893163313911351064,0.00429032814750378906770711,7.22897234232822327726353,-3.37000968114809307252244,4.521327420951720910125,1105.29930817971421674883,1165.68980317327600459976,1156.43742428722111981187,1112.70166443498987973726,699.060757296371548363823,-44.9771490146983552449456,-603.284994654596289365145,200.249742579796816244198,153.961892476518443118039
51.895000000000003126388,0.363716240183099170923953,0.00194220988388713045047496,0.638914232147735350331175,0.0161461952556719509632721,-0.000958412869735210241374512,-0.0210559934193098388655052,-0.00293449677659691652784058,0.00417016880123549042030939,0.856736081077907551950545,0.515729332040554377947217,-0.000773231599483975573505745,-0.0213800673810219804549249,9.89916873124564666852621,-0.000246394256841737534138165,-0.00431704976118050046118846,0.00456989021924934617213676,7.22898798330413061563604,-3.37000437606343261620623,4.52133289079815003930207,1107.10209899251867682324,1165.53509056740995220025,1154.91212936376518882753,1113.00062858405840415799,778.491848188479821146757,-95.2943156751156408290626,-623.193336489975536096608,39.2203311294705940781569,153.960419211790025428854
51.8975000000000008526513,-0.0388208802454618751021087,0.101901632135299763382008,0.865619564971149890730828,0.0178903388885120057105738,-0.00163254556866386361414778,-0.0199150736028897573648422,-0.00292380732648996922995455,0.00417656381997551923168643,0.856741493935678555260438,0.515720365029007865587118,0.00061962736454025668653145,-0.021909612929968881600562,9.89916868472909783349678,-0.000198992970835211967217671,-0.00432639165392802952508911,0.00486378141026121233597701,7.22900119749911684863264,-3.36999783801462182708519,4.52134246262637340407764,1109.19176742065860707953,1165.2133315949001826084,1153.32145760476964824193,1112.89776609063733303628,726.494084467527954984689,-137.125234505753837765951,-510.891728871375448761682,-103.19867093230932653114,153.958722696624050740866
51.8999999999999985789145,-0.440125973062362341181597,0.218570916949666377293582,1.0485091086173274899096,0.0185550483857735010184697,-0.00217594846006413005293223,-0.0183187579987073613507764,-0.00290997745771458260488629,0.00418901877542303489182496,0.856745301103599254943788,0.515714029763733150524274,0.00199795256023813094792274,-0.0222854382029538944376412,9.898857126595753896936,-0.000149704229540867774037732,-0.00433519832209336517664378,0.00516014144877815876533145,7.22901255725904778870472,-3.36999138904701389662932,4.52135511392132727337412,1110.73456941485301285866,1164.84946439488180658373,1152.35767071941063477425,1112.48463522939732683881,550.781309945605357825116,-151.876400137247912880412,-289.874244942790880941175,-213.049296855370045022937,153.957369447593464428792
51.9025000000000034106051,-0.873417724440480824910082,0.357382802060108084596379,1.19184290360620792625923,0.0178664038651308448857336,-0.00229353386289453137908412,-0.015630019301276172616344,-0.00289274148055313406677214,0.00420804635809560352577297,0.85674736673504270356716,0.515710548899095289065997,0.00336052141590585662367374,-0.0224945561438844310320206,9.89820771952792632930596,-9.83694075185000306330366e-05,-0.00434341180588982724020131,0.00545917965267241761528894,7.22902190569263591868321,-3.36998503669717175412757,4.52137110521599616674848,1111.94567397038804301701,1164.45394959421355451923,1151.87208638005495231482,1111.83251960635993782489,418.169288518097118867445,-150.148234636767966776461,-115.369444593611760296881,-284.70059393411236214888,153.956079539159134128568
51.9050000000000011368684,-1.29253915448936429477556,0.49422209062589556038958,1.27272185459642517280088,0.0154447582112304179768891,-0.00155646871526591797953165,-0.0118979579301682018149799,-0.00287374348180226930546399,0.00422499989857868553377873,0.856746276021236541353687,0.51571235098172241162473,0.00475035139492858970999833,-0.0226810029464441717528267,9.89711029966390043455249,-4.45219419797590631494855e-05,-0.00435407626531187849638904,0.00575170584226623610862861,7.22902869815699578026624,-3.36997905959704713296787,4.52138893612128356380708,1112.82541585744456824614,1164.09872322169758263044,1151.78082349644228088437,1111.06113225972603686387,267.690700250675661209243,-118.798160058958089280168,41.111742851481821503512,-320.657962464357012777327,153.954842049234230216825
51.9074999999999988631316,-1.63773507812771401681573,0.596125729932499792695921,1.24855292257803118793902,0.010714866603477759057772,0.000611295360168973185566177,-0.00729618864173828436670011,-0.00285387665112839424008673,0.0042409307534859389671178,0.856743628951067037746725,0.515716758022914834036499,0.00615359830984936462261459,-0.0228563255265296708107492,9.89579195751934825864282,1.05713002695320009934922e-05,-0.00436593484048977513445333,0.00604102043184717892032598,7.22903423030328085019391,-3.36997326752810266725646,4.52140767411672506170817,1113.28412747164020402124,1163.85995879391930429847,1152.07764509431217447855,1110.22922979403961107892,109.350888847019163563346,-69.1230695868499651624006,184.018564133245035918662,-361.983791071403516070859,153.953667035463467982481
51.9100000000000036948222,-1.90533611528455670836024,0.643180273223513454539102,1.08394277565677876751238,0.00319301912050157059297373,0.00426409763874825882556951,-0.00208205731781151365603066,-0.00284952138235987969400176,0.00424063530354832490809613,0.856741517021150866817436,0.5157203093515974057226,0.00740498217523621882207863,-0.0233912539752049938868161,9.89393701491737331821241,6.98928704325665743103679e-05,-0.00438417747351349095658035,0.00631157829786196770960327,7.22903944397245368236327,-3.36996804535213190234799,4.52142729538728893601274,1113.37217030167994380463,1163.7531078737631560216,1152.70091631710897672747,1109.25121330436809330422,-36.03477184590676785092,-8.75372487498232310088042,243.075250955292432308852,-342.940812912008482271631,153.952327540801348959576
51.9125000000000014210855,-1.98433075495210853311789,0.611405731164985977166282,0.845601828866008431440093,-0.00344253222503421510425348,0.00729892931216075385031372,0.00113515010087231822850928,-0.00284941217617198580547289,0.00423662885388823452076368,0.856739801415852042509869,0.515723205340442136801471,0.00860852755979246708761821,-0.0240145774993086730253466,9.89196847312824623088545,0.000130282504727274661216266,-0.00440386851699743966936929,0.00657757690782719874056372,7.22904482087130428880073,-3.36996302350297893823949,4.52144711992288073076907,1113.10395361241057798907,1163.81619016954437029199,1153.29302134908925836498,1108.5145257294786915736,-166.305275090431962325965,52.8640334765467443389753,219.796176666586490000554,-262.35944525384400094481,153.951268354001939542286
51.9149999999999991473487,-1.9216517083732824744402,0.522044311915766390264082,0.536790239896045573431138,-0.00916141995785103684102335,0.00920369493561418346161407,0.00291271036318501872972031,-0.00288202797652915235909754,0.00421231898065019521454344,0.856743977429787584298992,0.515716268624717089075205,0.0093724496273969587489816,-0.0252056764521871104478556,9.88950267755868850372281,0.000197836941366091016323778,-0.00443128236282135882367905,0.00681498111255528834367956,7.22905429936970911342087,-3.36996004896587386667761,4.52146807364450697974689,1112.54064392622854029469,1164.01742804114564933116,1153.79989720044090972806,1107.93941607810006644286,-306.593789046635322392831,111.79920064777171262449,178.040257305519702413221,-195.210423548442292940308,153.950266214987550483784
51.9175000000000039790393,-1.72368817204499746864599,0.388664976159987907156079,0.135756796095682641389857,-0.0143241918382135888232476,0.00959552859881175612688509,0.00348733573768964357289524,-0.00291677949149687486957161,0.00418844166662429677472357,0.856749789178433696079651,0.515706594327870360139343,0.0100633857821558758693925,-0.0263761177512054564853194,9.88694556293716786399273,0.000267796505558868039309495,-0.00446014316845868511590689,0.00704414692148945965205487,7.22906455987035645449623,-3.36995728285723661343809,4.52148908874870247842637,1111.57098466717661722214,1164.37518617278351484856,1154.18322263561731233494,1107.53847361173598073947,-402.687079801556592428824,140.206242368568496203807,95.3509637351056511533898,-85.7858910184875185223063,153.949127291136022677165
51.9200000000000017053026,-1.49321801504735884869035,0.283664458573872069191424,-0.18784552070662063893991,-0.0173457607164501717567084,0.00873533192575869608942352,0.00278737439957280411229057,-0.00295829823598981606069813,0.00416593496057107368080175,0.856760783919308988032526,0.51568824572608440437449,0.0105228389585093409785976,-0.0274818077410896172141364,9.88409925136777012255607,0.000345406389258266928975194,-0.00449350763970431631155744,0.00724720960281759196686124,7.22907729822485833892642,-3.36995517717545300939719,4.52151029834982942645638,1110.52720852721972732979,1164.71845925298885049415,1154.27665201911668191315,1107.51048662300740943465,-469.403142709388134790061,127.780125276174459258982,-5.76919851701474684091409,59.3034489630638788071337,153.948229720860496172463
51.9224999999999994315658,-1.23063252585234250702229,0.197710542454334448070341,-0.466177323256489306579908,-0.0195621639756552410938095,0.00799141865530873102274612,0.00108802126890095271667669,-0.00299188032740304319170854,0.00415331443366808144429525,0.85677045910023352792706,0.515672057511552872632876,0.0109407095069108672991121,-0.0282662797604966951892091,9.88116100921449991290046,0.00042724005642414249412156,-0.0045282607564789004520045,0.00743511632635230138022031,7.22908941289994011469844,-3.36995214504241591413347,4.52153183563313199044842,1109.22396895363181101857,1165.01408679916380606301,1154.15437664303226483753,1107.83499085655103044701,-638.194645343529373349156,91.8983515744442343020637,-85.4221073843763889499314,215.676125731650870420708,153.947384058140130491665
51.9250000000000042632564,-0.900178410627227920670634,0.0999930810454112417584582,-0.724782289271362234472917,-0.0216440550662086207689416,0.00833337153725486473598849,-0.00185429547384691759473463,-0.00301493889830581774519347,0.00415380238057806803336769,0.856778384624713451600542,0.51565873383946192465288,0.0113033859646620160610553,-0.0286251819876975274747899,9.87810094658185100513492,0.000514686207400821870219798,-0.0045648231609066820466114,0.00760292882346217269856625,7.22910070061394449680847,-3.36994788449122140150394,4.52155380740311940712672,1107.33623530050044792006,1165.1779510108613067132,1153.84954148219458147651,1108.58886725166621545213,-746.022506982699610489362,11.5014723358795265539811,-118.282692771193495673288,319.867791740280210888159,153.94642770520124486211
51.9275000000000019895197,-0.614837377566200715683919,0.00123505757170912677973817,-0.874229919683948697439746,-0.0230559395734600269811665,0.00956940448458256341657258,-0.00449325899128511646596351,-0.00302877190781837644234509,0.00415784073342317234134313,0.856780424207108204370797,0.515655218756982502981145,0.0116552947320510205675426,-0.0287153153733211638498624,9.87501494406414970228525,0.000606008213213201762242788,-0.00460237915679889263848024,0.00774989905152480892253086,7.22911075593131258187896,-3.36994173388103179789255,4.52157584290385816672142,1105.49385641871640473255,1165.07159416084323311225,1153.56296317917599481007,1109.43432981525324976246,-783.350341934768380269816,-99.5356662700483241223992,-93.9678748617952521726693,354.690057893326127214095,153.945678492175062501701
51.9299999999999997157829,-0.312006783949151100809871,-0.132782300785674711729456,-0.966054407410115389964744,-0.0242540825369174165015984,0.0109477593146137044954891,-0.00662932518246562522273857,-0.00303695003880244786612086,0.00416405533478485419263126,0.856778855956211060629357,0.515657715924646264937792,0.012000607992503645182758,-0.0286407569710309672927906,9.8719130418217879707754,0.000699708524845197524927309,-0.00464053723055040268780091,0.00788409483077647313398195,7.22912005584171879490896,-3.36993442474470183967128,4.52159791746884831553643,1103.41948359083016839577,1164.68027267951151770831,1153.37970210788603253604,1110.36231754113123315619,-852.463226302707425929839,-194.862386401964954529831,-36.2094614841950104278112,362.903657688817361304245,153.944977931535873949542
51.9325000000000045474735,0.0130927370610547742085794,-0.292589981088280770560317,-1.02300341633578395494908,-0.0252842426431463436486968,0.0117331200203698460954316,-0.00850528095617013486784419,-0.00304655303617675822513977,0.00415807783012271236361412,0.856767173780948687600301,0.515677111845767699449539,0.0122523302553248364388239,-0.0286318213873442278805115,9.86890313076325398355948,0.000794472160006353604437546,-0.00467907528516118761952036,0.00799450267559701291397722,7.22912815379851281250012,-3.3699248863226172190366,4.52162055878028290578641,1101.23154028720068708935,1164.09728222883290982281,1153.38191587175492713868,1111.24884810369826482201,-874.81792436556850134366,-254.058215793072207588921,63.5524974161073714640224,323.414818987128512617346,153.944317182585365344494
51.9350000000000022737368,0.368650224562995232346907,-0.458066024921090886312669,-1.04925225287591272760324,-0.0257591873974635857114102,0.0109865662076064785762641,-0.0104635108475699973445971,-0.00305648963018596755286671,0.00414923960416131026862629,0.856753118851558581603456,0.515700472268688092647437,0.0124821204160073528921515,-0.028638115621174208003108,9.86591481771140621503946,0.00088948806720572960726745,-0.00471769799075233767227111,0.00809932898742754536769439,7.22913596968394323027951,-3.36991482495820804388131,4.52164333295181020133668,1099.04539396900008796365,1163.40998160054550680798,1153.69746459496673196554,1111.97939163606770307524,-921.387711047574498479662,-285.856277273101909486286,218.788314660531597155568,268.623623398133190676162,153.943703788110269670142
51.9375,0.819024520032538116964815,-0.61762461972168747337264,-1.04967890161311627750251,-0.025058869876766292489334,0.00823007913618081787809899,-0.0128354686495301770904343,-0.00305811246858384748817383,0.00412176653632977552793593,0.856728614182785341846227,0.515741412355881889695297,0.0127838853301151800234692,-0.028687420076730668627718,9.86316385500190406787624,0.000982453782401657019565655,-0.00475507816682681650616304,0.00818175180163346893458254,7.22914125334401802547291,-3.36990323881639808334398,4.52166525311734091019389,1096.62460173196700452536,1162.66800084246870028437,1154.47585744505659022252,1112.59196622068770921032,-827.014691354613205476198,-231.969151874211064523479,342.807991022339422215737,176.061347968358006710332,153.943021421164871753717
51.9399999999999977262632,1.19291286214203129389944,-0.690883614880264951274569,-1.01977552641476787442798,-0.0231235764304637166077772,0.00517782257516246745970845,-0.014853524337366239005398,-0.00305739929370679643788611,0.00409262867493777413724354,0.856704509567346672582744,0.515781714658076206880821,0.0130906147314267598535942,-0.0287081008089474544464625,9.86047307550518503660442,0.0010749749918287042609738,-0.00479171153988459334188699,0.00826160128202088964166627,7.22914688304259733797608,-3.36989174156656368097629,4.52168678298546922178502,1094.91032051223078269686,1162.2501358411755063571,1155.41150455007687014586,1112.85969837590869246924,-599.51674041359433431353,-108.738380411513233525511,405.100524697874902813055,58.4454438681106012154487,153.942496625254534592386
51.9425000000000025579538,1.52942248312422113265541,-0.690983847940296880274502,-0.944807775328952215154743,-0.0197926549520187622377421,0.00240003828831593640086295,-0.017113640484931753882325,-0.00304673475101669951128902,0.00405639882771205873696063,0.856682109170766037387068,0.515819300009479397850498,0.0134189818517774367423456,-0.0286078471976688106237496,9.85803865640109222567844,0.00116556685479126884152912,-0.00482519585909375794269272,0.008330512665890851126127,7.22915398685799104327998,-3.36988062299469248728201,4.52170665019480466639834,1093.62701802989749921835,1162.12430894041085593926,1156.50136006854700099211,1112.88419344002841171459,-452.714532196291997934168,5.25249502338469564932666,464.88402328658457918209,-38.1776839964718632813856,153.942016069840235559241
51.9450000000000002842171,1.84430489446671685982437,-0.621160054528676286444977,-0.781149059200720863316292,-0.0142581780320852752330651,-7.28302635359078778722747e-05,-0.019979396640263932111159,-0.0030339183161483922190893,0.00401914589852591427193707,0.856663528414607022831717,0.515850549205606800917678,0.0136887973615565372575986,-0.0284473042661205002823444,9.85573645502120854189343,0.00125643595283522042059532,-0.00485595813394140620594674,0.00839770350249650562868275,7.22916306984852408135112,-3.36987019001278698127066,4.52172518483755592200168,1092.64674785124816480675,1162.27639831629244326905,1157.73592466651098220609,1112.66880995592623548873,-266.426370711830202253623,83.5590013320903040039411,399.256779735423378951964,-113.720231352011722947282,153.941488855611510189192
51.9474999999999980104803,2.00351928824933622763638,-0.526748620921914212367199,-0.569183703507892602146967,-0.00851448312724341870028066,-0.00129040940001601375959617,-0.0223943505792738618842552,-0.00301759328373267044290373,0.00398022486398866368745297,0.856651175470952153112592,0.515871467485025325672154,0.0138633564251524968313767,-0.0281886677411758365674466,9.85364984130904630887926,0.00134774701748184284715026,-0.00488229213421476591905357,0.00846209643572011505074926,7.22917537982650060257583,-3.36986087486535978996471,4.52174154676928896634536,1092.29488617633955982456,1162.54210394707092746103,1158.49764396722230230807,1112.31559228326887023286,-51.7718679462367390442523,93.9344380091344248739915,205.318150690695347293513,-171.949413903169698869533,153.941089338743381631502
51.9500000000000028421709,2.03553974150236971496497,-0.423564820647417961119174,-0.271093988451969414299469,-0.00219850715465513477098192,-0.00163473302053094866198579,-0.0247243200556680822743694,-0.00300810249682933496251369,0.00394735234122817191249055,0.856643788275728290670941,0.515884028512272219124668,0.0137025826048223220432476,-0.0278338065380395356662735,9.85175230194895057422855,0.00144167555549510012329051,-0.00490330797674920059597836,0.00852774232670014051271856,7.22919007839316130059615,-3.36985386878831505441667,4.52175813514882030119679,1092.38788851151684866636,1162.74607050633835569897,1158.76251541996498417575,1111.80906288640994716843,103.270897455506116102697,37.8602320173547042259088,2.288652031301091849258,-225.83879383039217714213,153.940729342910827881497
51.9525000000000005684342,1.96347618641881527246085,-0.329073628156181796633462,0.0911675335326258551305045,0.00393704381031073028657241,-0.00155507133083449097972484,-0.0266749755553362076498924,-0.00300376305148108242379368,0.00391903890988551037444232,0.856640144034455541799389,0.515890290225231917808912,0.0132891143302764080935674,-0.0274064112217763736212284,9.84999731805141109930446,0.00153757513595497276662205,-0.00492031896265721427341511,0.00859433404852702996501446,7.22920657736867955378557,-3.3698486031828687181644,4.52177489421433964622565,1092.81124066361735458486,1162.73140510715779782913,1158.50908722737881362264,1111.1863983141163316759,240.521731629669858421039,-92.2797130779074734618916,-230.462948501172348869659,-274.659990372969957661553,153.940400654067843788653
51.9549999999999982946974,1.78890331492955012571144,-0.250921709268480008780955,0.498904702496807350708963,0.00900729826016499757201927,-0.00145258580194611340921651,-0.0273058358157587111048059,-0.00300586842218522262704106,0.00391268145357682485541151,0.856634805426421341856269,0.515899151170858716319856,0.0123390608799606033008089,-0.0266189450575853511771207,9.84845324909668207169489,0.0016376820302986606122525,-0.00493067294385989788457758,0.00866505212898223062256697,7.22922149402311120525155,-3.36984461613330399387678,4.52179543067494460473199,1093.59049716966410414898,1162.2846719409492379782,1157.61020067746017048194,1110.43576293454634651425,416.225781704375435765542,-322.303708074349458456709,-520.520773408686409311485,-352.812883419530010087328,153.940108081262650330245
51.957500000000003126388,1.50848299075447522810123,-0.166397853666729489408027,0.970085810139982740452069,0.0130809009384473765719159,-0.0017067648283004559391085,-0.0252649346608953238868533,-0.00301000620304895261797329,0.00391324794146759216001419,0.856628932489991612442282,0.515908831799597678013924,0.0112198042830233268851714,-0.0257179901086818027411418,9.84697566443125715807128,0.00173911403432848964134561,-0.00493892335778993007283644,0.00873707445840239335654864,7.22923591168340085033606,-3.36984103228375930783045,4.52181715835902053868267,1094.89236957214029644092,1161.11988656678522602306,1155.90648336033405030321,1109.42233389701777923619,532.057238787320557094063,-534.282690465215182484826,-694.70080989027269424696,-380.966966844594651320222,153.93979730832302266208
51.9600000000000008526513,1.25057659771885898436494,-0.0890153052617534829016321,1.28590354042174692672518,0.0150451502061280661948217,-0.00235446744282516136695382,-0.0210222713625156341910039,-0.00299966367529039875522434,0.00393701634283563639549186,0.85661982845024819965829,0.515923803830353966404232,0.00987832186126894051803049,-0.0242461467692950544128294,9.84568686527661185436955,0.00184135017741154927151115,-0.00494211786333299818441134,0.00881519868836004930057193,7.22924444994220216642589,-3.36983401476447674838255,4.52183981731965545236562,1096.2507833636020677659,1159.61325848862179554999,1154.13669662800703008543,1108.53092810032239867724,589.435558404319976943952,-694.437555276721923291916,-732.287158389937985703,-351.902148033152002426505,153.939571447005931759122
51.9624999999999985789145,0.992879647300831669198828,0.0125826454572142421017844,1.46114885038182529264361,0.0166127070383825931054744,-0.00336111434587475083057839,-0.0153770032459018372861248,-0.00298635718235316970428639,0.00396313980990935059434133,0.8566107030468342875551,0.515938817220295109500228,0.00852383660789146624381374,-0.0227031847972489209119829,9.8444222446418692129555,0.00194246718505300028888294,-0.00494484793835658301836,0.00889463156316208300444792,7.22925188933412421476987,-3.36982603609208508643746,4.52186220724784959656972,1097.83954736415921615844,1157.64769879040477462695,1152.24504756838769026217,1107.6628231568536193663,731.999084372535662623704,-919.705204732447441529075,-811.66216238711376718129,-361.105833195912850897002,153.939380069115657079237
51.9650000000000034106051,0.687519267159155900159817,0.168814210316971802239294,1.47962197687395091705298,0.018656954624099570533291,-0.00445608642828765159904503,-0.00872973149873198205062064,-0.0029595342358665456886091,0.00399625562509910506325816,0.856602481985305974632183,0.515952388656951810297357,0.00716122301058681742791379,-0.0209063723411658519690803,9.84324597208629015199222,0.00203647695263590956457622,-0.00494642814642443345157785,0.00898011522602864403763689,7.22925448130567005478042,-3.36981326998294150598667,4.5218826508490188587075,1099.91077878546661850123,1155.01473246495720559324,1150.07838581606938532786,1106.72539893434191071719,765.420867152597111271461,-957.34158627511669692467,-753.438946880693265484297,-318.967317546794731697446,153.939191271076424527564
51.9675000000000011368684,0.429184309640103789362797,0.317592325349091431085924,1.34447147746288719893926,0.0201722650973231686089004,-0.00456454711947895230145233,-0.00423218254738149009253068,-0.00293349148013949748148299,0.00402772724397737914153739,0.8565953384969126060966,0.515964183938243947658009,0.00576397212324589180987289,-0.0191572870026220018480068,9.84206953305001874809932,0.0021249760318742074750864,-0.00494808146913917543119332,0.00906788817250027932848067,7.22925642000964341349345,-3.36979962775513497419411,4.5219024792877320351181,1101.66665169992415940214,1152.86099085902674232784,1148.47785283398229694285,1106.06798656911882972054,676.409599222757947245555,-776.756185041746675778995,-583.71123423201765945123,-235.222653562173235286537,153.939069278368606319418
51.9699999999999988631316,0.157198816779899303019974,0.458510207108306866441438,1.09022062190380286672564,0.0211743670371399642093913,-0.0033292713365847691371624,-0.00125911744765494276396267,-0.0029090299836353073620332,0.00405586647196289236394495,0.856590378990368495060181,0.515972379379346923755634,0.00429666081747155648162817,-0.0175045995011078522884951,9.84089299492356239795754,0.00220230428094944337760741,-0.00494990637624882854478381,0.00916030302857537975791402,7.22925703469720026816958,-3.36978420984529591919454,4.52192106093994450333184,1103.29282678157733244007,1151.13095153975200446439,1147.15982964491195161827,1105.5492856665321141918,603.281255895317940485256,-563.9065045302529597393,-477.20313298489742237507,-188.076683028879614312245,153.938986186666056710237
51.9725000000000036948222,-0.130440467690697198266392,0.569551556203271247547093,0.773119513585288853363409,0.0217249762908642736480846,-0.0013376645258470663216871,0.000576493626865851732654633,-0.00290493993523930531600041,0.0040818671241733394533524,0.856589405440604689800921,0.515973853223887557462035,0.00249848375679195822129941,-0.0161324110962895658771821,9.83966405838043556286721,0.00226882993182654776539997,-0.00495080088730336011909605,0.00925516715432884995440332,7.22926073697015603158889,-3.3697703518556667567907,4.52194172728210119771575,1104.68305797940229240339,1150.04145833637403484317,1146.09183716905658911855,1105.12760315397395061154,471.755144284620314465428,-225.228490370112297114247,-366.229951495319255627692,-153.605954566513531744931,153.938937487383128654983
51.9750000000000014210855,-0.435876455372849747060826,0.624280094810790942005951,0.421068128941601171888465,0.0216352870592294750651252,0.00103524822684161071396913,0.00137330540567473188308389,-0.00291962181414395739384449,0.0041058971168231039872154,0.856592104879157933972067,0.515969133236681920529065,0.000395586776898618208697656,-0.0150185601016113307037969,9.83838676013552237975546,0.00232539212854696725196746,-0.00495084639386420694018298,0.00935229370288277218892237,7.22926728439817267712897,-3.36975793130478251669047,4.52196431462898296160802,1105.65160250300164079817,1150.00480908790086687077,1145.32867988743441856059,1104.78125589369915360294,303.94094181884059935328,262.558372590831424986391,-264.10107126522609632957,-145.667148530943137529903,153.938933004953298677719
51.9774999999999991473487,-0.810557755857217454575903,0.615680905417183677030835,0.000475261715091469805205548,0.0205006933694547623103777,0.00379725307095091571540912,0.00148121027535905820313178,-0.00295243963178342143025001,0.00412956215171282180892431,0.856598473575579388850088,0.51595820380964918516753,-0.00194454526532179816644685,-0.0141751879576225148227309,9.83697998589405919744877,0.00236766635828061181717752,-0.00494617939826072841591476,0.0094500167448072595888231,7.22927793681856467600255,-3.3697475146942492685298,4.52198913385115464080855,1106.20276268849511325243,1151.35425019932699797209,1144.77133181273165973835,1104.39926741131989729183,92.2071230695093078111313,717.338540669740268640453,-143.336479094404580791888,-139.090557418987145865685,153.93898176034869607065
51.9800000000000039790393,-1.11227073473350879240229,0.552348081394123613385716,-0.324839986146212622575291,0.0186388355166634510362567,0.00557964360933318678781312,0.000972830228914799599766738,-0.0029926479436281558377253,0.00415307846431972865069993,0.856606337514646209996272,0.515944744001932464882998,-0.0043811196765137505604315,-0.0134419224290203767613328,9.83552019787794939986725,0.00240410545955558902636584,-0.00493959521517670953338897,0.00954798727580487803512366,7.22929026204579638914538,-3.36973791470036676543032,4.52201486257471163554555,1106.11263811834942316636,1153.59150179125140311953,1144.61199749196202901658,1104.08580310660386203381,-147.063058041446566903687,1071.6143209951471817476,-0.997125588173220500642913,-124.295968682627133716778,153.939069202216586518261
51.9825000000000017053026,-1.37454032204681286799541,0.447560742226270125154741,-0.600705339526818926643159,0.015651629678510806803482,0.00660699698861638099606219,-0.000218812078349044108636565,-0.00302069890667123683303252,0.00418306823151400400395694,0.856612309089793244609723,0.515934425733904911126615,-0.00649949586071212059845692,-0.0126185867148501662526883,9.83384568111463153172735,0.00242341983525579812708273,-0.00492298782088922484700966,0.00964368784440270722380095,7.22930234394426207700235,-3.36972551702366907022679,4.5220407099497172964675,1105.46744739828750425659,1156.71232180430547487049,1144.76634618479079108511,1103.77778756790644365537,-394.028420053740774164908,1473.32309953815024528012,131.758789559927890877589,-128.515749146780336786833,153.939206666653404909084
51.9849999999999994315658,-1.60636304955999986709969,0.295743542312130902605105,-0.849905230697274971518596,0.0104313328346944383245853,0.00730984443920283406131988,-0.00265331439191048359949043,-0.00304434729752828172472112,0.00421304287919092856906644,0.856616980292557950171783,0.515926289571789098431509,-0.00849690666184350906764422,-0.0117849416944624252323592,9.83212338049812473173006,0.00243911698451649118848938,-0.00490416758579201219475641,0.00973870809180023104534296,7.2293140573556140537903,-3.36971229627470014733603,4.52206631092364297330732,1104.1424960180825110001,1160.95811728893545478059,1145.27079143976106934133,1103.44322436087054484233,-556.592962135561606373813,1550.77790855036960238067,223.764245821325062024698,-111.5074299321234150284,153.939430363299777582142
51.9875000000000042632564,-1.70871055450440434420045,0.160106480048852889419564,-0.973717471185565064395462,0.00507325119647487107060746,0.00759098005608396103616187,-0.00562367841966663912361968,-0.00303727281281450205152606,0.00423568499042876328575247,0.856610692905864001822636,0.515936580281614154408487,-0.00963508716293461076052296,-0.0109476796812155094396068,9.83016189854914834711508,0.00243760149399844519221836,-0.00487427814902077413683479,0.00982940040647428160680565,7.22932234051311795042238,-3.36969391398054352038116,4.52208930604356851290504,1102.68448258760827229708,1164.46621134706128941616,1145.88516741389798880846,1103.22025041824554136838,-625.545812038170083724253,1292.98032922981542469643,259.942624234194056498382,-73.21668640371063929706,153.939665890344826948422
51.9900000000000019895197,-1.70928535022432681600435,0.0249435148960898203651659,-1.00093899883686754392897,-0.000379976599117308358292966,0.00743396151336182635371852,-0.00933680056663286836449167,-0.003029028759763607078076,0.0042509770330773875846031,0.856599852773396785998727,0.515954493089091359436793,-0.0105765674560021338823645,-0.010289296987445406550421,9.82812779894773669298047,0.00243121167977019842637576,-0.00484180619669583034436755,0.00991816194941246703775661,7.22933001028040056468171,-3.36967526015788232385262,4.52211216945169791614489,1101.01476695789006043924,1167.42301893508783905418,1146.57050456093270440761,1103.07714092885180434678,-743.739192827655415385379,1078.99748776601791178109,284.164508001671663350862,-44.1920451229581843222149,153.939951998655743636846
51.9924999999999997157829,-1.61286500239072783102756,-0.131998645075585507857596,-0.933514339961079575580527,-0.00624824920752693573067216,0.00721710325769540743390262,-0.0135896625022366834140142,-0.00301778636347543914933422,0.00424742620203662733791017,0.856577341074534537312957,0.515991946152767555489049,-0.0110138982684548913937306,-0.0100890600130701252323817,9.82590772716295290933886,0.00241233161175760874375684,-0.00480273341960744341166967,0.0100019800869744178439813,7.22933610754066080517077,-3.36965591023595845143745,4.52213469519920341355146,1098.96578662347337740357,1169.86119878588647225115,1147.30598995390505479008,1102.99929019263095142378,-729.663303623228443939297,669.733744641346902426449,236.122292928591548388795,-15.5965528764147407514429,153.940352628129232925858
51.9950000000000045474735,-1.48271872959382644552306,-0.257980224916948219782142,-0.820594101884755233733415,-0.0100010818054861051057403,0.00727000536918612997455691,-0.0161108595742256582861174,-0.00300896999711815823358441,0.00422972121862684718313075,0.856551140363353002982194,0.516035618473736801270491,-0.0111600975951740705172099,-0.0102714681487616893429404,9.82358462482483574262915,0.00238868595876074894454599,-0.00476182788790894748198745,0.0100810199530951098700893,7.22934186902284636744298,-3.36963845113534921082987,4.52215776422743687135153,1097.3664504397720520501,1170.77168765829628682695,1147.75111602557626611087,1102.99915816446969074605,-585.878553264201855199644,127.842327258693416069946,135.641507850390269140917,9.01231643696967665846387,153.940733037758008094897
51.9975000000000022737368,-1.34584881858604465953988,-0.374741022424198710893961,-0.694277278111188556053435,-0.0121287394229792344635399,0.00701685581184927683467967,-0.0172206364309129417167199,-0.00300288215236351688913752,0.00419609725993436329105624,0.856520790672112841690478,0.516086285505554354102742,-0.0109788515885114734693673,-0.0108839511949183759265125,9.82114560128682256845423,0.00235968047090152075254132,-0.00471886969998349184440833,0.0101546905842432692856914,7.22934725286017965117935,-3.36962311861477115115804,4.52218144427583368383239,1096.03639385715086973505,1170.50041042218026632327,1147.98419749315735316486,1103.04435177481582286418,-469.761149189180059693172,-275.846827988312611523725,66.467899013029153820753,23.6358547377436813974327,153.941160130775188008556
52,-1.23029630533219980215165,-0.474247796831293255692685,-0.589865712554682897206249,-0.0133328655864571824635201,0.00592861858197957659194488,-0.0173346911166456403574632,-0.00299162966707624058959603,0.0041554283706965108868836,0.856495057043671237373417,0.516129374057943013376359,-0.0103816224796334788393892,-0.011725991871638100083608,9.81861138439432323821165,0.00233230788497341143608588,-0.00467713394359231451197223,0.0102185564903867105723823,7.22935362915630186364524,-3.36961190784410646870128,4.52220504042563220536977,1095.01764469382828792732,1169.39245351835597830359,1148.0834555206411096151,1103.11733743815830166568,-323.008325818566845555324,-583.229189595870820994605,32.9015886190817568035527,37.4078858821007145252224,153.941624588508233273387
52.0024999999999977262632,-1.14930344394687411480049,-0.538172318478578715073013,-0.535591950916846970542906,-0.0144472252670106490052282,0.00408070671452788382577159,-0.0168247815658632803026418,-0.00297772493624630157568745,0.00411114163322328935584737,0.856471693944582779245422,0.516168570763811396240328,-0.00957092261130285115733329,-0.0126856675916281191884849,9.81602817221783929824142,0.0023057756234085352228802,-0.00463603107960778269835966,0.0102773921895253361746825,7.22936051511895083621084,-3.36960281375373416068442,4.52222859349021000241464,1094.42135222805950434122,1167.58426447420356453222,1148.14870543625261234411,1103.23139120422615633288,-171.842750156887035473119,-865.559948278599335935724,64.1261608572348649204287,67.5769494328160220675272,153.942132318383357869607
52.0050000000000025579538,-1.06831281021160284794291,-0.562298798619801143416908,-0.526389611105796295653647,-0.0165864608709905062000622,0.0017944455503514158967171,-0.0166678138207333667586418,-0.00295576024803817505315351,0.00408081102843027045123936,0.85646345857442673921156,0.516182610737652813881482,-0.0084852577288709596370353,-0.0135140705777003558574201,9.81341473815926867985127,0.00229301963276572380590057,-0.00460092083378195806919742,0.0103184383458130336796987,7.22937089444697722484534,-3.36959963022869235516055,4.52225478410565884246353,1094.15843094304341320822,1165.06465377696076757275,1148.40408632492744800402,1103.45522218532255465107,-40.198900769544152922208,-920.835590574672096408904,152.957608677446813771894,106.065465393240032199174,153.942789115987295645027
52.0075000000000002842171,-0.978618906188875925522552,-0.538742333505730863763006,-0.540764678742075122208632,-0.0194308256863361152044778,0.000114791983055872754554416,-0.0178730224973679581446095,-0.00293262944587084802006149,0.00405354143792167800203208,0.856458189882885911892174,0.516191712296396154613376,-0.00735271641446462453917121,-0.0143184792223680634748462,9.81080022395684103742042,0.00228373468840014715378062,-0.0045673410259362131821681,0.0103552448932697285788329,7.22938190050466644720473,-3.36959757890118050127626,4.52228160807205625815186,1094.22035772421168076107,1162.9800865213278484589,1148.9134934796402376378,1103.76171853119262777909,47.5364763017728719773913,-777.110847248720460811455,286.294341888275369001349,161.153249590062074503294,153.943374076425612884123
52.0099999999999980104803,-0.819320604861127232965146,-0.477995029232586909895275,-0.53636786845705819448682,-0.0231209634387989568238275,-0.00125993165396018846034776,-0.0204783680585973251742082,-0.00291532747128291514632226,0.0040406765428454873012587,0.856460274709763824674269,0.516188468606803008142947,-0.00624586204760251006984362,-0.01510263238862052936895,9.80828761623025968674483,0.00229916077067100765862762,-0.00454500780514122907499663,0.0103657016614431222306658,7.22939323265896582881851,-3.36959776778946284991889,4.52231244418060018830374,1094.39611332455206138548,1161.17909954072069922404,1149.83555803436752285052,1104.2609884332721321698,56.0875495138756861024376,-695.519371001372519458528,496.607127608850248634553,278.412807798389053459687,153.943995567597966100948
52.0125000000000028421709,-0.51422536932390661146286,-0.377104912993852459113242,-0.474213082523609941176801,-0.0271828240181967648037009,-0.00250705098534515684674528,-0.0236803245539330166347103,-0.00290351650204733954807601,0.00402755516438244292459769,0.856460595257336643193469,0.516188121347242900860408,-0.00520562468154825430666222,-0.015971444961486017111163,9.80583694384620940809327,0.00232078663270732102677507,-0.00452622320894992009182589,0.0103688730891775167386459,7.22940384076641517907547,-3.36959740954845488047908,4.52234382239664078895203,1094.50079547178120265016,1159.50248966631920666259,1151.39652911768575904716,1105.15378257018528529443,-10.7526874840404627065027,-530.523571753975943465775,625.219504611275965544337,381.610281638072933674266,153.944780414817216751544
52.0150000000000005684342,-0.164268240060238629451916,-0.281912320669657212590664,-0.369014604906345411450275,-0.0293096915130372677460446,-0.00309624750034719758984281,-0.025587574243366450338355,-0.00291000171248590117425992,0.00401357917627558416495681,0.856455037178119882312899,0.516197425071591498024759,-0.00438666846562418832888852,-0.0171222604011573090176945,9.80359284640883998918071,0.00236306636841121910433405,-0.00451925984489631293178347,0.0103477729505746032789837,7.22941203632999673800441,-3.3695952282577232850258,4.52237700692965471915841,1094.34234988713183156506,1158.5264816819494626543,1152.96165555742550168361,1106.16903984146347283968,-140.569054500284039477265,-316.614854621699691961112,637.456956627818271954311,458.09540610190026654891,153.945464349325249031608
52.0174999999999982946974,0.260189135547768013445591,-0.188074547357107074718741,-0.221012349438409277935236,-0.0296338584341729396887111,-0.00325986554183976774343168,-0.0264132411365714803164195,-0.00291971633655300219847839,0.00399488389075739434852519,0.856443198408169070745544,0.516217162760956416178715,-0.00358628771330667117656077,-0.0184007885841065560450502,9.80153179051181133729642,0.00241380539089280574116536,-0.00451917192542431248036827,0.0103138751297154537822642,7.22941790361615588267341,-3.36959037335595290585388,4.52240916292563532863369,1093.79795019928042165702,1157.91941539321214804659,1154.58381390082195139257,1107.44425960069270331587,-289.099010783763674226066,-200.250574366225322364699,620.885525647009444583091,539.973700207880256130011,153.94617530163009178068
52.020000000000003126388,0.716236497348694434172955,-0.101317176440828590755494,-0.0540004822918431215406088,-0.0283666533814207373620508,-0.00318467789356258581048853,-0.0263981501255908974912234,-0.00293387447639639146329538,0.0039696950819831646958824,0.856422717713840486730703,0.516251257077713465726276,-0.00281136912111883130460654,-0.0198549956390033574549214,9.79972256558008858462472,0.00247618537027890096152705,-0.00452853643597889588684469,0.0102623672428023490765803,7.22942056730604321046485,-3.36958183969568203508516,4.52243990370477888518508,1092.89685483321227366105,1157.52522881011782374117,1156.06608318566213711165,1108.86890834250425541541,-436.94391920485418268072,-132.577794131635016583459,516.485049252477892878233,578.151385103205711857299,153.946904899160045943063
52.0225000000000008526513,1.17136940052684446200715,-0.0241153847719153165141126,0.117629699036506205067631,-0.0254802051491905996727372,-0.00308503541150579110863283,-0.0258059712482607284123048,-0.00294361597702689657338193,0.00393883595183264385852784,0.856396488271272016135072,0.51629495609034359304701,-0.00199220098857223748556322,-0.0213422165398138782843596,9.79826945958694928151544,0.00254437411790168870051598,-0.00454621322991937901192294,0.0101962416233879124560779,7.22942166743029979159019,-3.36956893490263231782933,4.52246795143163815566822,1091.613230603255033202,1157.25652642255363389268,1157.16623914708566189802,1110.33501652621021094092,-615.991074942272462067194,-120.786231906750600728628,351.435215753373483948963,609.166327403371838045132,153.947651492783080584559
52.0249999999999985789145,1.67384759233573898740133,0.0624841865454838496507506,0.313939790994047673855505,-0.0211329619804032538266103,-0.00320481523341426769585505,-0.02501081055200325697907,-0.00295054473828723108630445,0.00390436567406326606038958,0.856366597734888768123085,0.516344771859384765733125,-0.00114475764816419911529266,-0.0228503411242265280778341,9.79704305555064536292775,0.00261626299347899118896699,-0.00456916933211754666688265,0.0101208020947938705930147,7.22942177179683387322484,-3.36955324635101094443712,4.52249428408651077404556,1089.81689945850371259439,1156.92129765058461998706,1157.82325926442740637867,1111.91473997951834462583,-658.519294572970125045686,-142.380477798333146211007,109.039368503580291758226,515.417590585602852115699,153.948558767152917425847
52.0275000000000034106051,2.03075893205736335289657,0.133889594774155823442285,0.463099329042155893887411,-0.0170372364923786073775958,-0.00337206333841878411194948,-0.0242697977239053723497175,-0.00294524067026425990373228,0.00387819786408811172095934,0.856341120115706733173511,0.516387269656854552835057,-0.000361939840754998964911238,-0.0240305792225467482192691,9.79637310796627680531401,0.00268917378777738238712636,-0.0045977449182743662312034,0.010033675917052170892263,7.2294239720244855007536,-3.36953420822156335390218,4.52251700098787612347451,1088.32063413038849830627,1156.54462403356160393741,1157.71143598960384224483,1112.91210447913954340038,-537.512068087514876424393,-180.527271462914058020033,-190.814600757078238757458,300.951432703623765974044,153.949317386991793910056
52.0300000000000011368684,2.29257534045436717207167,0.205046022519438819742277,0.589390500345264745085672,-0.0121045548889835291594963,-0.00318653747256603852092138,-0.023265689007536963228695,-0.00293689699962600744148622,0.00385409304397715552631398,0.856316739014293171194936,0.516427949091211924148581,0.00040491005739663743501211,-0.0251292644208020443663543,9.79584136131451543860749,0.00276233699936074281536258,-0.00462770312467873819184394,0.00994363991220178176921873,7.22942669302985585488841,-3.36951433779197495610447,4.52253881945000291153747,1087.12933911806476316997,1156.01866129326958798629,1156.86918626064152704203,1113.41949714303723339981,-387.600654410459924292809,-260.549082866883111364587,-526.268679918736097533838,93.0966154650314763330243,153.950069387719906899292
52.0324999999999988631316,2.45527104526737360856714,0.284310612813830299039353,0.700704271141524115407151,-0.00487057192933709921789376,-0.0023673792543100484649099,-0.0217429436755969367200958,-0.00294207770997533630749632,0.00385037555881239095673108,0.856305514265800704620801,0.516446551663365061024535,0.000446758057246643414117671,-0.025911599329702959815247,9.79606159253853370216802,0.00283480407129025214346685,-0.00465706820611228033968132,0.00984766181220624557679511,7.22943622291975884763815,-3.36949688197093610853017,4.5225599270108407523594,1086.38263085833796139923,1155.24187861922837328166,1155.0800925900125548651,1113.37758755646427744068,-126.473997657129856975189,-294.924097909765009717376,-759.728539192312950945052,-121.055051667082722133273,153.950952141221904412305
52.0350000000000036948222,2.43470339272240732242381,0.340118638625557911936426,0.745904647693050759649225,0.00228305801249568778021892,-0.00138094103619549311325054,-0.0200517179979165689751586,-0.00295037876384158853290685,0.00385339486283208312866755,0.856297166363672812572361,0.516460307925449280119778,0.000305779043633727654061261,-0.0265892131690622680884051,9.79642816288939322078022,0.00290779588105137326223271,-0.00468524229844106444853313,0.00975169396731264022382124,7.22944692907157726580181,-3.36948086123727863494537,4.5225817941354957696376,1086.49696912977879037498,1154.54404080372000862553,1153.07054356467801881081,1112.81422188470151013462,210.860770056643929137863,-264.43275522497174279124,-864.740924301043946798018,-317.722130292460235523322,153.951662367488410154692
52.0375000000000014210855,2.23016211661778518404731,0.382103900417354758189958,0.722324554068631385916888,0.0101058411219760741622808,-0.000322521137966432804283085,-0.0177533337931385232222325,-0.00297223845925746396612332,0.00388604827349132856198488,0.856301290878821785845787,0.51645304972971550760974,-0.000632723809083621246962537,-0.0268060988195448351989469,9.79742581521544764200371,0.00298318256638977537947843,-0.0047080932776722358990007,0.00965602270397645026656086,7.22946267625342819940215,-3.36947123226612754720577,4.52260712580975265950656,1087.43693470862172034685,1153.91971484310283813102,1150.75638796850512335368,1111.78897690500116368639,498.324982785560052889196,-216.516495042984871588487,-935.123443303277895211068,-468.161111199850154207525,153.952336455819590810279
52.0399999999999991473487,1.8783938226930503301304,0.413021567281713408714694,0.629948280575193364505537,0.0175101201020747172798497,0.000741228451995782516327493,-0.0149708155739984635074213,-0.00299218818925401979988421,0.00393122654297347294549692,0.856307064544642781989126,0.516442960309853704714556,-0.00179101128724408475978436,-0.0267496186283602138678006,9.79869396046833429636536,0.00306089161553732688400564,-0.00472806807905933480090654,0.00956255403251873338510425,7.22947815547015260051467,-3.36946312583198492873748,4.52263419356885787436795,1088.98859404370432457654,1153.46145832850606893771,1148.39492634816588179092,1110.47341632870438843383,724.885933708257880425663,-121.729171547969173161619,-907.636312700505641259952,-572.43403217651393788401,153.952974387845841874878
52.0425000000000039790393,1.39112553419861240122657,0.433434474511763256909802,0.453453854749547691227463,0.0230141264327096521646876,0.00178583567572590724316373,-0.0119330929511908042511825,-0.00300890125998338944096622,0.00399762964719359032567114,0.856315632888708488934526,0.516428073050345437522424,-0.00332176398080823165326336,-0.0262297285212616491933968,9.80042042175795202751942,0.00314252968902792653715927,-0.00474317236332549591742991,0.0094728139148167900956965,7.2294931805887010511924,-3.36945759951445822366622,4.5226642033263164677237,1091.06136437716486398131,1153.31106898536268090538,1146.21820640500027366215,1108.9268067441171297105,956.475165833227947587147,19.3019820269811539503735,-862.869127283570037434401,-704.501805477688094470068,153.95356260311339724467
52.0450000000000017053026,0.742941974679224403921296,0.450747153934728972402013,0.172115482395747754207349,0.0263187316145615489426657,0.00291652561662184787311114,-0.00918070057294209304621369,-0.00300402038078266628989832,0.00406726569028338993949667,0.856320927448148472294065,0.516418705472849293158788,-0.00469640259176058727508263,-0.0253770493432211793893849,9.80250173204888319844486,0.00322610581056749804937378,-0.00475581921939000670102038,0.00939104678905826675827662,7.22950430075990979617018,-3.36945069274124220370936,4.52269345682593737478783,1093.77096987287291085522,1153.55796823864102407242,1144.08058071174582437379,1106.95090730131414602511,971.696888493553842636175,158.673067856406021292059,-677.374408237599141102692,-724.147771220963591076725,153.954204822109005590391
52.0474999999999994315658,0.230865506656016267195142,0.462216794279665943445679,-0.0765825084418492729732009,0.0261621626355164997590474,0.00382145964033512577570639,-0.00878180350965184625122717,-0.00298225223170718286083702,0.00413943001149558002793594,0.856323661786570267118179,0.516413654491439833016386,-0.00594889648723821717890559,-0.0242637866552812345166679,9.80486051521806167841078,0.00331119250304146364727309,-0.00476655023140386876340235,0.00931551172105871648498887,7.22951236711744726903817,-3.36944270640046950049395,4.52272211890387598742791,1095.91984881962821418711,1154.10443432464398938464,1142.83133436381535830151,1105.30606788801560469437,776.052816504955899290508,270.025951429623205513053,-371.28773949515664298815,-634.256531558042524920893,153.954683726599455440009
52.0500000000000042632564,-0.165775573557738142849161,0.471688079248638203466726,-0.272909964005314753521247,0.0233648964859520733017284,0.0048654320879885810946508,-0.0109444203043352165927171,-0.0029348706046953276782574,0.00419306976675453291908413,0.856321762936910202412832,0.516416584184814841940181,-0.00676432228193031559460024,-0.0231303561789968220585578,9.80757721527335313282947,0.00339151516943248182781034,-0.00477782034046445036601369,0.00926014676076297379991864,7.22951563159648102896426,-3.36943047324728306435304,4.5227449410119371364658,1097.65123395539967532386,1154.90809799578983074753,1142.22414201426909130532,1103.77962464352231108933,618.329721569582261508913,379.371003459697590187716,-117.188849700764038175294,-619.268819505852320617123,153.955101824150801803626
52.0525000000000019895197,-0.453093462268886304489257,0.479199714872099835627495,-0.385964725180772738610813,0.0181563691920238606813953,0.00600709217433583516493334,-0.0156117713496528309757849,-0.00287900574260569874079918,0.00424057414875047243574269,0.856318329566098768168558,0.516422157093627043344952,-0.00743473407824948862021586,-0.0219897226403649170833887,9.81041246030774694020238,0.00347025513155266741166516,-0.004789274213286768069886,0.00921145671707518549908844,7.22951730568375783292367,-3.36941683354133880712311,4.52276582891030365374263,1099.01149742747770687856,1156.00128934194344765274,1142.24539011531123833265,1102.2097237904847588652,364.707902249133155692107,397.76040047622495876567,121.068976012630685090699,-517.175845615945149802428,153.955532309409107938336
52.0549999999999997157829,-0.540585983177377937813901,0.479334716559578488670468,-0.367095950700459139337539,0.0139314708182209558845477,0.00674305479480836328365356,-0.0193863238202615119354366,-0.00281063490835312341023511,0.00425509943034698898123303,0.856312261211218395118294,0.516432450170289270019452,-0.00768332900840519583685051,-0.0211946192194188975932434,9.81350123281763586646775,0.0035322722823352787832607,-0.0048041285330236551190386,0.00920092842463732588087488,7.22951656088069327665835,-3.36939815077574644774927,4.52277684309314409460967,1099.47477346664368269558,1156.89689999816914678377,1142.82948689433169420226,1101.19374541544493695255,53.5030136435306360453978,332.3336803715965857009,323.040730722157888976653,-335.143015683353496569907,153.955832034569283450764
52.0575000000000045474735,-0.53224305044057340641217,0.464789506698945531493194,-0.26789715641815392555003,0.0121728781408676055980633,0.00787938205455637925844758,-0.0204979853683708856948442,-0.00274579808674158378292707,0.00426730503426535779515349,0.856306907929468286155839,0.516441561544975447084482,-0.00797305578622431454505204,-0.0204581340243526130229235,9.81660928413299771477796,0.00358983273242158371779675,-0.00481956992175654359844561,0.00919917604143911937786271,7.22951628249367228562505,-3.3693794033887756178558,4.52278735989164104580595,1099.27901249569549690932,1157.66295774380228067457,1143.86059376892285399663,1100.5340087120671341836,-202.193763648061832327585,292.035010021377956945798,511.844304536191032184433,-205.987095356826216629997,153.956071695013548605857
52.0600000000000022737368,-0.51980342541294000113794,0.416816039436756491376457,-0.132563780349820747872513,0.0131457249302549972896914,0.0100761395191445099484007,-0.0187520487396460634743622,-0.00270950982438170843297209,0.00427778320281829889382141,0.856307374341193972000497,0.516440904481004992021553,-0.00871275164000548385523359,-0.01996966700813398998271,9.81973963799969418175806,0.0036248189092301049719913,-0.0048374995707106431194755,0.00923978658888061944731707,7.2295200892716220408829,-3.36936231131451524589693,4.52279866372381178507567,1098.46380464840285640093,1158.35707504827678349102,1145.38870841701395875134,1100.16380993866027893091,-356.181241476230013631721,213.430023557760648600379,574.589226672628342384996,-69.8844329562870285599274,153.956292006230967217562
52.0625,-0.574831613785884543155191,0.347201417726621663906172,-0.0504634817598351714806881,0.0150348259510627441093433,0.0120776270500900732157712,-0.0168019311198266130258361,-0.00267805378617392425555366,0.00429436426323984415248658,0.85630863003849810866086,0.516438875822867959897167,-0.00953838106316240441628906,-0.0194035843841968633216588,9.82280242063238162586458,0.00365089030339849247852602,-0.00485523936204935394750359,0.00929548439185654516714319,7.22952484103852111019251,-3.36934577672083079846743,4.52281194767997352101929,1097.49810628831596659438,1158.7301078615901133162,1146.73353990228338261659,1100.18458654728601686656,-392.932281169526447683893,110.253547486863908488885,519.98891028367324906867,66.8851593541302378298496,153.956421615138054903582
52.0649999999999977262632,-0.73340376815457009040955,0.257520523260481859484372,-0.0176928354125994412304745,0.0161571863991553273109947,0.0133734116012198533951505,-0.0157921297695222673240778,-0.00265680341562095270052657,0.00432383464422762646417464,0.856311552708617140794445,0.516433950354942883365084,-0.0105460445709507077971523,-0.0186739037584879447040365,9.82572232717358140519082,0.003658126812716341966919,-0.00487257765656976243179299,0.00938305089413763414307734,7.22953158862408074014638,-3.3693304195273046097725,4.52282941366220292422895,1096.49914324255701103539,1158.90834278571060167451,1147.98865296842996031046,1100.49823573543062593671,-368.902545365283458522754,46.7847820926851269973668,472.837407152868763660081,164.684449443764037823712,153.956498278794214229492
52.0675000000000025579538,-0.966948723282933020328755,0.170008732957818153863627,-0.0175254321811911632778003,0.0157309654198929151081021,0.0136679043961521334837883,-0.0154151168410358290622453,-0.0026327822615859249738568,0.00435666868564729345414399,0.856311600380392556886022,0.516433786171566655553988,-0.0113665103755903468263355,-0.0178255233792797979086586,9.82843170794040332793884,0.00365196652649960908088023,-0.00488799480759982349353798,0.00948954286222603374256757,7.22953829653115853659529,-3.36931414139550433617387,4.5228492649546225834456,1095.65359356148860570102,1158.96403177205365864211,1149.09772693804893606284,1101.00800879450525826542,-270.515326742495574308123,6.49551135215583297366493,404.136727953184788475482,238.156799769936725397201,153.956533792974681773558
52.0700000000000002842171,-1.24519126528090762207057,0.11037249095053391911847,-0.0348626650558290090975433,0.0131010992497630467806813,0.0126729602146282115116005,-0.0157112401579417512720305,-0.00260611366236008622915277,0.0043927166579610654739696,0.856308901031122227109904,0.516438171329545836485408,-0.0120081179750330113709111,-0.0168637164978959336325559,9.83093990210366897031236,0.00363300714755332475672245,-0.00490156870061515901465521,0.0096141182312398619502769,7.22954496652600298034486,-3.36929698331995464144484,4.52287139537784987908253,1095.14656660884384109522,1158.94082034247139745275,1150.00933660819691795041,1101.68901973428091878304,-129.758201510712524395785,-8.10301533029642406802395,362.403724441639838005358,320.173020246893599960458,153.956523565187666235943
52.0724999999999980104803,-1.55795487950077427008466,0.0870502414485053721548979,-0.0468871626232885974072673,0.00790681299951266625125612,0.0108582112783636025588052,-0.016845059537038659103203,-0.00259708858707433359186423,0.00441404223878892176119448,0.856299782658684005554051,0.516453216269313286623799,-0.0124556056161947426019765,-0.0162867734814272982490913,9.83305536406402147520112,0.00359771504476998722418801,-0.00491165044288938233002506,0.00975506036126548570219796,7.22955208076233368785779,-3.36927862149192147711574,4.52289571751761876328146,1095.00480255393563311372,1158.92351669540221337229,1150.90974556025548736216,1102.60887389573827022105,17.7017053734653408980648,10.1095871460932471563865,307.653662833515170405008,339.23505173321171923817,153.95646410913658996833
52.0750000000000028421709,-1.75463070641646279312909,0.0976213931164774534332551,-0.0362094569572710134330862,0.00278229271068123305832298,0.00999463958288503151461413,-0.0179819999686789376569518,-0.00259557374289470788042422,0.00442910101243761903516694,0.856287931932571355631012,0.516472798705390423457118,-0.0128205363955190831948272,-0.015873705702101933989745,9.83500365662251674336858,0.0035554674680685774759703,-0.004920248092214290352997,0.00990296795686473885211853,7.22955938409672693722996,-3.36925974726855370633416,4.52292097259446990165088,1095.23507513571121307905,1158.99136827820188955229,1151.54760492236528079957,1103.38519499294784509402,136.574518662358229903475,58.7780040452043408549798,243.107652980791726804455,295.023094046595417694334,153.95637979866248201688
52.0775000000000005684342,-1.84811245692341596935648,0.103279503856670173966847,-0.00412710598858438693081752,-0.00230621714113551012567682,0.0106498810071237147434342,-0.0187679241218049533412859,-0.00261641315768645953479532,0.00440872058380023783968893,0.856270855275203190970501,0.516501196757359837263834,-0.0126719068057947886751791,-0.0162311389288740323677551,9.83638729211563145327091,0.00349809969700715138810065,-0.00492488490393131177896846,0.0100589284328673096713391,7.22956671115687132811445,-3.36923963985153829270303,4.52294528286894248481076,1095.68767514724777356605,1159.21740671562838542741,1152.12528382516006786318,1104.0839893659720019059,207.792570213821619518058,144.546690550345857673165,246.625021554424733949418,274.341512158547914168594,153.956264883165317769453
52.0799999999999982946974,-1.81913190909457656019299,0.0556073036750135418770924,0.0402029509748433599991557,-0.00833244130964758134005876,0.0126043907411743216079314,-0.0190011187896341714187454,-0.00264031086636866635722343,0.00438252082687301969948779,0.856253601075132597664208,0.516529915634746150665535,-0.012398414388692144405546,-0.0167054962591440397945419,9.83765071847661687343134,0.00343834228234046355640596,-0.00492890538437239841135229,0.0102154696993507227570364,7.22957406658114454245379,-3.36921962290927856642497,4.52296953145406366303405,1096.27403798677937629691,1159.71410173095296158863,1152.78073003013628294866,1104.75690255373933723604,193.748323272931003202757,217.429153789887720904517,231.814347673543664996032,214.102524191529994368466,153.956097672597422842955
52.082500000000003126388,-1.67121571174512517643507,-0.0519118506093941625700872,0.0612283689079831938695264,-0.0134044849741467905074321,0.0142308782284289742775529,-0.0185304146538977330960218,-0.0026680044101831121641788,0.00433936418196661198576347,0.856241514750563315061527,0.516550157149365252173823,-0.0114223221585657702670247,-0.0174389797257074596892323,9.83833428125641695771719,0.00337243888928852797101654,-0.00493113544961498902197139,0.010367531181566878861755,7.22958170904842489790099,-3.3692023169194484921718,4.52299438093276329198034,1096.65641676361292411457,1160.30455248457838024478,1153.28435556352837920713,1105.15450198693019956409,108.526902309939899282654,259.422804081945344023552,182.528540670134418633097,127.206077555073036933209,153.955938117912893403627
52.0850000000000008526513,-1.40007434259543162013983,-0.230735492848345546956779,0.0420000426458733838730453,-0.0182406752450150824729214,0.0150378884152733115209255,-0.0174310853766310933088413,-0.00268957618765322970660891,0.00430334365601632053144332,0.856231261181020331108016,0.516567329683532139306124,-0.0102442938881140283013949,-0.0179651368534970712342869,9.83886694132046102367894,0.00330847188534480344049293,-0.00493397255789657096514134,0.0105144974464360767274496,7.22958877858621207224132,-3.36918683305448096731993,4.52302065254507379421511,1096.81667249832935340237,1161.01121575136335195566,1153.69337273348742201051,1105.39293294151502777822,21.1744878976525576774748,286.129252400893278718286,137.383015526881877121923,75.1018263854121954636867,153.955762356983939298516
52.0874999999999985789145,-1.04343978546150784048052,-0.451590530714486348973224,-0.0204310016553367335134794,-0.0223283925892342020869119,0.0147203019006439585897317,-0.0160250664598501624258375,-0.00269472700230040645291707,0.0042864649818595973451707,0.856225923774633690399583,0.51657627001622774542966,-0.00852464014697029703881981,-0.0179350201134187495211059,9.83899490739360516045053,0.00324970214448660902131771,-0.00493835853594011813666453,0.0106477985046156166382136,7.22959431130384366781527,-3.36917623683843014958939,4.52305073887389585962637,1096.76228920310109060665,1161.73519874658154549252,1153.97127064116216388356,1105.53001111885691898351,-70.3068492544029624014001,271.998435058319046220277,67.4741935110542243592135,39.9160351392106775847424,153.955576532602407269223
