t,ang acc x,ang acc y,ang acc z,ang vel x,ang vel y,ang vel z,quat x,quat y,quat z,quat w,acc x,acc y,acc z,vel x,vel y,vel z,pos x,pos y,pos z,mot 1,mot 2,mot 3,mot 4,dmot 1,dmot 2,dmot 3,dmot 4,vbat
20.625,0.0693731343214741558167447,-0.0183311837009161177070027,0.970903755066375162563475,-0.00197809064171224416317507,-0.0843644861710304005963934,-0.15986653114992988022891,-0.0224991573158892232964234,0.011275734429653684956496,0.991663496871968530577135,0.126372490570894113748324,-0.0985534447397417301406364,-0.0714622924631305167508799,9.80331182495230279982934,0.0203095232506102195413344,-0.000801223558573934606201472,0.00671537037230090019801487,3.56687967971930275368209,4.94007759555165826270695,2.0913375807892302660207,1140.08293961759977719339,1138.87874484767667127016,1149.64076518071169630275,1139.10379926516066007025,503.506566428829273718293,-221.725885664614253300897,-131.702223208527271935964,-144.273200376181961246402,157.447749997615943584606
20.6275000000000012789769,-0.0950368486092290909450497,0.0934065601629933128791095,1.18562286034340447216096,-0.000765976422009625730440152,-0.084911710537306353541176,-0.154880706141347412874154,-0.0224152911424670281403948,0.0112653636699804413773274,0.991643720175187204368683,0.126543313675027302434017,-0.098367944119021721860463,-0.0697006878193192208614803,9.80281947675817022513911,0.0211426270984917917539203,-0.00122654309560803003419094,0.00674219091337969339550185,3.56683103111350918723588,4.94009371207386305258069,2.09135061003600863926977,1141.55516478297158755595,1138.3724263003502983338,1149.1613646363616680901,1138.84692670310687390156,571.714491709258368246083,-137.703985814487282368646,-203.734729132106224369636,-33.7670647738899631917775,157.446971040996004376211
20.6299999999999990052402,-0.261173781376666969133993,0.185758925436351196580631,1.21895991287102067879289,-0.000227781269971857538861673,-0.0853734325287000966886453,-0.150383158433000235776333,-0.0223260954129327372774672,0.0112530378974171861583553,0.991623314372146014150644,0.126719862055209381290766,-0.0981069731340948603115493,-0.0679788480154935315091791,9.80210845370259065134633,0.0219730570746600739617804,-0.00164813850349799107669613,0.00677225149323727650813032,3.56677992943901811528917,4.94011171691746930889622,2.09136379469124200625174,1142.941512076145500032,1138.19022491860437185096,1148.62209153505136782769,1138.93496394129124382744,575.797407529013071325608,-28.8278853048325842678423,-228.86806273531880151495,105.482932887319364567702,157.446236138981078056531
20.6325000000000002842171,-0.439679773315674371492179,0.275764105318696051138971,1.10140170766451550576903,-0.000466222838344622098755154,-0.0855275668657911880554678,-0.146198051538178386277167,-0.0222322288471100519557933,0.0112380185112341095254873,0.991602541507351276095505,0.126900029280330728376214,-0.0977893705832092452467919,-0.0663126115551494060840199,9.80115411388429791372801,0.0227999528240790706734575,-0.0020664600091490673526573,0.00680492377500578008581167,3.56672606989971274771278,4.94013142582648789868927,2.09137668494282813469454,1144.43415182061607993091,1138.22828687382616408286,1148.01702432268530174042,1139.37434136754336577724,661.189827899377746689424,39.0559437907341191476007,-267.42876931430106424159,268.293608907378313688241,157.445414027049451988205
20.635000000000001563194,-0.630452836366234503628903,0.3629680398945404617983,0.818493637343890689805903,-0.00191123042424594922518433,-0.0847731344553683680009826,-0.142395913175265870220798,-0.0221352412529967415566468,0.0112206529299848853375998,0.991581729797468280906969,0.127080939258650410517149,-0.0974544119166471933812801,-0.0646976532221379962983576,9.7999354153996520722103,0.0236224194961482045207468,-0.00248209681709565116447536,0.00683944085283747556930356,3.56666944415533659906714,4.94015236081503417153726,2.09138936866404190340063,1146.24746121564407985716,1138.38550463755814234901,1147.28494768847917839594,1140.27643198582882178016,652.825610879965779531631,47.0695919966240552412273,-261.195899315414067132224,376.736831550926979161886,157.444329621415477049595
20.6374999999999992894573,-0.737181908389216489219109,0.398864783983651050025543,0.504414640602298791627334,-0.00419284764742668646098078,-0.0833629069735061789536701,-0.140568495675166188485505,-0.0220389325469402506951777,0.0111971716923273366395275,0.991560760940714103206517,0.127263166567527147288175,-0.0971745293866947690286651,-0.0632135005516832743088784,9.79843547452646923545672,0.0244396886291408030333905,-0.0028955893531694434049617,0.00687488790872698048162182,3.56661022835758290128183,4.94017435908314528347773,2.09140188541295435342704,1147.69827987501525967673,1138.4636348338092375343,1146.71104482610849117918,1141.2580255252976257907,551.787065711979039406287,-12.9137055250819905438675,-214.352002782513295642275,410.602820504018211522634,157.44334710434608837204
20.6400000000000005684342,-0.755553132236026714352306,0.37650566138072655286706,0.165297794287032090432277,-0.0074524299199177513469694,-0.0814291022543374709563579,-0.140159081118241934937885,-0.0219463960860061500779405,0.0111667110090764940683039,0.991539483862087123178242,0.127447408661922889638873,-0.0970160980832520669636665,-0.0618806709434783150380888,9.79664299338401356465056,0.0252512624725205331310818,-0.00330738938963384080521601,0.00691012655987515312522307,3.56654888905878442173503,4.94019743387373022613929,2.09141467506241740537121,1149.00639654420342594676,1138.32093610993274523935,1146.21318767456682508055,1142.32944608834850441781,491.705283475742760401772,-108.957993790535255129726,-183.272475250302619542708,418.743462564738763376226,157.442286652878209451956
20.6425000000000018474111,-0.688091599058281766509992,0.300033703350030822587513,-0.153258658999498614816659,-0.011099843410020690873119,-0.079324624930684331514108,-0.140846993742784282188651,-0.0218557386018604186961323,0.0111304349983803400198079,0.991517843115005015341978,0.127634305306444317817949,-0.096954365507028433812664,-0.0606675427654905577434796,9.79455403108088162866807,0.0260570544856115055010193,-0.0037177819273799725917351,0.00694358585744490452301703,3.56648551099628985383561,4.94022177923607674898676,2.09142769136752004754953,1150.15680629239523113938,1137.91884486485628258379,1145.79468244985650926537,1143.35174283812239082181,418.729277525691600203572,-223.2964359412552255435,-148.986766394439285932094,369.624606570669925531547,157.441164966731520280518
20.6449999999999995736744,-0.528035971814717175476517,0.168953861136202032611209,-0.405750935719113359212429,-0.0143945057264436605815039,-0.0777005017305999884369427,-0.142719551295850122230036,-0.0217623454005755299911495,0.0110910765608429884299113,0.991495599937038063487194,0.127826260243739692201714,-0.0969163854014637171641056,-0.0595050635796823407241973,9.79217199288065565099259,0.0268574169841733940977679,-0.00412672083222013260511707,0.00697337869024621057750801,3.5664205748948991647751,4.94024716162652310913472,2.09144068524696313815525,1151.10004293183146728552,1137.20445393022669122729,1145.4682538425947768701,1144.17756912120148626855,368.949579540167803770601,-362.906617050547879443911,-129.154048095577536514611,289.192765882956564382766,157.43997394631094266515
20.6475000000000008526513,-0.280159909773823656564673,-0.0146134035591056476999228,-0.598848536942373277369711,-0.0164392759904469359932833,-0.0772760338807104291136696,-0.145965101615648795707614,-0.0216622005070233186740936,0.0110499965688950485542819,0.99147314980681910956406,0.128020769329664968472215,-0.0968395587246173306095187,-0.0583540159739576874686762,9.78950729332512636915453,0.0276530452027046770580032,-0.00453417294898045015322241,0.00699743846546348885473421,3.56635455049363470081403,4.94027408393839273514914,2.09145352214173074756332,1152.00155419009570323396,1136.10431177960390414228,1145.14891220937875004893,1144.79770666753688601602,295.020622611386045264226,-414.758013636598377615883,-111.351439516954414443717,151.279622624920108364677,157.43847069638508173739
20.6500000000000021316282,-0.0831177757508515385742598,-0.153724324370947518225705,-0.662956100050874685969404,-0.0156890728782982866174045,-0.0782109702476405099780266,-0.148882343143661527440358,-0.0215549446337701504361473,0.0110099235384373203561204,0.99145091656768380428133,0.128214372882891280980289,-0.0967372618031886455369772,-0.0571592285743786621132756,9.78657681320448169515203,0.028444890849404002447498,-0.00493988263675527138063526,0.00701372254802160033371194,3.566287814286320578816,4.94030287235797072042942,2.09146634291290212104286,1152.57514604488915210823,1135.1306638620426383568,1144.9114966450097199413,1144.93396723432647377194,193.257763308740578622746,-362.409392135559073722106,-91.1704848154567457640951,-30.6988813120885559726503,157.437160980265019816215
20.6524999999999998578915,0.0414998686946335126890517,-0.240903950718823228749343,-0.64499961592356847006613,-0.0128098196407566353172136,-0.0798754747985582491676126,-0.150946797215054911989185,-0.0214441360788380427915278,0.0109741253465703101493967,0.991429037298590998261716,0.128405130483633028726231,-0.0967012621190165566620323,-0.0558664404460840341437589,9.7834039673602415376763,0.0292340672365948642252853,-0.0053432989996894334622235,0.00702024214410617349718668,3.56622140193003822616902,4.94033370302077390334716,2.09147976584970063385072,1152.96784300663921385421,1134.29226481892646916094,1144.69305978530155698536,1144.64421226097647377173,123.293575675213077147419,-288.055274357259804673959,-77.003234814507635519476,-181.431119710659629618021,157.435797925272026986931
20.6550000000000011368684,0.0846452667509900863462846,-0.269007208012492060600351,-0.585535673425355063237419,-0.00969884103397142087465976,-0.0819502587820147981867436,-0.152075164278126950812009,-0.0213331264659031051567073,0.0109414816366636361705256,0.991407709912119905482086,0.12859104991994879663153,-0.096809136871663925560938,-0.0545083337898741304705652,9.7800198214197067159148,0.0300217048833418334585765,-0.00574383381056576842321748,0.00701480784134757458236908,3.56615517125560099742643,4.94036637718210958070131,2.09149404222024326571727,1153.19161392326509485429,1133.69038749025662582426,1144.52648047093725836021,1144.02681163577335610171,38.3778119722213872933025,-166.263520988728828342573,-32.6640629158711348623001,-307.778299508497468650603,157.43439518623679873599
20.6574999999999988631316,0.0487140798937638550003548,-0.227178845420941383226321,-0.509019645962592415244785,-0.00822220739319421550783673,-0.0840948873617896747179046,-0.152350640098586315174245,-0.0212246796303607911104994,0.0109100439542079187538182,0.991387104582896472315667,0.128770533956260951891082,-0.0971252125457115755846615,-0.0531346050101366776385881,9.77646271682456990959054,0.0308087047999303469125731,-0.00614091578579256235775885,0.00699516623189084477824062,3.56608828262400168185309,4.94040056809463390408155,2.0915094430813696568805,1153.15973206650028259901,1133.46094721398299043358,1144.52973947072223381838,1143.10532076343429253029,-90.4011023197834049369703,-12.9006421587772113213077,77.808382598565927423806,-440.381845218640876282734,157.432950332833797801868
20.6600000000000001421085,-0.0204291076871505605794255,-0.127851406633109232480194,-0.425059591044124274183957,-0.00897413906321472762406266,-0.0853438370631371956420708,-0.152172215050696751914572,-0.0211200456325806272539491,0.0108783995147913401663198,0.991366906581973572620825,0.128945927752756983597493,-0.0976848097465065623445923,-0.0517827213796780982946188,9.77277779245621935899635,0.0315955983138119789188636,-0.0065338218038182545657766,0.0069591230630147021818388,3.56601976750421645334654,4.94043615151671922092191,2.09152596138817603588222,1152.73960841166626778431,1133.62588427946275260183,1144.91552238393001061922,1141.82490240968058969884,-228.751472868517623737716,120.816044392478985969319,229.546970252268579315569,-468.150521424410442250519,157.43117554588440043517
20.6625000000000014210855,-0.0473846481751818426886302,-0.0428717065203903513470607,-0.364870896503116659559396,-0.0110302782210341121515995,-0.0846875761295034501507928,-0.15245780502441769188593,-0.0210170541394959879688553,0.0108520652647951468955378,0.991346737271141420499987,0.129120025197574178621451,-0.0984731917558309965965435,-0.0503499856899999598258688,9.7690162034121907908002,0.0323824370223208951591332,-0.00692180400906022581103416,0.00690474563341083712869617,3.56594920025376138639217,4.94047248438487418553677,2.09154341358920392579535,1152.01597470215710927732,1134.06502743594569437846,1145.67747432198416390747,1140.76456815631104291242,-373.396209770846041919867,208.462063593238411840503,409.189883057878887484549,-386.328357088390930584865,157.429668267254584179682
20.6649999999999991473487,-0.0029298275102176141171384,0.000553985392665989895277789,-0.301844814641640868391192,-0.0129596304373343351734604,-0.0828061417213848127705234,-0.153783601189159235822501,-0.0209128659156803710372774,0.0108334803435278861916125,0.991326377986582518708758,0.129294752741130919426737,-0.0994529540379484322532022,-0.0487947904394999409927181,9.76523357586092011217715,0.0331687581674369111328637,-0.00730423989878438862516363,0.00683049442665217398235056,3.56587620440800767696032,4.94050969379983495599618,2.09156101062028332293607,1150.87262736281240904646,1134.66819459742873732466,1146.96147179921899805777,1139.89326062423901930742,-524.931452205432719892997,238.418574995150407858091,591.464140890120120275242,-293.020225330759899406985,157.428138584335044924956
20.6675000000000004263256,0.105489869199809918609567,-0.0060139955865000094270556,-0.224979165759056715101494,-0.0138461552767100010141732,-0.0809874468371151734480407,-0.155447742269386374180939,-0.0208084948212894915720028,0.0108219753182081622477906,0.991305529271918506317718,0.129472292671543115494259,-0.100650285517147691782824,-0.0471482318453874324482022,9.76148741722504809104066,0.0339535959841906972989101,-0.00768046113201389327868052,0.00673561680748376891136875,3.56580098561085234720736,4.94054848071711028012487,2.09157848461230200243222,1149.39131744113046806888,1135.25712031092120923859,1148.63479502643417617946,1139.29946702965753502212,-662.855298934916504549619,191.784773601686652000353,728.054023581390083563747,-148.758141176055062260275,157.426595195323017151168
20.6700000000000017053026,0.274517690161428629114226,-0.06295460934139235353868,-0.129272638259604333299535,-0.0135438741903508644282006,-0.0805095839996631396084936,-0.156628918332931132972874,-0.0207066937397825633071502,0.0108165046561600561997318,0.991284143351296442858711,0.129652650843578354233898,-0.10212012647604742920926,-0.0454560262261360509272734,9.75783590429649727582273,0.0347355509599263159725702,-0.00804983610604609149674626,0.00662014721135357597087134,3.56572423672679628126048,4.94058965402237149078246,2.09159599641826865479288,1147.55835086813613088452,1135.62711846543766114337,1150.60174191712781066599,1139.14946991835836342943,-862.212309649147414347681,64.7966253990618241687116,862.028667629182223208772,50.1798812228671309298988,157.425040648783408414602
20.6724999999999994315658,0.515494717287216186463183,-0.154464299734943744102367,-0.00743751840591070148556163,-0.0124873480507309668474658,-0.0816892489787826303615503,-0.156961379477187579212227,-0.0206062950665980050557469,0.0108176517586218590843972,0.991262299035381988510096,0.129835357965695535886752,-0.103840537068577543067249,-0.0437247938461029772572175,9.75433753866099806373313,0.0355129399579654156382524,-0.00841170154986541421249235,0.00648462778026820223231663,3.56564596825652069256307,4.9406333407846059202484,2.09161305149475973408357,1145.08025589288558876433,1135.5811034379164539132,1152.94493836457922952832,1139.55036643577182076115,-928.522998847577696324151,-121.627604989522851042238,794.130713586513365953579,239.886598809018749989264,157.423168567632103531651
20.6750000000000007105427,0.722989252599157139478336,-0.225775161786295752719411,0.0827705676487975189337121,-0.0107403429453313045000007,-0.0832530573785737887382297,-0.156361152330666025589423,-0.0205028158317506759011906,0.0108254213582156793432842,0.991239889560354359154815,0.130021945187999365955989,-0.105717898777810181965009,-0.0419654902603026000451614,9.75104942982347822066913,0.0362838625653653726321757,-0.00876535507952649894924946,0.00633008587242479478507384,3.56556615577780711134892,4.94067908852410564435331,2.09162878195545154369483,1142.91573587389916610846,1135.01898044049016789359,1154.57239548505958737223,1140.34890291240321857913,-846.81300297477139338298,-337.700957891647760789056,512.814402499053812789498,392.601548989504578912602,157.421607083741690757961
20.6775000000000019895197,0.90941163162798677177534,-0.279036775125254932206076,0.144299146125006966245863,-0.00786027057133178996828349,-0.0843349718909186529813837,-0.155279774341984033725339,-0.0203938925989705227559412,0.0108357777520420688055491,0.991216807944499178617548,0.13021394832015403819625,-0.107683039999861007718351,-0.0402738447612547706411235,9.74802447857095621941426,0.0370461464330278308909605,-0.00911036227015521969663236,0.0061582264232309278859101,3.56548379083245636778088,4.94072667020733558018719,2.09164247119265711560843,1140.84619087800956549472,1133.89259864845735137351,1155.50901037707581053837,1141.5133741807203477947,-836.860860653480926885095,-595.762896044589410848857,195.062273618889463477899,548.04756265513776725129,157.420048474494649326516
20.6799999999999997157829,1.08913078898066362221186,-0.324019277816373019174279,0.179504977750906152822452,-0.00404059537632317673783167,-0.08484423107803698571594,-0.154028228761674712554708,-0.0202840597955882932790228,0.0108443380139882274842966,0.991193190783222544126829,0.130409979562556205268109,-0.10979292408179958107084,-0.0387707697130428366460997,9.74530835900797676174534,0.0377973356075069696902169,-0.00944680586148577937366522,0.00597170938965083022281766,3.56539840846509337168868,4.94077553382395340264566,2.09165412264934769126512,1138.73143157063259423012,1132.0401659602678137162,1155.54770685315384071146,1143.089140725678362287,-676.835667020075561595149,-720.726813102562687163299,-182.931201136525515948961,561.022836420281919345143,157.418185818105826001556
20.6825000000000009947598,1.20006644201358914081368,-0.348302510396469922060447,0.183142866177295887686327,-0.00119416831574636742897833,-0.0851061670843476641978853,-0.153373916621467903942388,-0.0201780894960674681004598,0.0108499587090422431462367,0.991169358626143415236243,0.130606944593624069161919,-0.112110711744115909560549,-0.0375152410879874623206298,9.74293976534293726388114,0.0385349616678872311514858,-0.00977516171120020038731724,0.00577359476923701864931049,3.56531095848400614300999,4.94082530450036117031232,2.09166428666822978854611,1137.46201254290986071283,1130.2889645829452547332,1154.59435437139336499968,1144.31848836282119918906,-368.469367145399360197189,-682.114821338790761728887,-571.987333384299859062594,414.670368759598829910828,157.416642724921729268317
20.6849999999999987210231,1.27564027621987507998824,-0.354638572445591604420656,0.175385714640115264462139,0.00112225213287139554199645,-0.0859705802263309171173944,-0.153041937547933715180193,-0.0200776003162189548012506,0.0108551057182849648025114,0.99114554216525363461443,0.130802628588116226504567,-0.114641261392673332597525,-0.0364874555072518882981036,9.7409503311708540707059,0.039256758644134040481255,-0.0100960443714813528220953,0.00556693608465748477481805,3.56522256302451356901884,4.94087569284352134957317,2.09167370473706348832366,1136.88908473490596406918,1128.62959185357453861798,1152.68777018623291041877,1145.16249256947594403755,-96.3328037388883586800148,-605.202931223022801532352,-887.785002045115334112779,234.637844801637868386024,157.415111823656332035171
20.6875,1.32251702299545681462689,-0.339153070583733284859562,0.170590728657922824362814,0.00335041907190378141986886,-0.0872233731893424651948621,-0.152642821437204062595683,-0.0199824656960564429886151,0.0108623985453379368060212,0.991121917066017710240544,0.130995499552469557569268,-0.117350311879036633966322,-0.0356584282511103328738855,9.73936386436680656686349,0.0399606405177735934941552,-0.0104101889260088814603833,0.00535468259021792004209717,3.56513346164220701339787,4.94092728984994611352022,2.09168267163444054901333,1136.98034852421551477164,1127.26294992683074269735,1150.15542936116867167584,1145.49167758682915518875,199.2018567769154628877,-439.790882490663193493674,-1103.89797193468348268652,-20.2732610306962648394347,157.413592679799194229417
20.6900000000000012789769,1.32362501585344372045938,-0.292152321035307860341845,0.183545929767486348804795,0.00621897757680619708842151,-0.088431522151963731781521,-0.152304033876686339965545,-0.0198870994363794240111787,0.010873795127855946651696,0.991098620047540568300803,0.131185213972550285266294,-0.120091573210949709160644,-0.0349953640317870393050548,9.73819722386918229517505,0.040644663403757545772077,-0.0107183894649329342074751,0.00513933066439735582175974,3.56504277654281853671137,4.94098063663616748897311,2.09169071021103158969368,1137.88509401879105098487,1126.43063744112009771925,1147.16828032655666902428,1145.0611262643224108615,561.421877280802391396719,-225.007433795371269980023,-1329.55016416621288044553,-364.384067320843030302058,157.412089242391573407076
20.6924999999999990052402,1.24628586123701046162182,-0.201317418710492496147779,0.236533120927112261444591,0.0108386849703807752048901,-0.0895198410958055884600881,-0.152737590323282185211795,-0.0197858213512013894619379,0.010889148993307243284967,0.99107579885777163930527,0.13137154374774814846738,-0.122708017327540608309988,-0.0345024916674685072637274,9.73745891788531992006028,0.0413069264478439501786511,-0.011021633422655895823139,0.00492324249239946450107386,3.56494929230358881255825,4.94103594294571113465508,2.09169755750618957534925,1139.78745791061896852625,1126.13791275785411016841,1143.50767854033892945154,1143.66975725022530241404,796.302712750888758819201,2.06216746182731291980872,-1290.15659441595948919712,-627.165968255110101381433,157.410304667799010758245
20.6950000000000002842171,1.10061755756595425204125,-0.103861544267123143137077,0.317299178610702503622321,0.0152254109240832213867378,-0.0900831034721297080336555,-0.153680031756336321624445,-0.0196747731458629601664079,0.0109052052142757094355119,0.991053604561051404431282,0.131554220324916593121145,-0.125067730661404225012134,-0.0342446093195624065574911,9.73714883430723432411469,0.0419456960570994061288097,-0.0113211669965777913388072,0.00470869804349185148983903,3.56485208036186040914117,4.94109244732997687776788,2.09170296198862226688675,1141.86660758254470238171,1126.44094827842923223216,1140.7174973544781551027,1141.92529642304748449533,874.196005794609163785935,205.199143005424559760286,-997.342174519907530338969,-757.512426114430013512901,157.408834416198573080692
20.697500000000001563194,0.871597026258829732370259,0.00368718080294762329263136,0.421429823113328994033111,0.0188004366418879839684131,-0.0903210745286061600367589,-0.153969195170955586160488,-0.0195586841146333546836988,0.0109174040832125535116504,0.991031842397889328744043,0.131734382963109464270701,-0.127200698037723630706708,-0.0343288501481882335486517,9.73725640381691626146221,0.0425596685262449869746604,-0.0116183269734560484093278,0.00449841432369135676289096,3.56475142232816732956735,4.94114946532727827843701,2.09170716283781699118549,1144.15843793959425056528,1127.16390847288175791618,1138.5209676677368406672,1139.88219511965121455432,904.239827750323229338392,328.772867904601241662021,-746.48498829175264290825,-809.643970153435589054425,157.407381934321733751858
20.6999999999999992894573,0.592139204285389464388345,0.108207245923344741456162,0.5157898841021977265342,0.020923187903872111914616,-0.090313779365207014215855,-0.152910976059768805024319,-0.0194430995373514117763314,0.0109225993921618202281421,0.991010373387422482949205,0.131912510226289608761263,-0.129157987997702117244359,-0.0348320479505023483657311,9.73776332220795381999778,0.0431483142681415438035586,-0.0119145687068963508636887,0.00429494750810103555205277,3.56464854114708584731375,4.94120711423463099265518,2.09171041371716448509233,1146.38780672129541926552,1128.08481261795191130659,1136.98507241302013426321,1137.8770765722811120213,827.003733925749543232087,381.384095947381354108074,-434.628040036382174093887,-726.851624847685343411285,157.405944006399096224413
20.7025000000000005684342,0.286321361523765860468416,0.193364522856208115308974,0.553690530020008120359876,0.0212771448759019460306163,-0.0900042410210511317769644,-0.150278715730747802759026,-0.0193276393479017774557072,0.0109218960524530249445174,0.990989353543847872884953,0.132087380066679249690509,-0.130891305696051923890266,-0.0357282276109017749021746,9.73864635510003573415361,0.0437121197314995837968077,-0.0122114156762042607579088,0.00410016653310819097905116,3.56454406027530623646271,4.94126607560630759508058,2.0917128637263582291439,1148.29345660922217575717,1129.0708289526182852569,1136.34782746755536209093,1136.24793699541351088556,719.322339126434030731616,419.47323671598866212662,-71.7738058432220213944674,-568.858816539050167193636,157.404523008857239574354
20.7050000000000018474111,-0.0714547548202661558791604,0.251151302271530263432453,0.490780841908523890460003,0.0203169351107891603402944,-0.0892350076236355926884158,-0.146528752339021489659032,-0.0192106846534250523539367,0.0109179684914169072840195,0.990968805663887675194701,0.132258826811751162288999,-0.132338602333847421554935,-0.0369517471310107578630344,9.73987727785960721860192,0.044252724935497332603429,-0.0125101983979019320408765,0.00391548561778459758286886,3.56443851022901148084543,4.94132684226479756972594,2.09171463955963377046032,1149.98441841692942944064,1130.18217880153292753675,1136.62620338380384055199,1135.03278248958440599381,504.056853223537700614543,389.540543228881858794921,258.905714585040755082446,-304.479252952902811557578,157.402836441620877394598
20.7074999999999995736744,-0.345537301027282250931449,0.246456226390587174179814,0.339708599891430373940437,0.0188718383807816685038272,-0.0882364579123835479634863,-0.143827328012302607662676,-0.0190903998362642428332503,0.0109096734550677282316045,0.99094846321096285990393,0.132429202302170784255608,-0.133431908661658521486615,-0.038503623848068296853242,9.74142422989350009743248,0.0447730143411582334755927,-0.0128119997672257995152689,0.00374171786499463872310844,3.56433228613551422725436,4.94138942893684429691348,2.09171572807194117160634,1150.81374087533936290129,1131.01853166876230716298,1137.64235604048030836566,1134.72554073064929980319,207.147963144321067829878,324.8740200251823466715,529.45555701764158129663,9.66525497720077986230081,157.401446053279670422853
20.7100000000000008526513,-0.592640178626345992540791,0.172257620553098123039604,0.10683674185113413435122,0.0173060050294969354489627,-0.0869439331188469055611279,-0.142102060209489816644535,-0.0189673142335263743285534,0.0108955642694352448918149,0.990928170897939164518675,0.13259971025564706859079,-0.134158585195389506994346,-0.0403904867263673722499462,9.74325180800808254844014,0.0452769948955840800808303,-0.013118053923582942074666,0.00357938478830175516032241,3.56422638282173354085103,4.94145326830097975090439,2.09171586155122168904086,1151.0201582326508287224,1131.80654890165851611528,1139.27348116889152151998,1135.08110876447040027415,-15.0842151916017570556505,320.192719059395926706202,712.210994375345194384863,219.755032793615441732982,157.400071219407152511849
20.7125000000000021316282,-0.82526841693113051068309,0.0367928744747110583745986,-0.159471683826144711160211,0.0159349236792360633707677,-0.0856486704559089179200626,-0.141590928236877022783347,-0.0188411336955761968270373,0.0108735847594218174722025,0.990908040215016328033926,0.132769727657751523963725,-0.134500576405960609038814,-0.042622262998977068770845,9.74532335860716791842151,0.0457696771274360980630291,-0.0134299098299034119080586,0.00342838126436231490148931,3.56412212630388580691942,4.9415174783716322437499,2.09171535893817406304152,1150.73831979938131553354,1132.61949526406010591018,1141.20341101235885616916,1135.82431589461793919327,-215.42657384688675392681,344.835596834150635459082,782.869391263121769952704,337.667871214192814477428,157.398709529958210850964
20.7149999999999998578915,-1.05066776405655293302743,-0.162940821268536012444983,-0.411087069027641249796545,0.0146635027794819201157894,-0.085012146032544186335933,-0.142959985778587067573042,-0.0187085983966541018197471,0.0108440215711982732710306,0.990888015936335908584454,0.132940108214836011368831,-0.134401164668145584046854,-0.0451494536254304634770307,9.74760267476023933852503,0.0462568614009356213201407,-0.0137491495553897554587897,0.00328784353962494014719797,3.56402052225169274635164,4.94158104841527645589849,2.09171515451161882381825,1149.94302536341660925245,1133.53072688582892624254,1143.18782812520635161491,1136.76944812054102840193,-439.766842331615578132187,427.18139425164139311164,803.66906571305275974737,396.817701172528188635624,157.397364384838425621638
20.7175000000000011368684,-1.31196992261209000041333,-0.446687478283698147230041,-0.627865946343086456238325,0.0122650787391283492416827,-0.0858478848889838719316003,-0.146573762145838198955872,-0.018568075585388765097461,0.0108070906239988075853153,0.990868303020263962999081,0.133109537189650212196668,-0.133848166657856565420204,-0.0479220824219150492995212,9.7500537460260687794289,0.0467445114771133721220941,-0.014077681131512592357935,0.00315648099633851920292615,3.56392149264576207912114,4.94164370213391634933942,2.09171621823801689998845,1148.53948558772367505298,1134.75540223531788797118,1145.22175634092332074943,1137.8084044004801853589,-562.15504125632196519291,458.54394509874538243821,633.74722951156275030371,330.912946702458043546358,157.395770745092875131377
20.7199999999999988631316,-1.50798792004405268762923,-0.691928273454389675123366,-0.705360426571796206296483,0.00892199948212936584657218,-0.0877098991785595777370688,-0.150240681364987915813458,-0.0184164719794347661596667,0.0107628385320547789727463,0.990849069541264837468475,0.133277188833021031921788,-0.132813102914949243693599,-0.0508839129684470689585218,9.75264262780960500265337,0.047238249132206561187175,-0.0144173675665552475377851,0.00303244758375114872861467,3.56382455422491428720377,4.9417058820465991075821,2.09171881003157933420766,1147.13225015713555876573,1135.82344661132219698629,1146.35656427276353497291,1138.42401285405298949627,-573.95202647401265494409,405.026697667325265683758,290.069508439422349965753,178.618494423962204109557,157.394461224076621874701
20.7225000000000001421085,-1.65705319417944885174165,-0.917402978181733441687129,-0.670288365742894742815849,0.00439158430224512608824883,-0.090258432280223607757641,-0.153120600183809851824179,-0.0182573766500934084322516,0.0107116516953041605864083,0.990830277264660996827672,0.133442788165023917823504,-0.131408585881358841440658,-0.0539844782577022577751968,9.75533533892955340149911,0.0477427419270900071923691,-0.0147698789619989997307092,0.00291432938932301242168643,3.56372927317520415968488,4.94176836172881461806128,2.09172280248266551083702,1145.66972545535418248619,1136.78053572365411127976,1146.6721038831201440189,1138.70149687259981874377,-563.971336628567541993107,333.262582685085874345532,-27.0801307627923648624346,62.6642448418485855654581,157.393173021906676467552
20.7250000000000014210855,-1.75274395753385170415584,-1.11199798734045551817928,-0.559518247228014353744641,-0.000567191584110229352934385,-0.0931590423259803929179057,-0.154827377371853258658518,-0.0180901033388889652397946,0.0106557500749047892596444,0.990811831902983275455199,0.13360690416500778376907,-0.129678318268778042243738,-0.0571226421176429244308537,9.7581017133839793586958,0.04826130310322451766325,-0.0151365773829185232962624,0.00280048102980729558472706,3.56363412514345956338957,4.94183134424268200035613,2.091727124514344282602,1144.31239347399127836979,1137.48975952474847872509,1146.22116361894950387068,1138.73733407826239272254,-484.043684964359158584557,189.907952974992014105737,-360.973612061506116788223,-17.4507360097357526740325,157.391904172110770332438
20.7274999999999991473487,-1.7786930631986610507056,-1.26015907698522022784005,-0.389943933612983073544456,-0.00559931517639736947566931,-0.0962412496224073210626671,-0.155374027361513039613428,-0.0179170380898391982948947,0.0105976621157350559682131,0.990793428821780008952658,0.133771223644832876198407,-0.127732546517070000291483,-0.0601963021370239825813542,9.76091313439452434863597,0.0487955606522427129401187,-0.0155184286757199165623922,0.0026897972623423065802184,3.56353722124797167580823,4.94189479209086712785393,2.09173127607655073845194,1143.24950703053286815702,1137.73007548852888248803,1144.86723582281297240115,1138.6142431925511573354,-366.514397743758479464304,-26.6306083754041758027142,-767.975383593755395850167,-50.0541371311200720128909,157.390659963894592010547
20.7300000000000004263256,-1.73859965577892872090615,-1.3789692182920909591104,-0.155618737929614447956794,-0.0112567748920114132915593,-0.100000628048636186484543,-0.155618247462833370065027,-0.0177413441092805733434457,0.0105355107032758764373792,0.990774698745670812094488,0.133938160506198056243221,-0.12568851067645664398853,-0.0631890489412281763925705,9.76374319689690217671796,0.0493454100078469029555528,-0.0159159517071065896576254,0.00258137856496196355440831,3.56343715975652663985329,4.94195941508773106676244,2.09173534683984829740666,1142.47982148527285062301,1137.35660648287148433155,1142.38128670098149086698,1138.48706339260684217152,-184.271246631848356400951,-244.796073026020451379736,-1010.18572878563804806618,-18.8874457060950362574658,157.389195630490632993315
20.7325000000000017053026,-1.66178163525844735382009,-1.42606593958736893590356,0.0458382096765583835207281,-0.0154046782417362523170956,-0.1033636120508781702787,-0.155842323681114974798234,-0.0175653271969143306985295,0.010469483225592013733718,0.990755475734516055652534,0.134108585287649795247944,-0.123653113641805340039426,-0.0660424108690919192676816,9.76656746302268885528974,0.0499091286321358129640657,-0.0163292972875979242042277,0.00247469788217988739473241,3.56333313373238214083472,4.94202571531948020577829,2.09173928713788592759215,1142.32815079737315500097,1136.50609512339815410087,1139.816307178882198059,1138.51980596402063383721,42.4758613718579809415132,-426.130581437603893846244,-1061.93246518117325649655,55.3324954553882903951489,157.387998384049666356077
20.7349999999999994315658,-1.5633459547128574218533,-1.41547796810825721181004,0.23396992148577705483703,-0.0187895838650819907433842,-0.107201662456888530128296,-0.155731407450272085757348,-0.017389772603644181037108,0.0104014981803757511347186,0.99073552564919398211174,0.134283947797145780667094,-0.121706058221089513660118,-0.0686620612369096827709569,9.76936309969341998282744,0.0504838093454001365922856,-0.0167579564782368850561767,0.00236956972184612776541335,3.56322519126048220527991,4.94209435393409002301723,2.0917430193569863661196,1142.69220079213209828595,1135.22595357568388863001,1137.07162437507668073522,1138.76372586988372859196,261.480090184984135248669,-612.447697448791586793959,-1168.45689177235317401937,148.287133134938301282091,157.386822713292701791943
20.7375000000000007105427,-1.44260866282211686062453,-1.33620992843911556846592,0.418228605476676840169148,-0.0221350182897852472418965,-0.112043296384550003508274,-0.154893826280325885846878,-0.0172156701849176252405726,0.010331516951524025160758,0.990714106813071038182272,0.134469576977668398010124,-0.119920455250082436116088,-0.0709952826492273314507031,9.77210770512616555549812,0.051065917469230760750154,-0.017200404305688837824917,0.0022661756446215597371463,3.56311375472182367829532,4.94216573073507081659272,2.09174626906743466037142,1143.63555124829781561857,1133.44385663615480552835,1133.97402272002159406838,1139.26124162969517783495,405.092482136498915679113,-653.961687105704299938225,-1049.39385463286248523218,197.576656826085013562988,157.385432567380632917775
20.7400000000000019895197,-1.3466099085385467848397,-1.22306801306449575150737,0.515733022922859052350475,-0.024629887800325007268798,-0.115600940885732375584816,-0.153606613238959438527687,-0.0170464214514722024740312,0.0102593612444050845400323,0.99069115210162506102165,0.13466552406042248124507,-0.118410009480596545294873,-0.073003884554037792864456,9.77477780820974118114464,0.05165141262380330139381,-0.0176550700701298066142009,0.00216537021497119038307422,3.56299885597040155715831,4.94223975633760215231405,2.09174894523695797943219,1144.71766320281562911987,1131.9561451401536942285,1131.82465510190968416282,1139.75160915401465899777,453.406049715839969849185,-554.583191836146738751268,-718.423931252488841892045,181.372189681169118102844,157.384287161150069778159
20.7424999999999997157829,-1.24892284864973346358852,-1.08126860071361341475438,0.530187515982463830610527,-0.0273283149721254940700543,-0.118205801495130241596243,-0.151599718502507557760239,-0.0168845176101463344264797,0.0101862409509723365191869,0.990666745362315914746887,0.134870745767214778032539,-0.117266580545695470183531,-0.0746273524442487290464499,9.77734922542524742539172,0.0522362946064902980425337,-0.0181200090178148427721982,0.00206842665042336485217711,3.56288166823719221198985,4.94231670128894329252489,2.09175141160741517865063,1145.90258149687656441529,1130.67094067697462378419,1130.3819030637598643807,1140.16810257810084294761,456.78284270984471504562,-461.583783993729412031826,-432.978861657142886087968,133.139445642272335135203,157.38314912584951343888
20.7450000000000009947598,-1.13637812717012010033102,-0.933241403303058381091262,0.462575270222645162920827,-0.030470592757617737111886,-0.120134026576506250383325,-0.149021224541070473890159,-0.0167270245989354499061008,0.0101146819157805385736015,0.990640916193956444502078,0.135085195069610197737831,-0.116471184746708061874543,-0.0757737064769684609544242,9.77979789267593879742435,0.0528170043561449267799368,-0.0185928042636033762080583,0.00197657270875243977481528,3.56276306927431818394325,4.94239606319609592333109,2.09175301184261996922942,1147.00157741636439823196,1129.64822622018550646317,1129.65976079362440032128,1140.41730638222588822828,380.716259918684329477401,-340.671800369886568660149,-97.7011116256302329929895,45.0345043128980719870924,157.382012029297669641892
20.7474999999999987210231,-0.988580984140171592500224,-0.79386155198152785761323,0.296472824789605571282891,-0.033930572159592740921763,-0.121628231184777169104905,-0.146533108435564302096665,-0.0165687975824882344211275,0.0100490991515967843100698,0.990614283523409411280625,0.135304639122540537599093,-0.115958313637935461759554,-0.0763183843144920742718185,9.78209853392347206124668,0.053390388091234815270969,-0.0190712368689652626840836,0.00189126701186589484676714,3.56264332763078117594091,4.94247700934908795744605,2.09175236954901588859457,1147.80616279646960720129,1128.96758167512552972767,1129.89339750563181041798,1140.39327509966528850782,250.386119550744098205541,-233.58027285421584906544,326.585666338697990340734,-71.4109506616438238779665,157.380870199730850345077
20.75,-0.760743994222192188026099,-0.646630591362344131489692,0.0136474824856172641251995,-0.0376227851801071572213075,-0.123381464505415872068284,-0.144884131948645550336252,-0.0164069769008219797090664,0.00998995011056023722584296,0.990587415385582703564182,0.135525241130736995298633,-0.115686690361524513459557,-0.0762303351589716099434568,9.78422328845392996754526,0.0539539151849368833757659,-0.0195528750479091496805584,0.00181414322700569163697437,3.5625228397182824302547,4.9425590101921947905339,2.09174892274336876596408,1148.25350801411786960671,1128.48032485591465956531,1131.29268912531756541284,1140.06025162891774016316,65.3700196838719733705148,-142.507081188359592260895,687.197084333286966284504,-157.010793604705838788504,157.379488062026837269514
20.7525000000000012789769,-0.535407732230457900080012,-0.541927068364024044910821,-0.250933432432653980015402,-0.0398697047381611838212656,-0.124941963323764324012011,-0.144964315169091723101147,-0.0162449101744469338870491,0.00993402574448430143727595,0.99056068848099187995615,0.135744087570196653169674,-0.115716219363963396249417,-0.0755778079055000329145031,9.78614083688282754280863,0.0545056794352195631003788,-0.0200349832237011887814404,0.00174708765461240359516404,3.56240216790396946322517,4.94264196682368162072407,2.09174357392674847844205,1148.13301289488913425885,1128.25504626918336725794,1133.32938292730000284791,1139.60822113164135771513,-148.102896828170202070396,-77.7102051670835862751119,963.25652366095778234012,-187.86437340249094063438,157.3783224265570481748
20.7549999999999990052402,-0.295044246146225264126883,-0.456172829356648934506779,-0.487116465102691686972491,-0.0408308858785504311117442,-0.126304978115833022034309,-0.146520888319035286206926,-0.0160862146797957072941188,0.00987836119017373136264037,0.990534439714590098091662,0.135958526117220451778778,-0.116103867581622027804755,-0.0744375650382048947850677,9.78781885202747048424499,0.0550443108674519912537626,-0.0205145337664948065881099,0.00169153227972372892026764,3.56228109695042771676299,4.94272632289804558780588,2.09173735806784977242501,1147.51299352997716596292,1128.09177383007931894099,1136.1089717436213959445,1139.12092976190547233273,-316.95291975872288503524,-70.6960314379243470739311,1198.87717009220273212122,-177.546994388548085908042,157.377138730888020745624
20.7575000000000002842171,-0.0632501814413967827777086,-0.388222500541405779461712,-0.658498409359000280716145,-0.0404693583004386223112014,-0.126983671823452826110668,-0.149173874418238094907707,-0.0159341587668902426311313,0.00982108530477263270974664,0.990509045865795023644296,0.136165598874479404356563,-0.11689464349866804382394,-0.0728770890513225355622495,9.78922514166407609081944,0.0555688474247966329722104,-0.0209882423328272040008446,0.00164824549865229307357706,3.56215979865853560326627,4.94281242669763898334168,2.09173099259583938902551,1146.54824829609583503043,1127.9015661119938158663,1139.32376877775982393359,1138.72048615969879392651,-439.98137034550609314465,-93.9786611713290227498874,1335.96667517558535109856,-117.391295245019108506312,157.375938043114757647345
20.760000000000001563194,0.139285341045813054750013,-0.342720695783631901232269,-0.716920217142446691838131,-0.0391286855440736436317906,-0.126863559989028207297679,-0.152473116680454046090176,-0.0157932933790871261880984,0.00975924004959737023678912,0.990484627386095106693631,0.136364146806605746053975,-0.118147702688393779757448,-0.0710011054128304175403485,9.79032835162559500474799,0.0560787202697773656812075,-0.0214523671465548133874268,0.00161731338392160717623569,3.56203891292993013450996,4.94290096787415667023424,2.09172479740136596504385,1145.3130866782485099975,1127.62188052422243345063,1142.78880511950274012634,1138.53397328568007651484,-558.405642624822689867869,-149.276465427949602826629,1503.77579309572774945991,-19.2976941274575644058586,157.37471532079698022244
20.7624999999999992894573,0.344929543226006884992785,-0.301267932883262701260207,-0.64115010047488962818818,-0.03776757946236419805075,-0.126838891424204791569252,-0.156131178150541977123211,-0.0156605520661836951357149,0.00969590360187982600037593,0.990461280654403308787437,0.136553621311191336618052,-0.119783643019139407481788,-0.0687892416390290667438379,9.79110186414284910938477,0.056573599546828640116658,-0.0219029518343190968132639,0.00159762306844188481033675,3.56191837089988450060218,4.94299199472655903520035,2.09171878532325239419265,1143.75622008297227694129,1127.1551837848542163556,1146.84264774323696656211,1138.6239976890615253069,-546.593334445396635601355,-192.39700397878741000568,1410.71747708006887478405,82.4207806475151585345884,157.373221721953655105608
20.7650000000000005684342,0.495296548030470351609011,-0.255441465560569902493171,-0.46713796274769858740683,-0.0372350085143957620914534,-0.127339692137597992882547,-0.158356899281603430429399,-0.0155273219038469419139847,0.00963453989145728051379791,0.99043900498248838015769,0.136734794411884991172101,-0.121610143032851780731107,-0.0662101621116856497994974,9.79152456279216032442037,0.0570532945648968697893721,-0.0223359357948383144276683,0.00158678266217764725627692,3.56179740799702049258713,4.94308592760464460269532,2.09171306146450763918665,1142.58012000602207081101,1126.65989550432868782082,1149.84239250490168160468,1138.94607718891757031088,-407.034332421763849652052,-216.05769478262888583231,1057.71467389991357777035,163.367308105860587374991,157.371955231245237882831
20.7675000000000018474111,0.636706030045723680999004,-0.163065984402855024271162,-0.210155507715184819428345,-0.0368420236917735982595801,-0.128382243733022538556554,-0.159427065369480758239007,-0.0153880815752436041210505,0.00957943141766771921741253,0.990417211982085987642677,0.136912288502148898894362,-0.123490974232518674336134,-0.0632349541715015311948989,9.79157944925133882918544,0.0575177813961300771206098,-0.0227470642289282903858449,0.00158211385721819032014468,3.56167595934191405504521,4.94318287375453380150248,2.09170830453337464049923,1141.72104842086241660581,1126.0748953109405192663,1152.1312211127392401977,1139.44083422959124618501,-271.995297934708560205763,-243.410808771435085873236,760.189244535937405089498,207.848826199411149673324,157.370666886981553034275
20.7699999999999995736744,0.771384623292613258449535,-0.00782353886023501310376105,0.0838891587510522812598524,-0.0359299283463507465596898,-0.129958295541480778334531,-0.159518790436011664857219,-0.0152446231251524115524187,0.00953458789565153098932715,0.990395599429683137771008,0.137087821220542166456013,-0.125426761180027435127471,-0.0598681052928984880345809,9.79125332028167960629617,0.0579668869186155399919613,-0.0231329024150756165645326,0.00158117642201425264575354,3.56155410865697152900111,4.94328273246309368715856,2.09170534521273587813539,1141.22014351634879858466,1125.44284146047175454441,1153.64333872758061261266,1139.98532131991441929131,-107.241217733938768219559,-254.289214907026348555519,391.261016219355553857895,206.392743315650619706503,157.369361440263332951872
20.7725000000000008526513,0.88535822716392953424247,0.237656304775464760625781,0.382881411146576422499521,-0.0340291295104332910947953,-0.131709858469680113346456,-0.158500817421872053358811,-0.0151005881757138339660518,0.00949734678451969772938757,0.990373639984238773870118,0.137264968544146409579199,-0.127431516528792448950114,-0.0562547915857468799893937,9.79053949204165263608957,0.0584005284238085786707728,-0.0234905544169851064617571,0.00158101465845175291786984,3.56143191637903511193031,4.94338530660632535784771,2.09170459602938718646215,1141.18484233219282941718,1124.80344923640564047673,1154.08752619383562887379,1140.47279794616929393669,79.6086342750688515934598,-267.221090609791360748204,-56.6968108734891842459547,177.753907443775460706092,157.368037114374772045267
20.7750000000000021316282,0.973897709441220671422457,0.620294105440291287933974,0.701877226933687481391644,-0.0310488933783546541822496,-0.132715448240240119215372,-0.156206505610695878250027,-0.0149557229319869453704195,0.00946531599735928215466618,0.990350875143267694866722,0.137447216935564581197227,-0.129440661008608653981256,-0.0525281607345320644686382,9.78943999484945948097447,0.0588186244254602502712359,-0.0238181206107872002475379,0.00157824317453118053052041,3.56130952652073151654122,4.94348997244022925201534,2.09170554779420303503912,1141.61818668772434648417,1124.10673600742211419856,1153.35985467321302166965,1140.87409085713375134219,217.213430830540801252937,-232.069821156665739181335,-460.694904052525771476212,107.327900652693173810803,157.366429007277048413016
20.7774999999999998578915,0.990656353465664274438041,0.972394288250959637487369,0.908827108622915269542375,-0.0282687581755026416663323,-0.131804608789598459717141,-0.153744695596391617309351,-0.0148111068511384957185895,0.00943472076803201012418221,0.990327313067943193480858,0.137634631660381284712358,-0.131408979666484987403052,-0.0488524632442673967247515,9.78796418758196828946438,0.0592208859553800745501029,-0.0241152876679834246576029,0.00156980040944070583369685,3.56118696747936436253212,4.94359605016442937852617,2.09170741837534546192501,1142.27090948634531741845,1123.64310013062254256511,1151.78405167357345817436,1141.00943744943265301117,289.943701962295961038762,-149.928905893359853962465,-792.566025472636624726874,12.4517834204222932470429,157.365075755139059765497
20.7800000000000011368684,0.933812573565399040020907,1.28684262865877618864374,1.03388222449348088360921,-0.0253667425263480184050024,-0.128709221362327430604466,-0.151092616667768436800046,-0.0146669313146188338287113,0.00940237935858264338440105,0.990303152388462892830034,0.137825962864306844624096,-0.133273048511512615110775,-0.0453756368113504698902361,9.78612921537928137638573,0.0596068560155908547248949,-0.0243832009761684488646782,0.00155303711426314967371243,3.56106392301463792193772,4.94370273348637834232022,2.09170975149024407357956,1143.06790519753553780902,1123.35709147795546414272,1149.39702454585062696424,1140.93634977423585041834,348.824391839958764194307,-77.0148847196804524628533,-1175.23769046625329792732,-68.9611382584326548794706,157.363712515012224457678
20.7824999999999988631316,0.774646637142316407675935,1.53047237789772427873913,1.07445311018344047404582,-0.0221539391902994993455156,-0.122622274002802858494654,-0.147282146356677301479721,-0.0145255050768617732098731,0.00936548961000074030314178,0.990278534565695700564447,0.13802012278561995306525,-0.135009387055813112610281,-0.0422385428136324986292394,9.78395857018940517946248,0.0599759220937578149679403,-0.0246242977035606748492658,0.00152615661886924152725042,3.56093955567706688114527,4.94380946362326412213406,2.09171230560122811681367,1144.01503144554476421035,1123.2580257070242168993,1145.90786322124336038542,1140.66463175814055830415,326.784824380839836521773,6.03880966859953449699105,-1331.54253807491954830766,-116.489314139812890402936,157.36207006930493434993
20.7850000000000001421085,0.570596003374672977592752,1.57073489357782580810863,1.01280464052321916845756,-0.0200213670302520768684573,-0.116112793191377808299514,-0.143604715010347799841739,-0.014389376302206526025973,0.00932145068169475815578195,0.990253431686157092883604,0.138217205447714874821941,-0.136598228614184691309674,-0.0395706101717653857541279,9.78148202025077928567498,0.0603273872133338329160068,-0.0248420811412635687831507,0.0014880573798727086878152,3.5608129441914413426673,4.94391575321664422659751,2.0917144983353197496001,1144.70182931943941184727,1123.38728552629845580668,1142.73931185547735367436,1140.35390320353690185584,243.398397390013172980616,92.897572915033151730313,-1257.3684026799517141626,-123.06490132862634823141,157.360699940859575463037
20.7875000000000014210855,0.307043227992864153907959,1.41903811022273718123188,0.862120505004679849037075,-0.0186188821527937184430179,-0.109748400895151990153131,-0.1405179706887896839973,-0.0142565241305316163511474,0.00926822096371966719363655,0.990228061304278206478102,0.138415985938981994651797,-0.137932588358787272531103,-0.037467368147713689396916,9.77873638472031281310137,0.0606604691543369475836833,-0.025041216290046609815878,0.001437810588310601059292,3.56068406905357859315586,4.94402071612178684034689,2.09171591600765527374506,1145.2320234324954526528,1123.72251357159962026344,1139.62102120784038561396,1140.04930725149711179256,188.631458216415239803609,162.783877443221712155719,-1191.98890036151237836748,-108.650438127982639002767,157.359333213114240379582
20.7899999999999991473487,0.0106462654014587709827566,1.12664974376143223189217,0.658097076318604812250612,-0.0179150994173305246059957,-0.104731999667004027632089,-0.138666331786714169815866,-0.0141210439317113953250349,0.00920296223104146750293442,0.990202538995585079817374,0.138616431381558380397934,-0.138828885490607845110134,-0.0360166386981550026846755,9.7757646508745246194394,0.0609745873739818075587316,-0.0252269079066812680622878,0.00137455156639911891050532,3.56055281428780645569532,4.94412400045031308337684,2.09171532909475876849115,1145.64498661052130046301,1124.20120491351440250583,1136.77936735367097753624,1139.81065101289709673438,149.077941430534906430694,216.077255706838769810929,-1017.50196308632678210415,-70.4225081336202549664449,157.357972771461049887876
20.7925000000000004263256,-0.300374839356980782856255,0.723206645680557924649179,0.420866049548123788426324,-0.0182647727789490843530729,-0.101979851617220645954021,-0.138086575352648371906028,-0.0139800161090559357801588,0.00912387200573849983797903,0.990177052179508465634683,0.138817629238534440139219,-0.13916662422930414777511,-0.0352802141784381850797558,9.77261275696194608997303,0.061269418689679076839294,-0.0254047418929859679381789,0.00129817107753867825963023,3.56041847770825015118135,4.94422557360258441150336,2.0917119118070264249809,1145.97741313964797882363,1124.80289985013359910226,1134.53351139240976408473,1139.69719471082908057724,147.542713165300483524334,278.113928993928823274473,-793.162889391036401320889,-16.6491091369977191050111,157.356623853768837761891
20.7950000000000017053026,-0.65545397930501070327125,0.209177615268067662590568,0.129963843318518096348058,-0.0198966676256656614663054,-0.101327611902615924432958,-0.138135056501920011617912,-0.0138334551157647308444743,0.00903221436170220486061577,0.990151922377195625735169,0.139017210672741114985129,-0.138894489904775264577097,-0.0352537828463864860717436,9.76932871995929730246644,0.0615450864340217548842382,-0.0255803236665701830276909,0.00120912287525015487918423,3.56028196549362796474725,4.94432604855426927059625,2.09170603841196234284894,1146.38270017634818032093,1125.59177455848475801758,1132.81355290671376678802,1139.72740546721206555958,161.874834262867267398178,289.525358144840822660626,-437.9606702598683227734,38.6242083325291289952474,157.355023260231803305942
20.7974999999999994315658,-0.912001596934517322345926,-0.172417099464133777297903,-0.104319674987027058432609,-0.0220635868683872159168313,-0.102753869363235536549261,-0.138452593672831580917659,-0.0136820015347287275014887,0.00893305807903326497265706,0.990127067955756667849698,0.139215373186028057439501,-0.137989024988897979184799,-0.0358467257334513927924391,9.76596283923606023336106,0.0618025801519176964937685,-0.0257584028627144863421439,0.00110786100308982800484447,3.56014497012980157819584,4.94442618324780003291607,2.09169896952104394927119,1146.78678731096215415164,1126.25052664085751530365,1132.34370804111085817567,1139.89031575249168781738,181.727269787906834608293,252.412669419759566835637,28.7432727114776653820627,92.8451677958221921471704,157.35370779478898839443
20.8000000000000007105427,-1.1032698575179658018186,-0.438277803189374814962775,-0.323620184412017897201963,-0.0248353492501557047977823,-0.105715616911892573703824,-0.1389091303023743395606,-0.0135312970358519319563628,0.00883180554425016563213635,0.990102626213518410835945,0.139410222495992691671418,-0.136532081785618875091615,-0.0369616723460449575489051,9.76256621585329575907508,0.0620435891433153835494707,-0.0259432068315507170785938,0.000994876205387703162544288,3.5600080830391762631848,4.94452647430567004960267,2.09169238470397189644245,1147.2913365252875337319,1126.85383790558330474596,1132.95726927027112651558,1140.19163130619108414976,215.10597977833549521165,225.432978977845039025851,419.998162150308189666248,143.358929789764601991919,157.352415041313861365779
20.8025000000000019895197,-1.22618995850220513510465,-0.581349406772711851942859,-0.527878066355769171025258,-0.0280124827733196357648637,-0.109268627902137385743409,-0.139534338484163078497602,-0.0133824849694029850144528,0.00873111112673439528075736,0.990078249691408451838015,0.139603922140250552574869,-0.134519846054207609098441,-0.038529665919849936939201,9.75919388122877506930308,0.0622707903680988841821353,-0.0261375775898715356770907,0.000869364719244689488492073,3.55987140662789647294062,4.94462783199832678349139,2.09168755628132485568926,1147.86231720985438187199,1127.37769153574731717526,1134.44369885186347346462,1140.60711040144087746739,231.224315690270117329419,184.945170499795921159603,775.848318016069015357061,193.365288574197904836183,157.35114366535188423768
20.8049999999999997157829,-1.25504445769310679636988,-0.578973515859317999776579,-0.707288382149346084304398,-0.0315699217169979062802554,-0.112264170683868652611537,-0.140563990933995686116731,-0.0132342667309316916468553,0.00863624493230749114280886,0.990053474784926113017036,0.139799548900470721468636,-0.131919293861946784751638,-0.0404132279897959911796335,9.7559031431417846391696,0.0624875843636038610928729,-0.0263433640789094772327594,0.000730029112908578523173653,3.55973527931509448052338,4.94473046610264077571628,2.09168560868527997342881,1148.44745810373865424481,1127.77856375808210032119,1136.83651086035069965874,1141.15845774906188125897,236.411476557943132092987,143.714122192324282423215,1197.04077244642735422531,270.233247083760147688736,157.34990097280581267114
20.8075000000000009947598,-1.17552032106150505796904,-0.449473748542817741480349,-0.876471610671928136326869,-0.0359072865063918000849696,-0.114062443666212431914175,-0.142579336455231991953596,-0.013084977388307907769649,0.00855115254673700399268288,0.990028168516359219353262,0.139997973415017296083818,-0.128699389153280413511382,-0.0424896796171180257672972,9.75275252064050590661282,0.0626978206146469319026693,-0.0265619057709478544049286,0.000575432025569364187511656,3.55959996447913384898243,4.9448342797701956286005,2.09168636898487259045964,1149.04437459264386234281,1128.09626214670879562618,1140.42890271409441993455,1141.95827663685940933647,182.267675670336643634073,86.8815445010286566684954,1373.90309175148149734014,309.452485508761753862927,157.348446697580953923534
20.8099999999999987210231,-1.01909635822088762147075,-0.279379605661623509060831,-0.961148405550071971426007,-0.0391672792484392892631284,-0.114045041457959642205999,-0.145046883555921074515638,-0.0129336805443010169347495,0.00847922446700989304591012,0.990002405382320649351868,0.140198583229922235648957,-0.124855417098264254160966,-0.0446410537399119997092889,9.74980033465208251186596,0.0629056891092746872651276,-0.0267940532297354511159782,0.000404627061348350946720642,3.55946551227718632759434,4.94493885900415808265507,2.09168851659126442399383,1149.35879648209015613247,1128.21297148058715720254,1143.70602631910674062965,1142.70572017660538222117,68.8371061275711895177665,12.8735589367377691871752,1284.852507548231187684,302.341529488481796761334,157.347268525404132333279
20.8125,-0.785953799838568833990848,-0.0904264226547195071326257,-0.966260744117917846907062,-0.0417519797533170283765358,-0.113222154216627540757045,-0.148156039595375488282514,-0.0127830099256613111818881,0.00841892601806741927572553,0.989976681565148286523481,0.140397756919014793375311,-0.120452794493262932418176,-0.04684800541504263726722,9.7471028886495520993094,0.0631154691143379215079179,-0.0270404465535533829190218,0.000217533736026828927430724,3.55933216916978079069622,4.94504458263673463136456,2.09169038961061870551816,1149.38856012328164979408,1128.16062994139247166459,1146.85316525183429803292,1143.46998428430151761859,-43.5418765502850035886695,-50.8995029738992954548849,1176.40058015548515868431,295.879336502851913337508,157.346129063709270212712
20.8150000000000012789769,-0.508464517487769995796043,0.0938404237766385512786727,-0.895921081404580932350257,-0.0435743353321031701153032,-0.112434446931734530195079,-0.151379276933226086798712,-0.0126371930119315006163516,0.00836990663691121287992569,0.989951810468550075228222,0.140589427364122138142122,-0.115605841358591032719261,-0.0490682879380822667414463,9.74471329065195313035019,0.0633313716455218972400942,-0.0273015422245043749838178,1.52834906122701049487229e-05,3.55919976747095079261385,4.94515159917037649961458,2.09169089030105626036971,1149.14108709933861973695,1127.9584739657175305183,1149.58802921988717571367,1144.18511685912039865798,-166.332941097367779548222,-116.780720013799097500851,936.927877877546961826738,259.718609101816412021435,157.345024634408815700226
20.8174999999999990052402,-0.205806319882975485846544,0.263831486728334951852304,-0.736588042874644521873506,-0.0441347132793375729331586,-0.111830805403996980107451,-0.154062216498841220158056,-0.0125000950399061627055231,0.00833187290250058353036078,0.989928510353990875891839,0.140768236492075538013324,-0.110436508112742304277276,-0.0512550370837014518388131,9.74268069831509286871096,0.0635575381479712986365627,-0.0275773346378421560509686,-0.000200130451683208654151819,3.5590682485793716516298,4.94526001351150590323869,2.09168989656469106463987,1148.55689541779497631069,1127.57672634132359235082,1151.53780464122110060998,1144.76857732981034132536,-322.661501789135002127296,-202.72642042877518520072,634.818834263741223367106,213.701767049903310180525,157.34396619871253619749
20.8200000000000002842171,0.150999888318964298195013,0.44902871356476770081656,-0.461715331377337223628388,-0.0435456322792448224934247,-0.111029027056457368916043,-0.15615527243064977747089,-0.0123717639998504116971567,0.00830033603968034251752162,0.989906926463299807750218,0.140933447800878158817639,-0.104994997290810604395617,-0.0534308623012423739018217,9.74105000727127823267892,0.0637981088834082277205795,-0.0278669837801880301841884,-0.000426712409358741176067936,3.55893731167660654080009,4.94537028514229870523877,2.09168726945005767348107,1147.52777959039326560742,1126.94484186357385624433,1152.76212339120525030012,1145.25362569436970261449,-414.685119362517752961139,-249.502351040118497849107,259.264382946734428969648,138.551033569840058135014,157.342754355987807457495
20.822500000000001563194,0.423216283042959162674634,0.585905943778810223143694,-0.184189669579296361190401,-0.0425564080818840659303781,-0.110384079394487313874329,-0.156959928672013276917951,-0.0122512964043130639923973,0.00827135575566726941043605,0.989887051124060501905433,0.14108545768794719665884,-0.0993273710339364623855829,-0.0556052100399367921212956,9.73985929001313088804181,0.0640569146181280829610571,-0.0281694192654118984175948,-0.000661958546801287009073156,3.55880683149958931821288,4.94548244668244407762359,2.09168287185502110858693,1146.48346982098132684769,1126.32921458612236165209,1152.83412655595543583331,1145.46133249765989603475,-429.192151607998198414862,-244.386319204071213562202,-144.874843741292067988979,44.3840274384999347034864,157.341796972958178457702
20.8249999999999992894573,0.653472731811282292468945,0.695954142668312902841876,0.116008560430105267524681,-0.0412816562848590876133592,-0.109317194373070858404162,-0.156787769262062282038528,-0.0121373512313798417178168,0.00824083259286708183499748,0.989868720962085113512785,0.141225806314741159086523,-0.0934819810665886152811765,-0.0577904996082171801274896,9.73913857998771703705643,0.0643373933041626877571417,-0.0284835097320322722103114,-0.00090303209698033804972428,3.55867680033435984654488,4.94559595935197382488013,2.09167634504814037299525,1145.38181883235370150942,1125.72291026755374332424,1152.03774917249893405824,1145.47554583156215812778,-428.57874018722554865235,-223.200407487455606769799,-431.519163640309102447645,-20.8515011351706220921187,157.340898922739256704517
20.8275000000000005684342,0.839116069696813959843951,0.770182034373893986689552,0.415746803724771130106319,-0.039356627070923883016107,-0.107340428952699476483623,-0.155975692990892089717647,-0.0120288794334161199678368,0.0082068737554608830325753,0.989851489382282623274989,0.141357863149792067902766,-0.087527994636519945714781,-0.0599594009455277979214749,9.73890883325359624222983,0.0646425375635477916791416,-0.0288081031327565191546558,-0.00114671952097985412923065,3.55854745377376513459922,4.9457094614698000611952,2.09166728520064104657195,1144.34057612004562543007,1125.21321254868530559179,1150.67653073775431948889,1145.35707499198406367213,-379.664918319428068116395,-162.31659504920452263832,-637.357159455943019565893,-68.9567333131082875752327,157.340053685223978163776
20.8300000000000018474111,0.960128771165102645746003,0.782866775573333617543881,0.694975341132328283677566,-0.0365825204575667070616696,-0.10454713443447581633361,-0.15449127230435605317993,-0.0119240056374121591864501,0.00816913025509639206811485,0.989835057542486351778166,0.141483937090573830275275,-0.0815300777084007333161964,-0.0620553634604633433391463,9.73918184697404853977787,0.0649745792631691160279317,-0.0291424005005099379106426,-0.00138987967474859608688065,3.55841845525973310415679,4.94582214424532740082441,2.0916555750142764580346,1143.48349424075558999903,1124.91132729230730546988,1148.85096337521758869116,1145.1307621649964403332,-315.600852041206110243365,-73.1970333431636532850462,-857.718409470715073439351,-109.128681774403844428889,157.339276339034029206232
20.8324999999999995736744,1.02444925197039138353716,0.71547950649116132115779,0.9838925888611030901032,-0.0330854788369829150296297,-0.101227835843829605533273,-0.151549646030207152413993,-0.011820812792750547484677,0.00813090784475761427230189,0.989819084928865056127734,0.141606410617316352817951,-0.0755666225444394656918234,-0.0639548343915472550236245,9.73995996953969367382342,0.0653348637228483991590267,-0.0294856716780391853172105,-0.00162947769851924618642047,3.55828962433105777662945,4.94593417766279852543221,2.09164261947049290313316,1142.76257185983990893874,1124.84722738196956015599,1146.38793869040159734141,1144.81143158311215302092,-207.574524919432775504902,23.7990519783172267409554,-915.473261187799153049127,-114.890182244994434768159,157.338427225284021915286
20.8350000000000008526513,1.0140698635966629570504,0.595576124181893318265679,1.17378094594912196768632,-0.0304302107163665486178061,-0.0989248544386750472412473,-0.148152281916378719683891,-0.0117184784877647357737018,0.00809484785055129829611786,0.98980329711021530769699,0.141727142347446433134905,-0.0697370347784714295080732,-0.0655544253208580202096911,9.74123621838048414645073,0.0657236347256332370525556,-0.0298371081712184155199097,-0.00186296658653923468719482,3.55816072560656238010779,4.9460464331786058167495,2.09162975738069478737202,1142.44562161615863260522,1125.03032255219886792474,1144.27359706927950355748,1144.55631125377158241463,-70.4626571307111220221486,108.555291863230138460494,-825.832202687784501904389,-91.5357977205062667280799,157.337793029072344097585
20.8375000000000021316282,0.947470487894960800012711,0.429828259237412413362733,1.30670148278164210964292,-0.028079113376507772170676,-0.0974133141482712294756396,-0.144543416727923590414662,-0.011614060837817732560473,0.0080621123470097783014765,0.989787420222615121900844,0.14184824270431239945367,-0.0640944607809733057912638,-0.0667784616422712751226953,9.74299538104175333330659,0.0661399286740619180013923,-0.0301955638962762874799584,-0.0020887609687533711944063,3.55803078405743988810173,4.94616024637527562646255,2.09161718813098262970129,1142.41025857418617306394,1125.3900038412859885284,1142.25877767696056253044,1144.35375259450938756345,37.4076791432873321241459,175.791506267604262347959,-830.925409672210435019224,-73.2564888481793161645328,157.337239188705467540785
20.8399999999999998578915,0.81648434098824518301285,0.212227262901697438790549,1.41070301450825175137993,-0.0255452184924844921676268,-0.096823203836648358278083,-0.140671580186486372410215,-0.0115045499475921186860461,0.0080337326804701091054195,0.98977117865101038596265,0.141971843845514311688305,-0.0586861921991420690258856,-0.0675593467530322261405118,9.7452140563202540590737,0.0665815403241383912957829,-0.0305595496968059793241324,-0.00230578586985734487399546,3.55789941588002722738793,4.94627635613811822423713,2.09160507092181724431157,1142.63266001187503206893,1125.90928008353671430086,1140.1189700209192778857,1144.19002880953075873549,112.962059039932412929375,188.422741664263611482966,-716.64193286060867649212,-47.226015322221726933094,157.336672091581561971907
20.8425000000000011368684,0.674747576644426416692113,0.0403549717382323466785543,1.46261782073844837093191,-0.0237213632739272650695739,-0.0972659976251199903662936,-0.137881156003001548171483,-0.0113905504309769669418761,0.00800728857194081024284404,0.989754769404589729298038,0.142096660083884995806613,-0.0536133175868395497887242,-0.0679127733379995129903151,9.7478606561816665276865,0.0670449244576098168924005,-0.0309277502132911594201481,-0.00251313458603841287722358,3.55776635722151457486007,4.94639527499273512489708,2.09159383676455101763736,1142.97506886938572279178,1126.33211754960711914464,1138.67556801265823196445,1144.11762251789832589566,153.006118687911538245316,153.733302359872709530464,-485.121603819385313727253,-18.721818213183809120892,157.336283987897701308611
20.8449999999999988631316,0.510945676071467458356778,-0.100964437472253171224068,1.48598448432507423966342,-0.0223559594857859166017189,-0.098257116607006894648535,-0.135196140191142705200278,-0.0112700929540179052568138,0.00798000259625516496220232,0.989738127324942262852403,0.142223449181128031026944,-0.0489167050037415881980074,-0.0678612952290960080858895,9.7508972476053106248628,0.067525677286459098724869,-0.0312984752346768466124693,-0.00271039832610215931235631,3.55763057545376959467376,4.9465170439742776054004,2.09158335129337036306651,1143.3976906053144375619,1126.67794659533592493972,1137.69336200182283391769,1144.09641971846485830611,170.986220181509821713917,123.311545315688789514752,-306.238809978883182338905,-3.30385228426232302467724,157.335987211133016216991
20.8475000000000001421085,0.337415803154144988695862,-0.212111090571723392983472,1.48156859212609970377628,-0.0214056521385080390784683,-0.0993687250161985752283655,-0.132093913973334253775249,-0.0111421445862641688151484,0.00795311405957667937050015,0.989721089630590800112486,0.142353343434918871990291,-0.044655173360245083158393,-0.0673601852236825060504799,9.75427955388089173993649,0.0680187291688675588208213,-0.0316700603147452089403124,-0.00289666715576655147204588,3.55749140706240041254205,4.94664072163156465222755,2.09157351577787675722675,1143.82999997029310179641,1126.94867527618544045254,1137.14437396276412073348,1144.10110325647701756679,163.504144010092232974785,97.1429588375443557879407,-114.166424612072461286516,4.46748168778639165310551,157.335768621806238343197
20.8500000000000014210855,0.161465006963849105892095,-0.293815790513740737743831,1.42846856098802366119571,-0.0208658264995113182371789,-0.100357584669232016705287,-0.128326987521323265806217,-0.0110083480150402947955746,0.00792442169456490479173549,0.989703253940558247414572,0.142489118125318170449134,-0.0409168716805997853547261,-0.0664465483620046981627638,9.75795741818850537185881,0.0685187989904878225200235,-0.0320406979940373662363307,-0.00307071795314055881812032,3.55734892529021351492702,4.94676526211865574822468,2.09156361825431824641441,1144.21521132536531695223,1127.16366138952389519545,1137.12252987876217957819,1144.11875712690380169079,144.694979506295254623183,97.5987792107583516099112,96.8774041779590220357932,8.62170183431943470964143,157.335646772564160755792
20.8524999999999991473487,-0.0417241298312872044284916,-0.377401329421723663593013,1.28767623296177902147974,-0.020679596699979735374697,-0.101157806243048459249323,-0.123709472802535844215832,-0.0108695221296534194621586,0.00789099426910085978426057,0.989684265553915420987607,0.142633327126216763458544,-0.0377587451593032544239215,-0.0651778926432268063129172,9.76187609032506209416624,0.0690206186754733774790793,-0.0324086305708860822338835,-0.00323112434233260208474303,3.55720365817488914927935,4.94689021920291605027842,2.09155243866325157853225,1144.55347486782443411357,1127.43666917223913515045,1137.62876098365381949407,1144.14421176564860616054,94.0229900056879728253989,113.482336437004803997297,252.497683200959016858178,11.1039438777447045936242,157.335614867586087939344
20.8550000000000004263256,-0.196783552443030806955448,-0.450955120776162565743306,1.09700165759951784316684,-0.0208666944746270337229799,-0.101438362954258454173839,-0.12022371090426801909512,-0.0107299260427426036007548,0.00784940364680781176021096,0.989663933031668219264532,0.142787150442398674821121,-0.0352895575607449704658158,-0.0636400068618532960273981,9.76597641580873698785581,0.0695191804367527449448616,-0.0327721352708986238266853,-0.00337573557701971319403023,3.55705619245945570128242,4.94701591643131788345045,2.0915387806405418835709,1144.68532627539366330893,1127.7310730717088063102,1138.38501829476672355668,1144.17427684629251416482,13.7109240739776279127682,137.145454042295426688725,338.958729382065314439387,17.4773483150058090984658,157.335684843251641495954
20.8575000000000017053026,-0.327092751786196178631627,-0.540235590736822368640446,0.829395928076416044660846,-0.02140855293921189311801,-0.101674048508201039786591,-0.117175128857464019849211,-0.0105921649762352586970904,0.0078029607876127626137075,0.989642353763061422000646,0.142949506960553252010726,-0.0335921782453100850607264,-0.0617932758299708784210935,9.77019649967498615694694,0.0700098591886507692905184,-0.0331295608057767115850467,-0.00350192130046790908726173,3.55690674477046142598624,4.94714229473865341191186,2.09152221294649764971041,1144.6220294881943573273,1128.12239644245096314989,1139.32355463056501321262,1144.23159850722367991693,-58.4743625888338911522624,168.731713633484929459883,381.585374004938330472214,29.8119934368119352541271,157.335856005541870672459
20.8599999999999994315658,-0.428217656843651817144547,-0.64067897063290135672986,0.505961931374286577600685,-0.0223692376093956694915743,-0.1022071428135373771795,-0.114476270418164591258225,-0.0104597219528833260127065,0.00775437987904257965826593,0.989619930094457478375602,0.14311717970833920388074,-0.0327528685767241936610539,-0.0596215638321211244265996,9.77447246861059149125595,0.0704885987093598898045599,-0.0334791355477720917188655,-0.00360720252866413189363204,3.55675535683202737047282,4.9472702494870741674049,2.09150285601908914046021,1144.39295446244955201109,1128.5747316398760631273,1140.292945164791035495,1144.32333681347654419369,-123.435843285757982812356,181.628014427032866251466,373.412112724628684645722,44.2259952706623806761854,157.33611134717796176119
20.8625000000000007105427,-0.483430573719178302560806,-0.737980444591630480033473,0.139063934805987138298988,-0.0238716047707683148848545,-0.103299268859494530747867,-0.11253907082771501257934,-0.0103376490717268145619334,0.00770367324834168171188153,0.989597146115479442407548,0.143286426578256270714107,-0.032869699180015581052583,-0.0571747514738660672639625,9.77873979662336090257213,0.0709521762524068372313124,-0.0338186800190237030205864,-0.00368972307301882731719878,3.55660307607669956553309,4.94740077719255122445929,2.09148168537283618562128,1144.00485027176569019502,1129.03053651458594686119,1141.1906151941877851641,1144.45272848357694783772,-184.501669346715260644487,174.60787124209835496913,363.241326746579659356939,58.8193361229213351748513,157.33646798268736688442
20.8650000000000019895197,-0.487707192931416844139392,-0.8155276162117699456644,-0.298142196589082475455257,-0.0259555934504630755887966,-0.105452468227473214468226,-0.112236384054898191697802,-0.0102256165316602747050734,0.00765226135031718459472705,0.989574335851517328244142,0.143454860634516317974274,-0.0339306482459224637016071,-0.0544693239025421244159375,9.78293574051179781747578,0.071398388417028335606318,-0.0341454866729793901636292,-0.00374910850881221124203391,3.55645088613645610209346,4.94753403977236594357692,2.09146021807521309554545,1143.47044611571550376539,1129.44777099608700154931,1142.10915179852486289747,1144.61743349409130132699,-183.627034112341931404444,108.436573459833851984513,307.927445914099166657252,53.9996552521295711812854,157.337012113036678329081
20.8674999999999997157829,-0.440055723846252355713204,-0.816644188934173342886425,-0.609034305069492964967992,-0.0274879079465361435274939,-0.108168903594953291769087,-0.11433074016983706122641,-0.0101190556180687854515021,0.00760110377981777947387076,0.989551563443061721336846,0.143622295240989739095738,-0.0358317364178379130223995,-0.0515269799735702804799331,9.78700093298140139097541,0.0718261206125529877430935,-0.0344563937852152279983642,-0.00378663187544065566944584,3.55629957761915971303779,4.9476697907846345358962,2.09143934031104938853218,1143.08671510120416314749,1129.57271938188500826072,1142.73025242375797461136,1144.72272675983754197659,-109.966703958638447602425,-22.8203891906150531099229,221.94515075907344225925,24.7965055754825023370813,157.337561338669758015385
20.8700000000000009947598,-0.348088563345303469986902,-0.720822231343174468776169,-0.808780116544802973876926,-0.0285528970853554456277301,-0.11154102435969281970074,-0.11821919929959040507228,-0.0100146434957331022935767,0.00755251349807620295934152,0.989528763273300859815151,0.143789285252406390247515,-0.038489932920707660424231,-0.0483540861419680112476271,9.79088039328036430219981,0.0722351726747586242449728,-0.0347482573310947534528381,-0.00380430893446055381004745,3.5561496654709299214403,4.94780776812095446359763,2.09141952300450650881203,1142.92061259592242095096,1129.3336690501339489856,1143.21887755232000927208,1144.74141602196868916508,-11.0002799610378190209303,-170.081626176476873979482,176.717517424266276293565,-14.2400490506162125114997,157.338208564775271725011
20.8724999999999987210231,-0.229573082847557619068368,-0.535505907346678022840081,-0.894439815418600070451305,-0.0293023949943611201895965,-0.114647888282871604492819,-0.122251546457648796462081,-0.00991007824781335762420742,0.00750710026663091271881267,0.989505867335502498072231,0.143956426437515161431691,-0.0418316303109512940827663,-0.0449990651839472094453143,9.79452525729460710124386,0.0726259897513270580304834,-0.0350182897504049128745152,-0.00380506169423242002203267,3.55600098339939219016514,4.94794771034858449354488,2.09140114325891746105412,1143.03171370139898499474,1128.72231125100279314211,1143.61384001087913020456,1144.65152651458447508048,123.723696722642728218489,-336.425858053620288501406,134.729949088504753262896,-68.5485122806903746095486,157.338935878499938780806
20.875,-0.0927284467539179202422162,-0.255092341562571989221908,-0.847731846505168862293544,-0.0297827495796485972046064,-0.116602742622267455119278,-0.125256868236324980792062,-0.00980360204390099548854565,0.00746481914316475970300191,0.989482953116351704458964,0.144123314939498620157465,-0.045787460965324940087573,-0.0415292059598201881986945,9.79789417613051227817778,0.072999328744232719334839,-0.0352644598910607093289471,-0.00379249223182883061014636,3.55585337127544232060927,4.9480888549113641872168,2.091384703233883257667,1143.53923107953551152605,1127.65153975986618206662,1143.89252729776239903003,1144.39867346056530550413,312.019922813601169764297,-554.469191234136928869702,85.748909380665068624694,-152.200929982440698040591,157.339758192266856440256
20.8775000000000012789769,0.0735220516911110066882173,0.149525766390474157407908,-0.672779879353617382697905,-0.0299841433561272643903983,-0.117321923518348122938981,-0.127306700310187537183992,-0.00969211657274515400728454,0.00742591093904554615939828,0.989460235020770739744478,0.144288683290737074216281,-0.0502590138835264307881623,-0.0380050816167297328407315,9.80095453207163203046548,0.0733559919649322683676829,-0.0354856590989224007781644,-0.00377079354287840210271932,3.55570694295766287496008,4.94823085179484412066131,2.09137054363258023670369,1144.59181331546778892516,1125.94996529483069025446,1144.04258455778267489222,1143.89052186467188221286,443.680162122061176432908,-658.581871095833889739879,11.4235951954037755484705,-218.663369450312387698432,157.340852570206834570854
20.8799999999999990052402,0.197981302630051397839495,0.502235355828415497292383,-0.458228860783484404084476,-0.0297679533565189807786666,-0.11657563299625817165861,-0.128133259891584944112353,-0.00957629496635368886170436,0.00739205301363821034449364,0.989437713160160603464988,0.144452397715381930520806,-0.0552213551643120012513144,-0.0344703143738665021555967,9.80368206337083414325662,0.0736967453086404405970811,-0.0356815062645781597150396,-0.00374363793088978036999181,3.55556139389810610396125,4.94837356520771098900013,2.09135904961088847642259,1145.75763189014537601906,1124.35863040438766802254,1143.94964527373940654797,1143.30535661331396113383,493.543741674291538856778,-617.044619836574383953121,-99.6153704350688684598936,-260.819534184572205504082,157.341852453302067260665
20.8825000000000002842171,0.286928097652593638855478,0.818169976774381302320194,-0.202253580501745577890915,-0.0290785531528230389852752,-0.114263720313654296156791,-0.128822074861335955642261,-0.00945430639613042793356623,0.00736633626408525563761254,0.989415239860080064637771,0.144615430756858953653676,-0.0606012635137532576501407,-0.0309319579971713033705871,9.80606178675293271851388,0.0740220163941956860176319,-0.0358524237731222827907374,-0.00371464435989815556712901,3.55541605812686256626876,4.94851672448793244996068,2.09135085467144543613927,1147.05953202383875577652,1122.86474219564843224362,1143.54450770560742967064,1142.58642419374928067555,557.177958104954655027541,-569.191264601868056161038,-264.311426389759901667276,-334.041428601505799633742,157.34294129707134857199
20.885000000000001563194,0.328400848332378147986788,1.10117733892004832085831,0.124974904230861272314002,-0.0276775882082972990438918,-0.10986886334326365077807,-0.129432347506071993015198,-0.00932327180183987504202836,0.0073492607682792586085152,0.989392431584753428985834,0.144780575706422137693963,-0.066293694988986989757862,-0.0274399651155561828674845,9.80808770339706725849283,0.0743317663013344370748214,-0.0359995008625408688396341,-0.00368713596887952936229094,3.55527043493850358757413,4.9486595205795493868095,2.09134416719390880956553,1148.54352168067157435871,1121.51267408137687198177,1142.62808814178993088717,1141.63514947030557777907,497.079669518333275846089,-385.382331254262965103408,-409.006694102153687708778,-351.5666980631766591614,157.344347891217012147536
20.8874999999999992894573,0.294576030139858502376882,1.23258993341687816958085,0.391640334425144398533547,-0.0261379284371021369803856,-0.105613205353418018739298,-0.129258222314110549078237,-0.00918581199468807008123861,0.00733820316344420842807894,0.989369080414570278847464,0.144949223378643521353837,-0.0722869646045130598288608,-0.0241139799818337677295155,9.80976092386637610331945,0.0746251822788136787156787,-0.0361248756483800934069528,-0.00366298584358151508438839,3.55512413497532309136773,4.94880115680074172956893,2.09133620674855036369877,1149.54493037142992761801,1120.93783053937750082696,1141.49947423509706823097,1140.82859070343374696677,319.858201684628511429764,-94.450666486655478593093,-516.45598963247084611794,-311.900474479869671995402,157.345601129274371032807
20.8900000000000005684342,0.183342384678963299382559,1.25070860940637151870192,0.617786237305789520668498,-0.0246187541593588972432816,-0.10177283923687968636429,-0.127942284549568352503002,-0.00904800727039930738349049,0.00732655490754017223176131,0.989345573506280384634692,0.145118663250436125133902,-0.0786200851611313089595257,-0.0211521238989740359426328,9.81108895908051437118047,0.0749003896843652011705572,-0.0362319694558338040168977,-0.00364296271655877284406655,3.55497671098339074191585,4.94894273173543908228567,2.09132553933629283804407,1150.14281268909439859272,1121.04042074894368852256,1140.04580819362809052109,1140.07564709790653978416,159.869694941344334893074,148.670402495205394188815,-620.065081930580390690011,-285.35245647548390479642,157.346935663213514544623
20.8925000000000018474111,0.0141047424197334927281622,1.18642113671905535809969,0.782150653538886131421748,-0.0235222295430214667355528,-0.0984572607320556708598858,-0.125382600547044475991498,-0.00891344202196387401515576,0.00730799863779149627696086,0.989321646815802480112723,0.145290766365343104737917,-0.0852781607833624222259061,-0.0187292847930455239047198,9.81208532584183501512598,0.0751550575793650671441171,-0.0363240580628364159720967,-0.00362743667469158726293643,3.55482715399711679538086,4.94908475199696429314145,2.09131246910339374522891,1150.34427884613705828087,1121.68118255185390808037,1138.39914882544258034613,1139.40182842105559757329,-12.4100439690689334781837,357.150586284367932421446,-682.089199266464902393636,-247.563485050754167104969,157.348335335845348481598
20.8949999999999995736744,-0.203812910254659418463064,1.0463157443721946560089,0.845612380611318270595689,-0.0232914182898256993947683,-0.0956285923958218875284842,-0.121725853631765940088272,-0.00878061271365013912282294,0.0072784689910926278488823,0.989297125194105952949997,0.145467009864216900716372,-0.0921474727145432659369817,-0.0169501786684568001017936,9.81276885425601719248334,0.0753861732733137890338782,-0.0364049336726248451423515,-0.00361693523180269156658273,3.55467497765447504320946,4.9492271288873315171486,2.09129805365749454892921,1150.080762469249066271,1122.8261736803651729133,1136.63536219729644471954,1138.83782967265301522275,-198.209477980338618863243,562.354372595084896602202,-770.541720991894635517383,-225.98896269641903700176,157.349810625017624943212
20.8975000000000008526513,-0.481563810150060611636746,0.825757901259290272300007,0.79765318001201390707422,-0.0242842293941181591732104,-0.0928339869384426225051854,-0.117667229246377486040487,-0.00864647033428706142388354,0.00723658502833645928681294,0.989272243793386074628415,0.145646052313201601613457,-0.0990854620919510709065037,-0.0158497391389568892394735,9.81316192511234675066589,0.0755901647176861479771048,-0.0364791719916025894421274,-0.00361190824766881432225651,3.55451983408248350926328,4.94936932247588590172427,2.09128324186728375977395,1149.35323145623556229111,1124.49295441482877322414,1134.54644022048387341783,1138.271883607573727204,-304.785860269683837486809,612.26483895798594403459,-735.262992654576351014839,-195.28242855084513962538,157.351664368736294363771
20.9000000000000021316282,-0.693954025360124959753705,0.625576119557954224426055,0.671028425897840397063021,-0.0262055905994999123465039,-0.091198278795741563595989,-0.115519472953347149268843,-0.00850982591428028900537583,0.00718455470128364671877907,0.989247063215135780112064,0.145827459168756751184404,-0.105989657309268431317761,-0.0153848618266350933847519,9.81328858596786801626877,0.0757635293236398610350335,-0.0365514126569130293198384,-0.00361230819703257455613454,3.55436199931873630930568,4.94951092081288379631587,2.09126916430771814248146,1148.55683316789986747608,1125.88749787515666866966,1132.95904723402168201574,1137.86141752989829001308,-315.666740075011205135525,509.179290641497004799021,-568.592154806696612467931,-159.303469531855483865002,157.353275543490070731423
20.9024999999999998578915,-0.852336038118163497045998,0.440356266767381709925644,0.489583185696323697211341,-0.0289180448629801252480309,-0.0903276458010245919538761,-0.114550028512257040524958,-0.00837373216157548568017166,0.00712107840975893541940467,0.989221898630414542274991,0.146008990567916441261076,-0.112824551831072844576553,-0.0155788658747981548224892,9.81317381970386293232878,0.0759029716687274480513281,-0.0366264983000505195409602,-0.00361791396565907434970666,3.55420206848911357511156,4.94965234654562102889486,2.0912557584258157916679,1147.77489775586082032532,1127.03885086803575177328,1131.70347944645095594751,1137.4753662599146082357,-281.339270017735145756888,396.066748213876621775853,-420.670027914404272451065,-152.247216481039970403799,157.354951705272640083422
20.9050000000000011368684,-0.948936743637115776017765,0.288214910919527278476693,0.289145379698019289183009,-0.0319652707270365599168116,-0.0899824825776591175063857,-0.114060159905607985675324,-0.00824307794588876631414198,0.00704856847795645811288745,0.989197133312616605493872,0.146187644007796491152362,-0.119596798380369379044552,-0.0163750084747233959348023,9.81284241819368041603866,0.0760057395739265478917801,-0.0367091743710467530159569,-0.00362789987767822867323342,3.55404038695167301398214,4.94979310605657563115756,2.09124246636226551743221,1147.15013681781147170113,1127.86783161622565785365,1130.85569709445007902104,1137.10018144749324164877,-188.081867820929943491137,246.683607666276628833657,-213.924756659795804125679,-141.288736164352400237476,157.356678664926818100867
20.9074999999999988631316,-0.963885717292875643380512,0.193662456722358988780996,0.091034463347152080880953,-0.0351002252241912823804704,-0.0900862460576990625726879,-0.114094205551396488118598,-0.00812121304963935204679348,0.00696317838940732364988451,0.989172812159290870681616,0.146363087821532733556751,-0.126262728426192516462123,-0.0178219191288885789314911,9.81232053300824169639327,0.0760700620513345832085506,-0.0368032912075094420512045,-0.00364219522141826087743843,3.5538776992092606654694,4.94993339077318772467606,2.09122945700455353801317,1146.83448841675635776483,1128.27226890636688949598,1130.63385566315218966338,1136.76892257909298677987,-56.7961088688320359096906,99.5483854557021743403311,65.9028086800066574824086,-118.239814115964563256966,157.358462931515589389164
20.9100000000000001421085,-0.895143828019287379760272,0.157331024848694711604224,-0.121054452518780386593988,-0.0383052418454527185409653,-0.0904821942945325807805546,-0.114971396859596147743687,-0.00800679782110326650201859,0.00686363964982317480839624,0.989148756777916249305349,0.1465366489627261403772,-0.132694675563641090176858,-0.0198945012756879813231592,9.81163518087186403704436,0.0760952060532097684930619,-0.0369118489502150565195748,-0.00366104844128717441670284,3.55371395876285856019194,4.95007324079163879559928,2.09121768127041374185637,1146.86615627346736800973,1128.36557354350406967569,1131.18521113785004672536,1136.50898237691353642731,71.9946961848195314814802,-0.193407410506453020238027,336.058010622819836044073,-57.1263338395218553955601,157.360664929420522639703
20.9125000000000014210855,-0.780323592023494883029855,0.188867801753298980571572,-0.268232168762105038783972,-0.0401941000916542570675638,-0.0908418137273728359959435,-0.11618687291994878041379,-0.00789945271539866863963475,0.00675457972074259768713311,0.989124827062522249399024,0.14670907209493480594098,-0.138802763974478049480155,-0.0224474145168503391722936,9.81081189049288937553683,0.0760814662430260857384212,-0.0370371931530934991871895,-0.00368380404765233362626708,3.55354995479239077482703,4.95021298381344809769189,2.09120738062057887063361,1147.19446189768063959491,1128.27130186931435673614,1132.31414571626714860031,1136.48329090989523137978,167.408367905624459126557,-28.1658380366990606091804,566.699458431388848111965,43.6184706556646588637705,157.362546535892050769689
20.9149999999999991473487,-0.625793946980329196527748,0.268711443775628056052085,-0.387473914000878216779,-0.0417824652531858173332147,-0.0909351629135043415530504,-0.117392255329306471889339,-0.00779476870419718113197627,0.00664273283958234650459218,0.989100763572850594229635,0.146882037413912036605268,-0.144429768800696883834789,-0.0252767937740078843522618,9.80987657859883910305143,0.0760303062781892274868412,-0.0371806397003596120209856,-0.00370977287858474582410429,3.5533862860963467689146,4.95035277829036957086828,2.09119739412185534632727,1147.70319811299532375415,1128.22474435332060238579,1134.01870843000642707921,1136.72707473019181634299,204.364477197982267853149,19.7641355106537268682132,745.942150160738606246014,146.003610097824946478795,157.364471352290848926714
20.9175000000000004263256,-0.451751163888427675896509,0.367582709366084559032828,-0.493380643005825902935868,-0.0434244831751023421806401,-0.0905622117374431240266475,-0.118333860897006704071543,-0.00769245086950199122299843,0.00653232875290455945044288,0.989076483699802944116186,0.147055940625198583449063,-0.149498644961434196121175,-0.0282352742097733561132955,9.8088533067990084646226,0.0759442553033008310725549,-0.0373426931627611827235746,-0.00373742209127046970743025,3.55322363742742863834678,4.95049281021226583732187,2.0911858004824002144062,1148.21628428367034757684,1128.37012254686760570621,1136.04385646707009982492,1137.21330896038421087724,167.40099612548496565978,126.92000310278545782694,839.814918817435341225064,248.170670951649668722894,157.366427949761742866031
20.9200000000000017053026,-0.272270099839544421627124,0.456053825163889092753067,-0.597295175236623232528643,-0.044753458447427681143882,-0.0894921125958320629045772,-0.118970431038655344302413,-0.00759761897833135298879759,0.00642391885087390587111278,0.989052452356007805178706,0.147227365492250017453557,-0.154036979149244579456735,-0.0312604622755424110813749,9.80776365301997543610923,0.0758266573659352877134765,-0.0375234130688370248751795,-0.00376441738311041268830182,3.55306261728570582647535,4.95063379542040671310588,2.09117126545642495472066,1148.5402030936231767555,1128.8593443688348543219,1138.21778302409575189813,1137.96792808495069948549,54.6536042495626617210291,299.103433883933973902458,928.248893312641484953929,380.325485715168895239913,157.368417729376318447976
20.9224999999999994315658,-0.0820326715736724582095363,0.504754606229288582674997,-0.729086731780042018868926,-0.0451210101451534756344941,-0.0873400008464008670294731,-0.119671905992099272819651,-0.00750944601203025301205951,0.006318066304960370978272,0.989028877529382177691275,0.147394929542402769451215,-0.157969173809493795834769,-0.0342740651945852015103355,9.80663048157302696949955,0.0756818921896782875746723,-0.0377216489142955593849571,-0.00378918486775379559708399,3.55290396427579491245297,4.95077597503333777240186,2.09115396042491896722026,1148.48955230491810652893,1129.86563971628697800043,1140.68510093363238411257,1139.11493638895967706048,-113.164719624068993653054,424.196373353509272874362,841.656511422828884860792,448.952818246696722326305,157.370836866682225263503
20.9250000000000007105427,0.030047495506016836525065,0.469351565732663289498561,-0.839336455800114400460643,-0.0441719978714529559749025,-0.0848702807047291701847413,-0.120534515776094960926024,-0.00742372698390052557226859,0.0062169707109409914555509,0.989005878919840597518487,0.147557960908841934166702,-0.161173034424901384653595,-0.0371598466842803371035231,9.80547759323434675593489,0.0755151105366496933068987,-0.0379354120840663666669457,-0.0038108110547896297502779,3.55274748288026165354836,4.95091927677883969494133,2.09113434125712416289389,1147.9743794955029443372,1130.98032623560197862389,1142.42606558120905901887,1140.21269217618373659207,-311.134706263305815809872,468.917714503719480489963,598.728906936879184286227,454.772247421391682564717,157.37287367615991229286
20.9275000000000019895197,0.0733169014973832910975204,0.338150507007401235348709,-0.926019573991047506567043,-0.0423528665939636034254434,-0.0821241518214267385289418,-0.122124173061215188229589,-0.00733654403802518149252387,0.00612476978137669551133238,0.988983734842686201815809,0.147714636572745694476083,-0.163553368709125762636702,-0.0397699991277656247912198,9.8043291373745464767353,0.0753319113328952960628726,-0.0381623315286353445574541,-0.00382888249978675368132008,3.55259280226299223315323,4.95106311446374558471462,2.09111349742882435265301,1146.93387877360078164202,1132.21022828880677479901,1143.67874546831831139571,1141.38879762606779877387,-492.770241157684552035789,478.165339212004823821189,410.146316487034482634044,474.017443487813295632805,157.374925650263264742534
20.9299999999999997157829,0.061048692294092626875468,0.134289491238396979655434,-0.964782140894859474578027,-0.040711145769845615005611,-0.0799465898971042782106267,-0.124581696321904175639439,-0.00724354393792375154254026,0.00604482826546014987562083,0.9889622703070966025507,0.147866227344130574117287,-0.165020780088298124610446,-0.0419783206124417912485924,9.80321095763167349446121,0.0751384581173775156770489,-0.0383991138670824530554349,-0.00384409972296557815585327,3.55244102297326858064253,4.95120751457920693638926,2.09109382264924281713547,1145.51052828971501185151,1133.37115293166152696358,1144.4767971636438232963,1142.58277939362233155407,-630.970987699209217680618,407.369952968782968127925,215.273989137219444955917,472.140255006982670238358,157.376985390470309766897
20.9325000000000009947598,0.00776257216550380393926822,-0.123177526084856867050199,-0.908805704391945301523492,-0.0404871777949743910651748,-0.079557457432004319297647,-0.128113849527291517871319,-0.00714373571725150473266108,0.00597301436710835804977382,0.988941334309290320803143,0.148013979812750329223547,-0.165546254655648095166498,-0.0438221673392053812090552,9.80215043497982385645173,0.0749410150712218198210124,-0.0386420636239078879592412,-0.00385842359754654884787528,3.5522923444316600871673,4.95135310210927759300148,2.09107680297964337867711,1143.77902383510536310496,1134.24707805365028434608,1144.7551154140041944629,1143.74949890110224259843,-777.023028863022773293778,277.14293093209619200934,28.1731397895838782119426,496.5636441134471397163,157.379048793166077757633
20.9349999999999987210231,-0.0557365469584212569476023,-0.431994106740823946566366,-0.700449857078435655921567,-0.0420980417480374333183413,-0.0813868114653770596822469,-0.132846663026693678766321,-0.00703888311077970063589504,0.00590114477940585982485011,0.988920971706395923739308,0.148157847926352115308646,-0.165159029511224769715128,-0.0454342935883443529987424,9.80117693891692098873136,0.0747455235486907537678647,-0.0388874736822689900939132,-0.00387457797467040312294762,3.55214699797910604672779,4.95150049026921212913521,2.09106259908841707328975,1141.62541314540067105554,1134.75686758632173223305,1144.61766286259171465645,1145.06559761418907328334,-755.721817143844759812055,78.81841858503979381112,-101.931922299602135240093,461.237650678641216472897,157.381521882829787273295
20.9375,-0.0818083705035865388355276,-0.647363622013772732621817,-0.409791855842357055639269,-0.0441122809322602379977774,-0.0840256881540929062568424,-0.136138960964552718779785,-0.00692534910025189784366084,0.00582508524800814161265228,0.988900885811845209438786,0.148300143482582219567334,-0.163810793013013461516536,-0.0468632647633449514468218,9.80032473201521270311787,0.0745574914236315222648699,-0.0391314143413385301384366,-0.00389597798132496281678372,3.55200471721617327958143,4.95164969783995712049318,2.09105027675426002886638,1140.00041474938689134433,1134.64117014657540494227,1144.24545580250628518115,1146.0556871544949899544,-560.493284453091064278851,-159.452192735998607986403,-168.415230129135380821026,362.377320073024918656301,157.383575115980363534618
20.9400000000000012789769,-0.0756646068034796392964836,-0.788549870522799567496008,-0.0320910723107497991568593,-0.0455491086050827248543627,-0.0867539087605979780670751,-0.137777609511060550318007,-0.00680269018924039604867549,0.00574320851520110538246389,0.988880590109230794837458,0.148444191491384630543493,-0.16153647854742567147035,-0.0481278422519522547373683,9.79962982485816525013433,0.0743816534650301730557942,-0.0393701917476483309599189,-0.00392534696084840054042253,3.55186418638658230051419,4.95179969447571544094444,2.09103917363461855316586,1138.82294672313378214312,1133.95960662264133134158,1143.77558671194560702133,1146.87748421455512470857,-362.053887392748208640114,-405.10934653988317677431,-196.909103738055875965074,302.147276362089655776799,157.385614302799126562604
20.9424999999999990052402,-0.0593319103634642602829175,-0.861956745008263247598279,0.448877052889528671553165,-0.0459560105438956423284935,-0.0897108876192394821824649,-0.137381808436490476799108,-0.00667546667195841655212396,0.00565662545514443795835469,0.988860103117699784647243,0.148589598588277138624392,-0.158488438146434845732458,-0.0492160686213426595836395,9.7991289412435893524389,0.0742213945641722744328561,-0.0396012514592556721937378,-0.00396420354365035337851353,3.55172427243487343062611,4.95195025217486239910158,2.09102882255529465282962,1138.19014531242351040419,1132.61562341387639207824,1143.26091028381620162691,1147.5664235363051375316,-75.7972383367055755343245,-546.567153774748931027716,-166.008515807958531240729,183.567615676147539716112,157.388038149789508679532
20.9450000000000002842171,-0.0692281632904503951841946,-0.846068087302723093046097,0.810121480103275559692122,-0.0452646092042099101870889,-0.0919740950129289691616918,-0.13504991141746294780468,-0.00654750765233340793064487,0.00556637790854972412668555,0.988839315386012440711738,0.148736858885679640307487,-0.154814520905551283869173,-0.0501232163237457228888161,9.79886122881099730363985,0.0740789892155441775933866,-0.0398225440992841378529121,-0.00401375758857671575269288,3.55158406237076285094645,4.95210180303734315288011,2.09101911192679956741358,1138.44396053145032965404,1131.22677085376813010953,1142.94554413290597949526,1147.79532229293567979767,275.232378109599437721045,-558.582145830210492931656,-98.5917989670220293874081,-3.52157560259731239327152,157.39003374241593746774
20.947500000000001563194,-0.134683806580046222522995,-0.759367117332173768851078,1.06166922006310571191534,-0.0441664216707980325504757,-0.094170401546005602644307,-0.130999901506401700279625,-0.00641790597037718377887439,0.00547686454062730997127684,0.988818148083309034213073,0.148886340864070487732818,-0.150588110840133931889184,-0.0507722311916756693928043,9.79886828868738035680508,0.0739555554683091059819944,-0.0400327457485982890483811,-0.00407497062549501843503608,3.55144342864769502199351,4.95225407142922868786172,2.09101050126651522020893,1139.56630720297221159854,1129.82271268472391057003,1142.76795128898083930835,1147.54881565829214196128,584.417710161895115561492,-520.862103637968175462447,-54.2280016976400105477296,-189.042966251591991522218,157.391998724104979601179
20.9499999999999992894573,-0.255800666026790857188189,-0.623757789399776663152863,1.18717475719010856494151,-0.0435043209271066336207845,-0.0962323263835374448360582,-0.126260694558034652912326,-0.00628382828624055207733523,0.0053881204213733508573414,0.988796494745908471912799,0.149038842997322507066826,-0.14583759458441172829346,-0.0511702626508849442443783,9.79919198719152184651193,0.0738512592549744745218376,-0.040231110411810031002311,-0.00414880869895595510293829,3.55130198716900169486621,4.95240670913220704107971,2.09100226414846757094779,1141.36604908225922372367,1128.6224603355788076442,1142.67440412441783337272,1146.85010746167790784966,851.449517328352385447943,-382.374715475665311714693,-30.3274080379257000572579,-386.742983569124248788285,157.393935135826353644006
20.9525000000000005684342,-0.436617721024279425989789,-0.445971659628697336685832,1.14771452239494431424305,-0.0437057577184155818250666,-0.0977525159646710772864964,-0.121775976724328771627626,-0.00614448280945173626321765,0.00530052990128442036432688,0.988774024800509909738366,0.149196563459055048239676,-0.140634537942789766828966,-0.0513276457052462622976385,9.79987084047678713716323,0.0737656063416954749234478,-0.0404173211354200284661786,-0.00423511354064304637589977,3.55115921987272686877191,4.95255958736234713768454,2.09099428216021943072178,1143.82355478961312655883,1127.91083910734596429393,1142.6163142487912409706,1145.61510074044690554729,1168.90560945375227674958,-153.049521802280565907495,-32.1155394380929806175118,-637.402719295224869711092,157.395834474137302549934
20.9550000000000018474111,-0.696076554720051032809636,-0.211584733850801898213945,0.92947936491852001239522,-0.0449472218850444152349333,-0.0986319987818503191023822,-0.117499792025580460097522,-0.00600171849804187647337006,0.00521432239180161846009431,0.988750550229866576046334,0.14936066443385243029951,-0.13510187134645829099,-0.0512674956824474559180516,9.80093797941385425076533,0.0736974717841186732769643,-0.0405917574311697934574816,-0.0043325081609431491044826,3.551014651399974297874,4.95271226971864209076557,2.09098566384343298452109,1147.21057712953097507125,1127.85721272656701330561,1142.51382642722728633089,1143.66309386520015323185,1256.62001082262122508837,131.188326442705772478803,-46.0133281122671746743436,-752.233965975996852648677,157.398068997050671669058
20.9574999999999995736744,-0.921243720309159797032805,-0.0202426784432169042104999,0.639204350829967959946032,-0.0469856148547517990521349,-0.098593277404078125125686,-0.115248268706732770461088,-0.00585793024886432315417872,0.00513356165334656264209734,0.988726004466212948784687,0.149531359444590561391664,-0.129383132341298612288938,-0.050941048983589122534088,9.80241973891135032204147,0.0736453590703725208266306,-0.0407553735305401926281021,-0.0044382776343305412394824,3.55086832251771955526465,4.95286441254800724465213,2.09097599323688809747068,1150.10665484372498212906,1128.56678073955936270067,1142.38624760822995085618,1141.85393091056766934344,1100.76059089891782605264,437.376548432617425987701,-50.3692257977591140161167,-695.428337239947836678766,157.399893652491613238453
20.9600000000000008526513,-1.12248349736958341615889,0.144795045889099055491656,0.288422102845688477223973,-0.0499389298638991535606024,-0.0979845685733584936816243,-0.114645217018760875449246,-0.0057155870658767262207367,0.00506017704867642997834665,0.988700408790733509256654,0.14970837158965691338075,-0.123614310275784206050176,-0.0503409931631113305439129,9.80433430743720002453756,0.0736076966628268630765675,-0.0409093745284619808577631,-0.00454913038181774601054208,3.55072112397755734747307,4.95301606889240364495208,2.09096532976027260630758,1152.71438008402446939726,1130.04409546872966529918,1142.26198029823854085407,1140.18595217900110583287,946.08097535280455758766,698.414699539177604492579,-34.2414371671391037921239,-591.501224323944597927039,157.401680504466327192858
20.9625000000000021316282,-1.28265793541712391778731,0.276392006062254058651462,-0.0741979689730278696435661,-0.0534410287746712245326997,-0.0971932586307898277455664,-0.1151484557369657629744,-0.00557863057942470982192296,0.00499072574586065242918664,0.988674070348063649404935,0.149889663317117505236808,-0.117940279164648609278032,-0.0495673074498651083930056,9.80668979280722119540314,0.0735829394283748633442954,-0.041055172369130268905657,-0.00466147479851908904530111,3.55057372377456159640019,4.95316784400771314977874,2.09095345392143938667573,1154.83705972049142474134,1132.05885423725703731179,1142.21504042239416776283,1138.89642478894643318199,688.810436581753151585872,894.568803126090301702789,20.6005340775886978121889,-372.482237164814705465687,157.403437782393069710452
20.9649999999999998578915,-1.37620860862135563351671,0.359265956426301880100027,-0.414616949710167992382281,-0.0573046929455192574631717,-0.0963026507350220328795842,-0.116399377354331756695416,-0.00544669623053448039712299,0.00492634500851771382073929,0.988647348972158224178486,0.150072844771313274048197,-0.112430879148083695540095,-0.0486170110774739247516685,9.80948396533735866853476,0.0735697352368346602080607,-0.0411941661814329701529758,-0.00477130732406534814604715,3.55042682011434029831776,4.95332012121864018183715,2.09094027753359679167033,1156.158432266932550192,1134.51693948435922720819,1142.36498296862646384398,1138.32354099317740292463,369.919101395936138487741,1118.48457007703905219387,131.8063848684040237913,-50.28183323466782894684,157.405162676607346838864
20.9675000000000011368684,-1.40203328560521556234164,0.395455677465990418362196,-0.764504443880683948187027,-0.0615814816250327273783327,-0.0948484004381675294137466,-0.118291846939730174725902,-0.00532391169216016400117519,0.00486212758623008004660315,0.988620411736555126935855,0.150256822855118377102457,-0.107219438623739810045876,-0.0476159291315679730760557,9.81270123665937887835753,0.0735671414407963047965566,-0.0413273508270406222941951,-0.00487430005618734105143908,3.55028125546386119637532,4.95347277733040236569195,2.09092546956544067526806,1156.68665522747073737264,1137.65127708764111957862,1142.8740723467360567156,1138.64501562277314405947,22.2197678620476466448963,1129.04553069138000864768,247.327205823288835517815,283.282755176844091238308,157.407199958566792474812
20.9699999999999988631316,-1.35089905506482987895822,0.370782709999211312901224,-0.98876462910882656487388,-0.0644690034553109525550241,-0.0933650287518436733380511,-0.12022622155194497006736,-0.00521653648769607094365375,0.00479371191219952336171062,0.988593556100288206600624,0.150439559802165112589734,-0.102475969377221254319466,-0.0466834303087958757405573,9.81631258768702252837102,0.0735743231187038215779239,-0.0414557522935860706114752,-0.00496563566099108601170631,3.55013734263876035157637,4.9536253587334142522991,2.09090887774016875866323,1156.26953110624276632734,1140.16216713781500402547,1143.60161899774266203167,1139.73995476906134172168,-313.316116629147074945649,925.842579945813213271322,348.774981463863070985099,571.310495080274449719582,157.408873617011607848326
20.9725000000000001421085,-1.22171640554378857501661,0.293885680438366880817824,-1.12106461585650718504326,-0.0671729162142808977620234,-0.0920777814141163913896904,-0.122817462876242095015655,-0.00512329129489210062520232,0.00472073671778721302982884,0.988567141234691360018871,0.150618750516957083940284,-0.0982291505911349061008764,-0.0458368327323617069657402,9.82027786562079718635232,0.0735903215574000152399137,-0.0415804173630037535169812,-0.00504116763247518511609213,3.54999472806822469195254,4.95377796842206485905535,2.09089026899203433984553,1155.12007464432531378407,1142.28048998736926478159,1144.61794725405502504145,1141.50156809817394787387,-544.207508840912737468898,746.759615772707547876053,442.799827325962667146086,765.265251659383920923574,157.410525056541075628047
20.9750000000000014210855,-1.02048910560184724616306,0.183905714950321402811895,-1.15964247619748506146209,-0.070431433103884222290958,-0.0912498617733884104241682,-0.126147321254204497487095,-0.00504071159728170219843646,0.00464449885373775968322452,0.988541590009403559058399,0.150791712095129981641151,-0.0944627330871925241506659,-0.0450524821978466605276736,9.82454472923077126722546,0.0736138901265149941943733,-0.0417024086371066901590687,-0.00509721384333166639690749,3.54985284561596481367474,4.95393081357415532295363,2.09086983712391161205346,1153.54849356203681054467,1143.89596521668045170372,1145.81561813437360797252,1143.56628102736021901364,-679.924846003358425150509,497.54777683238791041731,502.614645817775397063087,825.813870069151221287029,157.412159451791637820861
20.9774999999999991473487,-0.725022220072760958942126,0.0519721027387973072420024,-1.06904843215973111014705,-0.0741471660456514830572772,-0.0910778401463249870362304,-0.130224806918668223332247,-0.00496223021274121763729559,0.00456850490804039648801149,0.988517161624383633444779,0.150956874947283603560777,-0.0910987657670497830153522,-0.0442525441008790668129258,9.82904977492776232850247,0.0736434727689987689291939,-0.0418226016567883954189178,-0.00513088864009084155703988,3.54971088870010920146569,4.95408411076251464777442,2.09084810785181618442152,1151.720450414309198095,1144.76822887153070951172,1147.1310204831434020889,1145.63063744851888259291,-803.652894274978962130263,200.642558816110863517679,576.599429401972997766279,820.391389005707878823159,157.413774122104968000713
20.9800000000000004263256,-0.275018238685699523138339,-0.107688965806797626312274,-0.810854165133130244669246,-0.0775302693019763455861693,-0.0915412290219675683911049,-0.134968653572605373769377,-0.00488544241878853709171171,0.00449102091149421352167526,0.988493854431980900621113,0.151114394178796462853143,-0.0881162139640987995825583,-0.0434715840147163051776502,9.83371868524039172143603,0.0736772925845370907360632,-0.0419415127161760978302674,-0.0051401383719442078970574,3.54956832455451865016016,4.95423856100953585723801,2.09082596985992985594294,1149.53022909066271495249,1144.89917801076080650091,1148.69861528138289941126,1147.66823797238794213627,-767.766459836064427690872,-96.1466961000004829429599,551.878820693891270821041,629.270809522400668356568,157.415688911682167372419
20.9825000000000017053026,0.146177785926392272974894,-0.227387354872011032691503,-0.493203843456485657714694,-0.078322678980833962403274,-0.092282918361369370430225,-0.137757296441643695139589,-0.00480954688719389348433575,0.00441240802422213519023986,0.988471672975207327205283,0.15126426405665721608429,-0.0855229294119373428806341,-0.0427066527404248719168578,9.83846836578326566780106,0.0737132491039442228064615,-0.04205970419382908803696,-0.00512342810367951741190584,3.54942494995876067775953,4.95439363621772077550531,2.09080493114529275544555,1147.88161811512691201642,1144.28749539103046117816,1149.89041458661426986509,1148.77699149613249574031,-593.840223801662318692252,-367.883762068168380210409,431.046287485691493657214,302.409839783755273856514,157.41726476540100065904
20.9849999999999994315658,0.556672996735249059341299,-0.321754565045354101737729,-0.119830329042067487699263,-0.0767464866601085676789396,-0.0930716271669696781909664,-0.138324327993210871579066,-0.00472858309895695088503897,0.00433277389955987260461434,0.988450108503815649818591,0.151410001345451461496339,-0.0832169281284983186619542,-0.0419437127146762775420363,9.84321076589924359723227,0.0737492899375693233832152,-0.0421772469860939025476654,-0.00508083806587461810772011,3.54928023568494088735292,4.95454832006876255690031,2.0907855998853763779266,1146.56102797165499396215,1143.05975920042033067148,1150.85384671881092799595,1149.18028717130641780386,-484.767617372341248938028,-637.639543535341999813681,352.750979915869891101465,34.8410268705789576415555,157.418818186389017910187
20.9875000000000007105427,0.969914795018346209687365,-0.397478854586241214796871,0.322827034622738595626146,-0.072943469748903519422889,-0.0941526223011762281034365,-0.136806113323090616784583,-0.00463869420350004543762701,0.00425292946760658704258296,0.98842891566670920688864,0.151553318637598771756458,-0.0811307744795533025694567,-0.0411604408762614379369005,9.84785335678805573422778,0.0737831916203772752993473,-0.0422944134787523878804549,-0.00501281053965772858266314,3.54913400376016641146748,4.95470180299254892020144,2.09076784354632128071216,1145.45778002826568808814,1141.09929767335438555165,1151.65416948619326831249,1148.95119663048535585403,-315.342329054076458305644,-762.060670175716381891107,227.854090880848019651239,-168.850029507852951837776,157.420653199472099004197
20.9900000000000019895197,1.21386287062969144834312,-0.424300489181013762429728,0.644814829988110349567876,-0.0690012182215459096701338,-0.0953850644302276090558124,-0.134680758539121009365047,-0.00453831760143541800694988,0.00417207817116281836494762,0.988408255501273758092395,0.151693253560983842831433,-0.0792288271408316535637795,-0.040372393887339888540744,9.85230162173854395746275,0.0738126339109881068889507,-0.042411563442396903178544,-0.0049201552905979118943125,3.54898712124629289732525,4.95485446119059869118928,2.09075075419185729685978,1144.98431632638380506251,1139.24945584953979960119,1151.99311717321575088135,1148.3360370237667211768,-91.6876039527051602817664,-737.651806366249161328597,71.4192268310540612219484,-286.030015020480789189605,157.42215554956246137408
20.9924999999999997157829,1.33564291649792155070031,-0.409737959472626145362995,0.88519819832148760596624,-0.0649734277293421147447816,-0.0967873163931232405321481,-0.1321847920586743940774,-0.00443173940451043173877066,0.00408695200700567775470295,0.988388094610249900995314,0.151829997588101034411423,-0.0775743447478252357019102,-0.0396617907876513076104175,9.85646073643503228822738,0.0738356611354466785268613,-0.0425283227928370810566605,-0.00480354253852165440780153,3.54883999637556568629293,4.95500709056813448682988,2.09073321662753119909439,1144.99934200850225352042,1137.41103864152387359354,1152.01126562034846756433,1147.5210465553832364094,86.0214871506003078138747,-699.656296737614866287913,-34.098441209569010368341,-327.179231650935946618119,157.423626874626222615916
20.9950000000000009947598,1.35767700062475604738665,-0.362073924177040817884432,1.04399460579590397379945,-0.0612378500985036947068529,-0.0979957787319706979944911,-0.129166415743943913119196,-0.00432476862250768135514933,0.00399756941301832990215415,0.988368393224676511366056,0.151963648817668384172208,-0.0762633532004894643119286,-0.0390530253345383951413261,9.86023847101629513645094,0.0738505798692731807442158,-0.0426437071022116934160273,-0.00466349299420407321925541,3.54869302241254791496772,4.95516071418932835257465,2.09071441615466913077626,1145.41442376213672105223,1135.7511743658524210332,1151.82262496716793975793,1146.70014086551236687228,253.770246894924184744013,-586.341691652504096055054,-103.975778838341966547887,-304.535063577319874639215,157.425070033111950351667
20.9974999999999987210231,1.27245799782455870641229,-0.281035537901356269330222,1.09817888184159895281766,-0.0579167664577091637068129,-0.0987999354605272606111299,-0.125806811934383366846646,-0.00422211151404061971192938,0.0039037729614225307947506,0.98834900951887705300436,0.152095008170283846338222,-0.0753639585686073087966719,-0.0385728600831406615023766,9.86354816831773284491192,0.0738560215950617993119209,-0.0427559956402468466230005,-0.00450125752143900811907962,3.54854658862471161739904,4.95531674216244510944307,2.09069505815550638061495,1146.26819324297662205936,1134.47933018326193632674,1151.49138672615686118661,1145.99837123749694001162,455.862186601279745445936,-440.366070734395464114641,-150.908540185248966736253,-269.018689696857904891658,157.426476191528934123198
21,1.06889896571950804293749,-0.156416724621881914059074,1.04891896849255372714538,-0.0544584754066946979955688,-0.0993934587492801557839783,-0.122205941704519302493104,-0.00412319220396136464079628,0.00381074103533286497394461,0.988329705799845692482108,0.152225495302289237642412,-0.0748522593144528014530437,-0.0381307081171680800624202,9.86631129585978960960801,0.0738509306121482717033544,-0.0428630088020447580499095,-0.00431894989472142963593537,3.54840083657200100475393,4.95547549698760558811728,2.09067714253511915956096,1147.69373469514266616898,1133.54934401218088169117,1151.06808226624184499087,1145.35504741702834508033,568.207149356276545404398,-234.815324801336743121283,-144.452853015235405109706,-206.24724253414933627937,157.428116770318155204222
21.0025000000000012789769,0.832899285491871421704957,-0.0379010962912323598472675,0.92581538657048201290678,-0.0523009753613061512123039,-0.0996720126160594160902306,-0.119791350212595945623484,-0.00402435373865482788613424,0.00371947732452965716676285,0.988310001354135714279892,0.152358289503429694677905,-0.0746275984445465834227207,-0.0377108143901612041792859,9.86845954297800886934056,0.0738347127878188347338551,-0.0429621696944600187095809,-0.00412026478511452309144714,3.54825536335363045381541,4.95563646973471794154875,2.09066176906768808052561,1149.1092289897594582726,1133.30525355925465191831,1150.76912246108031467884,1144.9671350248256658233,583.726839107091791447601,1.31859003754497128291234,-100.269562378864009133395,-137.020629933367644071041,157.429441877535367666496
