t,ang acc x,ang acc y,ang acc z,ang vel x,ang vel y,ang vel z,quat x,quat y,quat z,quat w,acc x,acc y,acc z,vel x,vel y,vel z,pos x,pos y,pos z,mot 1,mot 2,mot 3,mot 4,dmot 1,dmot 2,dmot 3,dmot 4,vbat
2.53000000000000024868996,-0.811822892802209428175786,0.983591824614962084716296,0.637098166864361381556137,0.0781765974901181825984509,-0.0158651669997948371881868,0.0138432234571595237648811,0.000311614084884886542899107,-0.000334029112962058120223086,0.00379230787553916414214794,0.999992585251644361399315,-0.0293378708128541818012103,0.0565093215127954462406734,9.83098858454573232279472,-0.0181669595182665823129842,0.0547458924016323428274333,-0.00458034430890283568438281,-0.627805055291363323100029,1.78309655061741190174018,1.33265618502329341588108,1151.88033878540477417118,1096.09951200754790079372,1122.32523850660231801157,1143.48372739575302148296,-4.11997906753612763708361,157.14028353817261063341,493.870056312938118026068,-409.406994308000889759569,162.477400390162870280619
2.53250000000000019539925,-0.928075276824404604703034,1.04049363036961683981474,0.561661236270741492937475,0.0763484110285708172938257,-0.0117706408846067131501734,0.0174385853092091681892928,0.00040103489890970294914907,-0.00037093008175789770773309,0.00382498137832326060708832,0.999992410125293718081707,-0.0255601145481075472942756,0.0601330792212760728565613,9.82862487350036495570293,-0.0180501718113950312960547,0.0549561661907134318960644,-0.00447583901267380526722839,-0.627856405546553753005412,1.78323098257145873368756,1.33265094151770302488558,1151.71705693210196841392,1096.71334080255110166036,1123.78707015833924742765,1142.32664272395641091862,-118.789305362591022685592,267.167714067869610516937,552.371917285438939870801,-424.124472437788369916234,162.477389480027540002993
2.53500000000000014210855,-0.999250971989374292547836,1.01159720032174038628625,0.402021450645845934701583,0.0746384306646011158603571,-0.00824458855501061793624729,0.0194642609879907488301676,0.000491034119187581897733597,-0.000412550087198543008644436,0.00385826896452597578254795,0.999992222604904501537249,-0.02161682589455958536373,0.0640614485893543222916335,9.82596914494336282075437,-0.017913962896889144837953,0.0551800120750699576999132,-0.00438969268559395286305458,-0.62790624676411421756228,1.78336665378432002171394,1.332646724618881783897,1151.28639225859183170542,1097.4353505778872204246,1125.08709809302945359377,1141.3631050335641248239,-239.661628468371077360644,293.41793198901257255784,507.742293197417779992975,-365.631117774372398798732,162.477443363222960215353
2.53750000000000008881784,-1.01255874189794714546053,0.911234543905761751325656,0.177536596559112747062414,0.0717406212237935714259862,-0.00533933069588445486514106,0.0200459376618312458406823,0.000581576058961427201643435,-0.000457547818533265786798692,0.00388889630630029391536451,0.999992035850781113559549,-0.0175964119940803659369877,0.068233324024781036309939,9.82307211164577154249855,-0.0177609993046070335775966,0.0554174731204944773232945,-0.00432454930844165461034656,-0.627954058338052290011433,1.78350295371446931902426,1.33264326454738823990454,1150.51874878976013860665,1098.18043046249613325926,1126.32578162432628232636,1140.49848713508458786237,-422.547934693338788747496,290.412297422432686744287,502.356629611505695720552,-335.045295416928524900868,162.477565468959255667869
2.54000000000000003552714,-0.924788270764009601165867,0.734847765041621414638939,-0.117573354835708021592922,0.0674860739562954392578575,-0.00295959833817333690594853,0.019335622270821112289596,0.000672066999676356477758099,-0.000505209643398661775379188,0.00391033628694651465979026,0.999991876319440975429131,-0.013571447048837281812439,0.0725754422285785905089028,9.81999149343871380324344,-0.0175947772397922613807353,0.0556682257701810456751446,-0.00428187657413711068171702,-0.627999159901729608890264,1.78363972652184554767985,1.33263992695630140161711,1149.17365258512518266798,1098.88741206499935287866,1127.59888124108692863956,1139.68787855647951801075,-564.468123280460758905974,207.268248636414540442274,414.884849485415315939463,-245.448678054304536999553,162.477793223365551966708
2.54249999999999998223643,-0.750545913598692049362171,0.565045356058706982338435,-0.354460958086369071207145,0.0642944468835242172177757,-0.00167934174799021576629521,0.0180760667825272218489641,0.000761137082516538904068681,-0.000551595562477206623371029,0.0039160529380811229249737,0.999991773148748319677281,-0.00967254737831879651821509,0.076999330684737229968384,9.81679032949667629281976,-0.0174189277147564491876608,0.0559317064308386194260159,-0.00426204317575389936278984,-0.628041406487677367209699,1.78377742206583556061616,1.33263594098707693902384,1147.69640817335789506615,1099.21677170567818393465,1128.4002058717533145682,1139.27124374481309132534,-654.682794580562926967104,72.4825687482750282697452,252.800019817874215277698,-102.154076761691968044943,162.478051792546438036879
2.54499999999999992894573,-0.474176552229833014884264,0.397466154178478192626756,-0.557459327251759395593922,0.0616600325964515721954839,-0.000924089087077823150701006,0.0165985288424834766252136,0.000846790708103799596995209,-0.000591174596749497556144592,0.00390624411172464571645468,0.999991729312791899353385,-0.00605379672169926996705414,0.0814043774943185444170624,9.81353455065692514835973,-0.0172361252752123612907997,0.0562073547218161981287032,-0.00426433031867869561520878,-0.628081931781013236282263,1.78391604965185424092056,1.33263080655322774248361,1145.90023861222243795055,1099.24982490874072027509,1128.86288134017627271533,1139.17710817267106904183,-834.011366845988504792331,-34.7011220338579846611538,118.093041245586178433769,34.9341897347592933442684,162.47838228783996328275
2.54749999999999987565502,-0.0528990719648836926758406,0.221923810932069448531578,-0.744970368522580139725164,0.0593623043155337287712925,-0.000596931294737665135881344,0.0146419135997756678230219,0.000930324767135746913231109,-0.000621234004025085625663727,0.00388337113447358986059732,0.999991734601436976781486,-0.00280627373239088206968717,0.0857557078822201168666339,9.8102891482073140139164,-0.0170483414549986167507711,0.056494454655158607425669,-0.00428736873820940306289984,-0.62812220502073556893663,1.78405598124947895044556,1.33262367235441181456679,1143.52635133912804121792,1099.04326609550889770617,1128.99067107798123288376,1139.44591469348688406171,-873.516827447551918339741,-90.8301649859761397465263,-22.4415793702504160478384,155.367669686882862833954,162.478861710521812256047
2.55000000000000026645353,0.334551725530203736269641,0.107758307130034203247249,-0.845233917212400265306371,0.0589944144007904444637624,-0.000711352853714472652298106,0.0126938145633229068631742,0.0010137212434067840744617,-0.000642029258964490275214676,0.00385276312020726117990588,0.999991765903776363977329,4.49121842050620445618847e-05,0.0900336149612881997406078,9.80711651145319329714312,-0.0168566789165008334983042,0.0567922428501699896874477,-0.00432909855733514328801625,-0.628162864971175127770664,1.78419762216210542327133,1.33261424662190819390162,1141.53265447498438334151,1098.79567408381080895197,1128.75067344332501306781,1139.95394652110553579405,-753.453732581187182404392,-79.7196691555146372820673,-157.223334710705188399515,245.639336941286984483668,162.479329384048782003447
2.55250000000000021316282,0.697983621928445208126846,0.031621024950219178695221,-0.877438672423523580157223,0.0610332708831088435741385,-0.0010248332321965807067965,0.0100927566658951129580091,0.00109792711649452957856088,-0.000655661130855055289574917,0.00381861941804764693994545,0.999991805209462181203151,0.00251731088099618749431841,0.0942011336164067236698116,9.80407517364091951606042,-0.0166618810608758875779767,0.057099898112223226864792,-0.0043869289143283491522185,-0.628204478223095663658171,1.78434074076460857938287,1.33260322394041730298397,1139.75908267622185121581,1098.64466774973129759019,1128.20455440442765393527,1140.67411137819340183341,-638.647507125929223548155,-22.2839456551360157732233,-256.523670340908211073838,307.059182480549850424723,162.47986601350629598528
2.55500000000000015987212,0.995063344228204638142188,-0.0157003160887204742945933,-0.849174070600834940414359,0.0648423997628382875468844,-0.0012786937433803505659996,0.00707870838361137916933119,0.00118128077697225502759593,-0.000663149206067019814786478,0.00378338128507654369164781,0.999991844536929797016001,0.00461308391226933345308225,0.0981742045258571227606126,9.80121930015401510161155,-0.0164645554281620289105437,0.0574166474565526094298029,-0.00445793301972097644886306,-0.628247184510028144899252,1.78448409091818938065899,1.33259142038829159204738,1138.33941693935480543587,1098.68425435553513125342,1127.46805509162049929728,1141.48924243350825236121,-451.215222288611187195784,77.0142740204408369208977,-322.83946566404443956344,328.897914129681964823249,162.480457929806476613521
2.55750000000000010658141,1.17551931336908310754552,-0.0370754467707511206620019,-0.754238407988313985796935,0.0696423306240267353528495,-0.00121424839271249188597801,0.00438717799053978986523195,0.0012666132728201553395847,-0.000665944378315163070143623,0.00374867264138554340258125,0.999991872570415218923756,0.00634901175728019850907913,0.101961225016636874984854,9.79859546682960669272688,-0.0162653021075782333593196,0.0577417500891698465270707,-0.00453978096593779436446203,-0.628290095349494093213139,1.78462739057879682391672,1.33257902606140565815451,1137.50300656477884331252,1099.0297391198334935325,1126.59035707610746612772,1142.31860094884177669883,-213.689458121875759388786,224.719187148871498038716,-398.09200231885307630364,345.740295393086967123963,162.481113538007861052392
2.56000000000000005329071,1.249506198920321109469,-0.0449455030193890228695786,-0.58791574782569611112848,0.075032561877456493970584,-0.000922816548078982286373861,0.0022796781529902032312207,0.00135577764319741141466058,-0.000668130271943692135259985,0.00371359183859182101147822,0.999991886425034559593428,0.00779830133290287941250085,0.105556332987026740832803,9.79624302194720719683119,-0.0160651015995736390351567,0.0580743983055008947125053,-0.00463014243149599720450471,-0.628332339057180111474565,1.78477069975536095647328,1.33256605758936030881046,1137.27096964874544937629,1099.80785029127946472727,1125.47759508002627626411,1143.2179439104736502486,40.6558985956971383757264,335.860837597108798036061,-406.910920879099251123989,300.730420920132985429518,162.481969182052409905737
2.5625,1.21329202962734195025973,-0.0421727136113899184199916,-0.43014301950909517024968,0.0783200860550977567831055,-0.000725571633146065140575198,0.00154574324306343442725353,0.00145124608405369477995284,-0.000673618213441628480714352,0.00367896057469096603859127,0.999991876398143353377179,0.0090363645933347336303143,0.108970739844355402059506,9.79419367148368102959921,-0.0158648554381935029400363,0.0584137204954018815494798,-0.00472702762594339777335595,-0.628373677335772096164135,1.78491446405936726726793,1.33255282890233717196793,1137.70628605775732467009,1100.70904330781900171132,1124.55580247171201335732,1143.82225305344240950944,282.966992764483279643173,391.26413547747614529726,-360.099001543411247894255,199.526632063457043386734,162.482735572971790816155
2.56499999999999994670929,1.11641352390486492396349,-0.0307662599749908630131223,-0.278621633981933014556631,0.0799395167852129939767281,-0.000724958253375458357495309,0.00163640549100031295476354,0.00155407713403330231469179,-0.000684175095005846046342102,0.00364682758998029340688496,0.999991832328353313918967,0.0101015101269505275238814,0.112193510330483636749932,9.79247227710788514798423,-0.0156653854118478305657014,0.0587586924689393955145711,-0.00482864438349065068500909,-0.628413904445350279814875,1.78505929227776483081414,1.33253958561297514151534,1138.6858046125678356475,1101.76417096866680367384,1123.67710007230925839394,1144.21557707079091414926,515.971983742076304224611,467.212052937667010610312,-373.149510734318710092339,114.12705078819514881161,162.483551732110782950258
2.56749999999999989341859,0.968718637285991057694901,-0.00419739614243504546853281,-0.119378664264099543235176,0.0806746870276869865179492,-0.000992714271385031861091863,0.00213059486081980777386069,0.00166091745945331028568026,-0.000698110749852952675552353,0.00361845060296308055833303,0.999991755476188681761585,0.010968021940433864136466,0.115133645899301501058787,9.79109813358463831889367,-0.0154675801104308605071758,0.0591080822051618590129429,-0.00493306387692562294672305,-0.628453235585664682361084,1.78520521806441601064819,1.33252665975703088463433,1140.2861459764676510531,1103.04510357250728702638,1122.69005491804045959725,1144.39288830738337310322,623.547856435756898463296,446.13120782883964920984,-349.892884150093038897467,11.7925266079967308030518,162.484581197106251693185
2.56999999999999984012788,0.826023204174526015641788,0.0301624108305624978598747,-0.00390729327867708319671491,0.0815852462704011460736808,-0.00138240894787124428584602,0.00232109016986689490127937,0.00176763779528347347858031,-0.000712774829561745580132348,0.00359566279821157790130837,0.999991647428115193463327,0.0115951552486308340217391,0.117691241989610007045997,9.79008369345734941191495,-0.0152721820201181888304598,0.0594604877974451787037147,-0.00503849542797984301101266,-0.628491781256303005953612,1.78535239941515011530271,1.33251423676036484522456,1141.80354389474655363301,1103.99482700781095445564,1121.9276356515588304319,1144.27453970383089654206,606.13463040759143041214,325.855075411278278352256,-292.514658609414539114368,-101.142850631179044285091,162.485474783741068449672
2.57250000000000023092639,0.644322399116890931480839,0.0739676640230111370755139,0.10594976901933353397034,0.0837079883402140206838382,-0.00174242484297369975426717,0.00200129943779784030127855,0.00186973486372613169857748,-0.000725128058566296791395689,0.00358218822807045145228955,0.999991504128838304410465,0.0119380881650748976730014,0.119765316516089292964153,9.78943459256404935331375,-0.0150795774463820878019682,0.0598144154605820405068428,-0.00514322245781426157229532,-0.628529665492307154650575,1.78550061275741778210602,1.33250191881884338940267,1143.31681912850581284147,1104.67437894956378841016,1121.22748162499328827835,1143.88717405422744377574,627.72596832428769175749,210.334002203612158155011,-293.743355572158350241807,-219.773988474784061963874,162.4863981170909426055
2.57500000000000017763568,0.350435872086598765307031,0.124244147589373243878441,0.244397195715490400669268,0.0867270500330709764869042,-0.00172060469562143668158238,0.00151631872556471703795966,0.00196760535757002121004522,-0.000733583326091276702318744,0.00358054472861043301262773,0.999991315074185704858678,0.0119827440348100749956117,0.121357541074807506742417,9.78914789644112026678613,-0.0148901439723313298163498,0.0601681629785194779791446,-0.00524609383253336371277786,-0.628566928929034540729504,1.78564957077189800926931,1.33249000689744723224806,1144.94217373636820411775,1105.04649701882908630068,1120.45891887369793948892,1143.17566976145690205158,544.340816007218336380902,52.770998520282986987695,-268.839061612840225734544,-284.54328834209871956773,162.487532910275007225209
2.57750000000000012434498,0.0318655949468273705371679,0.149574599716030015583712,0.365825193393415404319313,0.0887652243525999251616554,-0.00114866713480415733733553,0.0014347880481236717064436,0.00206548725235226968838242,-0.000735809340751541161862459,0.00359397933101885573917156,0.999991060490081684619668,0.0117025112599593444917545,0.122551363634100435318075,9.78921310689863055642945,-0.0147039694746282090243028,0.0605198876747167907597102,-0.00534639379022256496648557,-0.628603359350178636510975,1.7857992741694004301678,1.33247907506694951429438,1146.03852320854184654308,1104.93823394216519773181,1119.8832863169291158556,1142.46445761251698058913,369.87538565559469816435,-127.943821979900349106174,-212.877305798842826334294,-281.338515276371822437795,162.488496126545072684166
2.58000000000000007105427,-0.351531965885369168667296,0.140511212836904708645136,0.480524096576401049674132,0.0896753879574810341956947,-7.62611394199820633726938e-05,0.00196782519700543223617473,0.0021662252970765807046083,-0.000730087389529092390359766,0.0036244085148648677238703,0.999990728159474429048714,0.0110831118102857617557788,0.123409671677370075260072,9.78961407364533897634828,-0.0145210659927068434782438,0.0608675868888144122603734,-0.00544305253379703812832702,-0.628638407472332794156955,1.78595023114280460063696,1.33246799650075709031682,1146.7915506646461381024,1104.40677790892959819757,1119.39453234470374809462,1141.7689771850750730664,238.645825666622471317169,-270.650446190308059613017,-175.63186472075733490783,-253.755777282736687539,162.489472784247368508659
2.58250000000000001776357,-0.761796930225732360497659,0.095813934758478214170907,0.571564452666094235944172,0.0893377200478828042973234,0.00137352492391514826274024,0.00306384777503972832723989,0.0022715352030430210721057,-0.000715126298186760287443897,0.00367026229163071185737643,0.999990321006757887367655,0.0101176699717333423711452,0.123980073643294275154147,9.79032949853376877058508,-0.014341546850758774347967,0.0612090574580482008060223,-0.00553459629418709842668678,-0.628672705402478215752637,1.78610260285029665006107,1.33245616359892116165042,1147.23175233687493346224,1103.58498171121368613967,1119.00512699332534793939,1141.19567872610332415206,99.4244598687622129773445,-373.513205078060082087177,-122.582381877876173348341,-178.334004348111363924545,162.490457698020321686272
2.58499999999999996447286,-1.15473937345741184401504,0.0139774948784442826221763,0.607319691419639484664117,0.0871840193111349387455888,0.00291136585835154344803488,0.00480545052580988712315202,0.00238071300692749027866357,-0.000691773042708739233433435,0.00372740528099720341143053,0.999989855333313859553357,0.00883976542123052211330503,0.124268897459074212363817,9.79133374529092215254877,-0.0141654690662664384942504,0.061542008861266005170787,-0.00561896593757344776920437,-0.628707378711480524557942,1.78625637552773808280904,1.33244311942135484905236,1147.2886729639899385802,1102.53921188353933757753,1118.78162043531438030186,1140.87730716333453528932,-59.0824979133698278133124,-470.553273882897883595433,-46.7716812468562181948073,-65.846566308120188182329,162.491449890863492555582
2.58749999999999991118216,-1.5322604153937753324044,-0.0943595200331362321533035,0.554217647409879665687527,0.0822991077213183486183112,0.00358740373813097417066142,0.0077467301631666644901042,0.00249248878505476919101302,-0.00066035276310507263087396,0.00379022174232375485061763,0.999989355145126213031403,0.00727130624011522452843082,0.124276830225825307696397,9.7925975044187403284468,-0.0139927165478389414071669,0.06186416326127717330019,-0.00569394245349970785224913,-0.628742963786319775110201,1.78641161574114382126766,1.33242817591302364910177,1146.93633984730809061148,1101.2322153417992467439,1118.77126858709107182221,1140.86644589456273024553,-191.812780035892956220778,-455.175411674882241186424,47.8232207291067581422794,58.5147395881007241769112,162.492646517418620533135
2.58999999999999985789145,-1.71931963734765091977863,-0.154446696136165323443024,0.41625514313000894217609,0.0766902192761940715293179,0.00240804427519099133181424,0.0106484648603474476441511,0.00260347306994826140427723,-0.000624093428294184449783844,0.0038554957752173985366384,0.99998883861671594708298,0.0054902558831481096390803,0.123966781298756073548262,9.79408875900803366221226,-0.0138227071151952110583672,0.062173484902905314097854,-0.00575707117622105760124107,-0.628779225799948049413501,1.78656890237842680413394,1.33241094954082672785489,1146.32960906381049426273,1100.26333482516497497272,1119.02073653895990901219,1141.16988086127503265743,-293.647748752007998973568,-326.307501556426188926707,159.626301392416422686438,176.433244853830643705805,162.493647654911711697423
2.59250000000000024868996,-1.73711899111093415193352,-0.138961184095520995374073,0.187865626841228566812347,0.0706655719573108798137184,-4.97972865392311693326366e-05,0.0129104896448487202476052,0.00271159528175537924837846,-0.000585252822227491794303267,0.00392025314020399973102826,0.999988321400666402283264,0.00355426445163127546766901,0.123330813069032790840751,9.79577350054484874419813,-0.0136547855308042469235641,0.0624682320018590392374236,-0.00580649176664046248047546,-0.628815686607408275143882,1.78672883049128250476656,1.33239150927605543017762,1145.46810110354795142484,1099.60067783401700580725,1119.56940009405320779479,1141.74861211883194300754,-415.697738037914973574516,-190.784954744854843511348,309.642198651660692121368,298.12143454303429734864,162.494652193611102575233
2.59500000000000019539925,-1.55816748596315890473818,-0.0130593904031122420850153,-0.148534366872842105156138,0.0641544368191830499670303,-0.00270514724009799463130821,0.0136088528673682564867908,0.00281463760296846469619036,-0.000544798308102839665828521,0.00398144206081279834058551,0.999987822845441964858537,0.00149422586629367748489727,0.122360331791924265010252,9.79761762899072330412764,-0.0134883839102947055560433,0.0627471958823336700694639,-0.0058410894324659309514991,-0.628851942941860975189172,1.78689111436068226446139,1.33237033908058521980422,1144.25112037362077899161,1099.30941005144063637999,1120.56894753221831706469,1142.66048803399030475703,-457.663508146479898641701,-14.2119765706414309391903,416.262071891296500325552,352.557956330118258847506,162.495860941937053212314
2.59750000000000014210855,-1.26233910566600182612262,0.166783321398542017099942,-0.435402820413514468622651,0.0597969663288223929331622,-0.00361897156814405124292122,0.0122653483010352806065191,0.00290764020641282733281585,-0.000502206815786415791853792,0.00403503355520570729936258,0.99998737453561836741045,-0.00068988037775477573099181,0.12099409446784661903429,9.79958927901478560329451,-0.0133232034368257149653525,0.0630099490049201710339943,-0.00586044916848290145527933,-0.628888564198379462766297,1.78705396124583049122236,1.33234901869811550589873,1143.17978356281560081698,1099.52961795116380017134,1121.65071045350964595855,1143.51140190048249678512,-416.613520028758784974343,175.445777140616087308445,469.066113366908211901318,336.653820370072821788199,162.496870545754632075841
2.60000000000000008881784,-0.858507792421419280159967,0.381225890151917823356342,-0.67630673114484729513407,0.0567676154459694909393264,-0.00267137911759402152736542,0.00947729262571552627525406,0.00299137604395949621705064,-0.000455651230429594356150652,0.00407860718178846854559128,0.99998698498537164081057,-0.00302359681061128982015873,0.119282609876540268700751,9.80165743212830697927984,-0.0131589705042705843590634,0.0632569205411051688203727,-0.00586603861320040415039401,-0.628925700801767573189238,1.78721618222383060725633,1.33232928011261542167176,1142.1680527734770294046,1100.18663893714369805821,1122.91427809905280810199,1144.34375713584063305461,-406.763302788030671308661,357.984621630892775101529,574.791846908659408654785,339.179952770526085714664,162.497882047720992204631
2.60250000000000003552714,-0.316001600497274492962418,0.620149816513629659198159,-0.873227006925653803648402,0.0550374975054611359492895,0.000245739586193584043198601,0.00569931243901320751243933,0.00306702135666016414625168,-0.000406951105673189126015615,0.00411045226522882990033425,0.999986657507007214995554,-0.00546108775764227172277998,0.117282297218408271266554,9.80379428488996929047516,-0.0129957228889051434189694,0.0634893403716047244333964,-0.00586030814678993681315911,-0.628963296454909004395972,1.78737711599491122527184,1.33231204469154418390531,1141.14596704887549094565,1101.31954105931822596176,1124.52466968805288161093,1145.20730166433509111812,-330.292720944778693592525,440.093168041640012688731,588.363367648947814814164,283.099356582585301111976,162.499097479411432232155
2.60499999999999998223643,0.13154854100855561949146,0.772093699096525143410474,-0.951273624857049138192622,0.0554632723401038765786986,0.00326861748955358183757469,0.00288827576323310913561371,0.00313637682827771265697825,-0.000361403857600503682599713,0.00412661090560645805319639,0.999986401651728140649311,-0.00788851798384286595489101,0.115059220280830876159683,9.80597628449762304114756,-0.0128343029252324727917944,0.0637089340778822232902456,-0.0058464318459588299203844,-0.629000172436630977657046,1.78753697382709786367627,1.33229755476313238560238,1140.51658916875317117956,1102.38710477735185122583,1125.8560949372974846483,1145.75925391875352943316,-201.259609696266778655627,411.823946653030020570441,510.690389574358050595038,181.68242113393193903903,162.500111293202877504882
2.60749999999999992894573,0.517167764541769159336582,0.859155830394038977360083,-0.945146839222182122419724,0.0577848986588207075287826,0.00582787681245011159048008,0.000631613757659856673264132,0.0032000728810537551125015,-0.000322508707761678524873067,0.00412519079131023948953105,0.99998622343619880670218,-0.0102258762360623867149201,0.112653038569052288409011,9.80818600630716375121665,-0.0126757776860099528881687,0.0639177959490399016928563,-0.00582783356127522956385834,-0.629035155226956299578944,1.7876960846569560636965,1.33228548971900440101024,1140.13966900039417851076,1103.37866079258333229518,1127.07812163592461729422,1146.11571377000473148655,-115.050501815633381852422,358.495096034910943672003,457.464286880995814499329,113.299731163217671792154,162.501125620979053110204
2.60999999999999987565502,0.821973227535250150488366,0.893514094661275071196371,-0.877483047364758239616833,0.0611054780836550737177504,0.00781836512418093189380475,-0.0013324745983056475884948,0.00325744125681809958139379,-0.000290760587055928162742574,0.00411000121311204912044612,0.999986110404750716540434,-0.0124493267066217716543264,0.110073809997241284230896,9.81041229025660932450137,-0.0125208324793955588088989,0.0641182401788759764871273,-0.00580779857128064288390723,-0.629068511049800105361385,1.7878538654936337870538,1.33227623080539880895401,1139.94133665967501656269,1104.1795802575263678591,1128.14341637170241483545,1146.3257525745696057129,-53.6424877694080493029105,255.309051554359996316634,373.112203080811298150365,58.1535649869198891792621,162.502139993614804325262
2.61250000000000026645353,1.01819959252869196575375,0.869564671782150022671942,-0.743988388837926284402613,0.0645210724921274070275956,0.00950421319945659801020632,-0.00322908392007939092777091,0.00330778896695638419470087,-0.000264290583342431358374047,0.00408727208393106205414069,0.999986041557367477672358,-0.014579132702296875023773,0.107327390796467664335623,9.8126491589526061432025,-0.0123700069556269033610452,0.0643124402955652096913752,-0.00578920805437738508758549,-0.629101241389834142658799,1.78800970370025646971612,1.33226991239395986532656,1139.87145656154712014541,1104.65520605035521839454,1128.94368265132879969315,1146.40648159493935054343,-28.976598771712676949619,126.838412084126133549944,271.471006573647059667564,20.5667528244234496526133,162.503153629407762537085
2.61500000000000021316282,1.14174330112909139245403,0.774612519712010283434722,-0.516226340593995636218949,0.0679259406858566394671328,0.0114509708685270154837621,-0.00556359779203316646978283,0.0033531307849778537247265,-0.000244399961616528934010145,0.00406361337085613203573553,0.99998598501846325259379,-0.0165711675127892463232904,0.104469220170873539066392,9.81489331480317872546948,-0.0122239059056839481642864,0.0645020282861919480588142,-0.00577433282958317913718949,-0.629133728467337061118769,1.78816423275692937266967,1.33226510694936051137915,1139.79645366581644339021,1104.81377231794704130152,1129.5007714045707416517,1146.42858633869172990671,-43.5830481905677729059789,-4.52769241396718502556951,124.241411497999166613226,4.46913655673607035367922,162.504367223974867329161
2.61750000000000015987212,1.1713780732838141585006,0.635686800531337858899406,-0.27916226245524838889267,0.0701752049296991281535085,0.0132112653171496934739748,-0.00727606123386969477762065,0.00339766312809894202931482,-0.000235663512223884777808253,0.00404330733034101788558878,0.999985910298597846512791,-0.0183154504836475495732628,0.101594943223285216760132,9.81714302751594303231286,-0.0120835263870016102610849,0.0646877324986177698606937,-0.00576445111264128808720164,-0.629165595438095137659218,1.7883187771030897295077,1.33226049360512432961912,1139.65354132059428593493,1104.63256758828538295347,1129.56488970881878231012,1146.42882727772303042002,-83.3990487376940592412211,-121.494489536601435020202,-68.3801587343638033189563,-0.719735290795157967025375,162.505374133658932578328
2.62000000000000010658141,1.14627760301256098607325,0.426730152251888872338981,-0.0134534639275381492917738,0.0721166550902645198117824,0.0152900605687396641541032,-0.00791481345956733875479649,0.00344469175422545265119467,-0.000239199554019529740667149,0.00403005003472739313508111,0.999985792659633943024744,-0.0197682473444340256474305,0.0987811963586084085253702,9.81939822907103376792293,-0.0119499440251566793613769,0.0648692918170340471206714,-0.00575949788186488204067004,-0.629196528573848445908823,1.78847465570355557140658,1.33225455032629591656246,1139.37945842212798197579,1104.2062998702640470583,1129.15887061089892995369,1146.42498766223775419348,-141.971093993018541823403,-222.148537586831679391253,-291.084931392976443476073,-11.6515760333188822528427,162.506373083846000326957
2.62250000000000005329071,1.06351128051969046062197,0.0951346533485563639054305,0.304084348795692682720926,0.0744333847077886384679957,0.0174707936362593664603171,-0.00704085282605629129981661,0.00349870222671900751865159,-0.000256136578626586493365874,0.00402113195853600214474399,0.999985628133721826671376,-0.0208855133638574524956866,0.0961273454309619634905459,9.82165782360985062382497,-0.0118250385108395802274961,0.0650453283611337890190995,-0.00575833537007031104337784,-0.629225714009902570289512,1.78863328464547621798886,1.33224614028268328880245,1138.94368585062920828932,1103.52182490035124828864,1128.1094650518539310724,1146.37056939755643725221,-158.273769037899654676949,-265.977671751585376114235,-473.014825959954634981841,-41.1430840092188745416024,162.507557627296392865901
2.625,0.947484451342542555174475,-0.234270907745296325108697,0.54311266332672580858798,0.0765345657756234115653982,0.0183471042086384011904343,-0.00538254679935909908367053,0.00356249545550265441645754,-0.000287128668089214910720541,0.00401321775839267452790082,0.9999854212143985954242,-0.0216319729103276806037037,0.0936992674587503737715366,9.82391904097704760090437,-0.0117105768499581666675091,0.0652137717982761988544382,-0.00575868811946183244143693,-0.629252152685588317382326,1.78879623307043655877635,1.33223433649929101640907,1138.58808957693850061332,1102.87641151150614859944,1126.79379648109920708521,1146.21927224219166419061,-108.56564464793568447476,-263.230293623934073821147,-599.092825580613862257451,-98.3756516723154277315189,162.508528552459068805547
2.62749999999999994670929,0.770178710296485213859796,-0.583405115775732840965873,0.735286216746526166687659,0.079022643678199833150444,0.0177509792952149324241073,-0.00339781789698008615183134,0.00363652582117578084680565,-0.00032672791963789883694716,0.00400851266701617112847567,0.99998516110481261431886,-0.0220915096244869435526681,0.0915165575776169804012028,9.82617697479609120136956,-0.0116070556954958725021099,0.0653724689238682765690669,-0.00575763519977869845517526,-0.629276332902622304033002,1.78896346892064039835191,1.33221920236940638559986,1138.40085762738954144879,1102.20567343223160605703,1125.11400092395092542574,1145.87869113919487062958,-22.9861373351018656308042,-269.618916737914616987837,-708.490619161345080101455,-174.129785187555256698033,162.509476604335446836558
2.62999999999999989341859,0.533021337924448501688346,-0.913160428825875558622727,0.880560229756871648554295,0.0817146789268248657789329,0.0157618431529292814252674,-0.00140095707658284183115549,0.00371720938929719123614004,-0.000368275152565246345539446,0.00400633301752442456261649,0.999984862062518353731377,-0.0223742084267282495546603,0.0895197963757328185607776,9.8284237114311192584637,-0.0115145332463801111644308,0.0655195619358332204118511,-0.00575176811091288302940638,-0.629299777685346950484302,1.78913329117211139518417,1.33220189800923627387874,1138.47315889026299373654,1101.52831692781660422042,1123.25134338529255728645,1145.34862331625390652334,110.885430198825446268529,-273.401970110950458092702,-751.077990828314455029613,-254.369029165860382590836,162.510400525865264853564
2.63249999999999984012788,0.224681343991348841937494,-1.17512142405365560549058,0.963486203203382407522781,0.0842779144865679202824893,0.0121884232330526035698037,0.000683450373722183893328286,0.00380230657780983522311957,-0.000405810232085407796183418,0.00400569639632161050846193,0.999984535416233555338295,-0.0225790947992532894939011,0.0876756310503281621748783,9.83064643252222047919986,-0.0114321351289932530981286,0.0656539347198430017771287,-0.00573826763155177443920252,-0.629324258942583703024809,1.78930380856382487131384,1.33218383950198315801572,1138.95528477838365688513,1100.83866358167688304093,1121.35861096980943329982,1144.60684599336559585936,310.209214810653975291643,-308.387173269945492393163,-787.968306342046616919106,-356.474030306775205190206,162.511288675771652378899
2.63500000000000023092639,-0.198483906422819933457191,-1.36740009589186595206911,0.982713426092302055891992,0.0859441561343854687482491,0.00676168655527395641435806,0.00357481036091441238544686,0.00389027216448480225516326,-0.000435717770398113049806071,0.00400413361255612994943354,0.999984196244929179897554,-0.0227632504334363966469468,0.0859635262297597790848158,9.8328276616581327118638,-0.011358281228662114870076,0.0657753958535475247160207,-0.00571502525785620198173209,-0.629350782831639254943923,1.78947374862187658095536,1.33216592331055472264723,1140.02420496431636820489,1099.986381061466772735,1119.31150185358205817465,1143.56625316471991027356,457.910916391680075321347,-315.436612972986551994836,-681.396322622776438038272,-384.979305260250328046823,162.512304949395229414222
2.63750000000000017763568,-0.552568592094446420226461,-1.41187561712804243718722,0.925430635533004419812642,0.0848895921851140905500799,0.00205415336881896665524594,0.00642124845245285128664259,0.00398013338099399444774962,-0.000458230796056713286963646,0.0040016735627262317934183,0.999983846448220137226315,-0.0229125449442887860196372,0.0843722759562345880901546,9.8349457376727738022737,-0.0112904258426181087343609,0.0658847435004656645229915,-0.0056806617022135590458487,-0.629379140623136157373096,1.78964241007651314596671,1.33214905339412559293066,1141.24483936034221187583,1099.26148051681184369954,1117.95162935669532089378,1142.68194946706421433191,519.181413473290490401268,-285.377179231187881214282,-448.72150369602468344965,-326.832878061539020109194,162.51310526459690208867
2.64000000000000012434498,-0.84732404876274514116119,-1.34351498348271558569422,0.789670566023700892799297,0.0812174435903520453017279,-0.00205941200755791441190379,0.00939227345919592393475028,0.00407223409861067701248638,-0.000473592947856869329621016,0.00399759121067780765629296,0.999983486940695054379091,-0.0230184288548805626728466,0.0829146933624891058212114,9.83697588152842605779824,-0.0112257523598720647395321,0.0659835029606024997539393,-0.00563464335915861685294415,-0.629408592414748446763895,1.78980943357731336895711,1.3321335975682180308155,1142.62011203168276551878,1098.55949516531086374016,1117.06789433510198250588,1141.93208877441225013172,584.782072408610247293836,-286.402033060818837384431,-272.234667949902700456732,-264.740439655139368824166,162.51385167865723246905
2.64250000000000007105427,-1.08461645683374174886637,-1.16275793695034024288759,0.548788726025895012838873,0.0757839973920447496080754,-0.00576561692063538334951378,0.0120753006626532679440578,0.00416686372908225879235777,-0.000483733150668459125492982,0.00398988183670850957845966,0.999983124034569570426356,-0.0230456173377279124880879,0.0816001302544972495489617,9.83889139046279304068321,-0.0111615145633319045453957,0.0660736670335587000790767,-0.00557690123979322997099795,-0.629438622771001821121217,1.78997441267876289394678,1.33211946097569566838104,1144.16874972238520058454,1097.82947035150777992385,1116.59045601694583638164,1141.35824726878854562528,511.897272322414210066199,-232.870755440722376761187,-83.2180244622140463661708,-137.764263927286464195276,162.51467963787754911209
2.64500000000000001776357,-1.17997894287732640883348,-0.95938234731419014256204,0.303372158556666216000508,0.0718288984347252718043464,-0.00790421702777941749540336,0.013149697538450749387251,0.00426239283293540494046425,-0.000488471070684850638271568,0.00398109225756849288702099,0.999982754073672208683377,-0.0230060006492455379478734,0.0803973281522031013590635,9.84066558096223076290698,-0.0110943855929619816097498,0.0661575245433036751574463,-0.00550748964915267948810884,-0.62946867580123488927768,1.79013718922888487306011,1.33210621049179089858683,1145.17959839329478199943,1097.39514138810727672535,1116.65180421279092115583,1141.24326745477583244792,313.925565363895088921709,-118.924026224251775829543,109.742528563949761633012,36.8617257743161346184024,162.515309871332505053942
2.64749999999999996447286,-1.1918224038732696534737,-0.733465914409761499115348,0.0413130861390452949755137,0.069073920542856992454972,-0.00936490025689261894326076,0.0133609514835275992872266,0.00435760819607169166273186,-0.000487121516588359952833198,0.00397251027708938123095272,0.999982377580879600031949,-0.0229276001343559354683777,0.079280854662522853848472,9.84227215936518717853687,-0.0110213296424595333378171,0.066237152967995677199653,-0.0054267128498406000045029,-0.629499174479083545286073,1.79029861008403190503202,1.33209333164128196358433,1145.73837754920464249153,1097.23485022038653369236,1117.13916865976557346585,1141.54255589766012235486,130.870564634417917204701,7.45393958618494689716272,305.544622740769398205884,215.127030892795147565266,162.51587497835697604387
2.64999999999999991118216,-1.14831382297954887050651,-0.463468625504149744909199,-0.259264604143265575686428,0.0668497162063526884079323,-0.0102435332639125836057259,0.0130018678454839903962936,0.00445045905581291888208906,-0.000481107710485368061763267,0.00396293492377116154945504,0.999982008077964334979981,-0.02280266881150422308977,0.0782067093397065538074031,9.84368638817455554601565,-0.0109398781856193602624039,0.0663141167750180837714424,-0.00533483439568473508107793,-0.629531076967039471270482,1.79046012418055044967957,1.33208013462611729593732,1145.83395121646685765882,1097.43241108603820066492,1118.17952732649473546189,1142.31890260923978530627,-49.6271399076714843090485,140.620286127389846342339,456.546105751941183825693,333.941658004376051849249,162.516475172545966643156
2.65249999999999985789145,-1.08493287829218987283753,-0.250443777286446900287586,-0.47542730815420625178902,0.0653574265156363215512059,-0.0104110744516571884082934,0.012108220651703310508096,0.00453921639257168392511677,-0.000468897487797134140345007,0.0039537969096461733631287,0.999981648815037371669234,-0.0226853928423019213234113,0.077135670597231101308644,9.84488644007921998024813,-0.0108475724713310486130302,0.0663894377989404232964787,-0.00523236922078856945411696,-0.629564678672545841031649,1.79062261184298354699251,1.33206662880198734022485,1145.49024184966629036353,1097.93795165102346800268,1119.42189918852523078385,1143.21226418768196708697,-194.770753956150230123967,266.971657555659646732238,574.337407092759690385719,377.482158351924226735719,162.516908964375943469349
2.65500000000000024868996,-1.00040826920346903605719,-0.0513271139850716151542542,-0.629580971385097498682626,0.0636378439490662972666257,-0.0106595020694298520114174,0.0102582205458220509369793,0.00462172266577531593717554,-0.000450181130069337534938684,0.0039467750123929196126582,0.999981304473344212446762,-0.022608710661499158145471,0.0760192030040015148673049,9.8458542317660118214917,-0.0107425791001996805140717,0.066463585536192970604219,-0.00511996553224981342661293,-0.629599632913161455505247,1.79078611830999823162358,1.33205311462296416280537,1144.86009744668604071194,1098.7672693738165889954,1121.05121436195872774988,1144.20631340099953376921,-269.769346614593814592808,374.073368166293448666693,709.888430989892526667973,390.533069285876081266906,162.517272316843929047536
2.65750000000000019539925,-0.890995380490262500750021,0.1405938915606317340945,-0.715744779032633893223192,0.0613148641858637932777754,-0.0111928323581769167266442,0.00770725737071683431045344,0.00469604173301574247950674,-0.000428376508488469706983914,0.00394151887734520752631928,0.999980985632365704240954,-0.0225335861434067183384222,0.0748131395777905661148566,9.84657603926720881304391,-0.0106242712284792678589795,0.0665365362476323385365617,-0.00499850252710129765859604,-0.629634869702383581646643,1.79095060595284127913374,1.33203995140173758748858,1144.1413951165932303411,1099.8083184918550614384,1122.97134134347493272799,1145.16492953411147937004,-273.105017491030935161689,447.177696728304454154568,817.653467742110592553217,349.504860751502008042735,162.517576062010192572416
2.66000000000000014210855,-0.737422458601264319000279,0.325141773229423003410687,-0.710928791992411657219009,0.0583992993372380864158799,-0.011351536319564026894513,0.00491624319628450670571773,0.00476367489018023233804389,-0.000407792243827528942505534,0.00393918875633618697368332,0.999980680873551630583052,-0.022402297231220044682054,0.0735417745550921014840995,9.84704300695854151115327,-0.0104928827797720770204082,0.0666079470714093513361576,-0.00486961485322431712752245,-0.629669067959275241541661,1.79111624955064874242794,1.33202689823724318429754,1143.49457235923091502627,1101.0031578574580635177,1125.13948170066919374221,1145.95383770475700657698,-231.884997855836843427824,529.878579525404688865819,966.10112410828389784001,282.277346760207933584752,162.517806421425973439909
2.66250000000000008881784,-0.495030802846295303609736,0.526471065252004821743981,-0.608271080265221808502929,0.0553341971795879433715371,-0.0100558423370849421563111,0.00215002743437935940618022,0.0048243085082793745604901,-0.000388726706329372206569217,0.00394218416104781619463404,0.999980384119778298313008,-0.0222336594388567593272299,0.0721956445337859076261111,9.84725374307281597907604,-0.0103494871597658022466248,0.0666773340895549376794449,-0.00473512587492568026714679,-0.629701402630577722341343,1.79128258076818736022062,1.33201372415555852057878,1142.98197012731407085084,1102.45771138948202860774,1127.8018469640162493306,1146.57631626791248891095,-129.78620963213236905176,512.659536545890659908764,943.59551014233340993087,162.508501172673106793809,162.517995985499311473177
2.66500000000000003552714,-0.254052188600956185826618,0.664333626425171019924676,-0.46065976159367344466844,0.0538775810021112980252589,-0.00779055036689054250520492,0.000579930069493850546685776,0.00487847705045078329499919,-0.000370846581766798668623741,0.00395176353857288036736106,0.999980090638310836759217,-0.0220549848901294004432927,0.0707846455585604272808808,9.84721401778592664300049,-0.0101961846841543378461292,0.0667441011333438638519766,-0.00459737313340070809924987,-0.629731511265609000815857,1.79144912556530355729478,1.33200085472269202924167,1142.84564131107026696554,1103.56645554018746224756,1129.85745925138076017902,1146.76638021062035477371,5.0309180241584892101514,395.71443352716346453235,736.080849449369679859956,5.10245596215110630566869,162.518080029577021150544
2.66749999999999998223643,0.00259268727097990842045405,0.763137113077548057127331,-0.279132171131193596025355,0.0537657929467916864685328,-0.00524236249220356390760012,-0.000253107200971683442107529,0.00492889541101823158014694,-0.000351907780955942103146006,0.00396863431694292109058742,0.999979787423186272654618,-0.0219257107861418470973192,0.0693649178577508407350649,9.84693706531851020713475,-0.0100357616259185208201776,0.0668075827720367027007242,-0.00445944502853815125803516,-0.629759414097717962199852,1.79161537120267699840781,1.33198880193995927712081,1143.00712471743486275955,1104.43628355711780386628,1131.48225121126301928598,1146.60182854772324390069,117.402890086352954313043,306.049255232717030139611,568.409118151442612543178,-140.891554172461212601775,162.518085437046124752669
2.66999999999999992894573,0.295892188507898445948285,0.844753374855867655845998,-0.0600541031472193592710695,0.0547509120988043385125366,-0.00271280561900123437513166,-0.000557040409989458472871104,0.0049799440083729438685789,-0.000336667132627215762857853,0.00398836443365608531858024,0.999979467012021561167501,-0.0217614983531458361376565,0.0680289276038046203387566,9.84644294922097174094233,-0.00987210053731253991959882,0.0668669343563469686930745,-0.00432489759873678960427901,-0.629785472859584860572113,1.79178125746939165274796,1.33197802866988301850881,1143.43265576150201923156,1105.09670181635101471329,1132.69950484213791241928,1146.06192243975806377421,167.961936384930538679328,172.359842142535882203447,307.693416796161898218998,-235.558822649868972121112,162.517998717633957994622
2.67249999999999987565502,0.508586450452338412198117,0.895081475420539618426119,0.0971582859857188091412539,0.0560465385841128274635459,-0.00113135718620879636465981,-0.000321898700235633624007481,0.00503530073131141890641072,-0.000331204045118646431093701,0.00400890008871647527538551,0.999979114903620680543384,-0.0214447834752178947970158,0.0668588523832658876422386,9.84575949814941608906338,-0.00970887133148982256480863,0.066921247721668089547542,-0.00419745646331612116269882,-0.629809928482824576967403,1.79194756922238984664375,1.33196907191648183932386,1143.84693439935949754727,1105.29808276783046494529,1133.02071829524379609211,1145.4240344344739241933,141.436064818198701686924,15.0096990417286058061563,-9.66148782654207316511474,-265.608260087520022807439,162.51784704341795873006
2.67500000000000026645353,0.672058879647843609994595,0.940075900493260951940044,0.199632881043074000837478,0.0575992417135004625139416,0.000194442533640666641780656,0.000376776124637785442966775,0.00509841087297416978296738,-0.000336657154669533229332523,0.00403001712843564698779408,0.999978712299813277120109,-0.0209481932197341721990647,0.0659365593829313867413333,9.84492223687730216852287,-0.00954933806613175034661012,0.0669695172229657215146048,-0.00408102001673012453747402,-0.629832313346771477391428,1.79211457051861389189185,1.33196217049270559940055,1144.13983608559306048846,1105.17175031155966280494,1132.65119740300519879384,1144.73388113932037413178,61.9818852422171389093819,-106.450579727008602048954,-286.777293368803555040358,-285.28788701580998576901,162.517610807070980172284
2.67750000000000021316282,0.797634356728642357481363,0.988762464479860159194402,0.232113637510502512917299,0.0600806196571309347742584,0.00202917284462080134421758,0.00173886879378651348394824,0.00516917972588050531751458,-0.000352366308358509849017748,0.00404854717998798675077099,0.999978270954568815298558,-0.0202739623846607680546228,0.0652787402410923423001776,9.84397368569082864553366,-0.00939680483309644765110846,0.0670106202731802352845492,-0.00397889290277251075900189,-0.629853046405235761362462,1.79228158599155862340524,1.3319581461690215284932,1144.1568438255706041673,1104.76582986919538598158,1131.58683182839968139888,1143.99759499939477791486,-69.8412119348191851031515,-164.44607445060123041003,-455.980508038474624754599,-238.617764265387080513392,162.517226993820088409848
2.68000000000000015987212,0.836468400824736391108161,1.0139265593501909368257,0.170484765619973499539697,0.0628435086135091663939178,0.00411816172214636046222669,0.003244185864396448206598,0.0052443241272998389335136,-0.000375983240662690928850231,0.00406013638645818207562055,0.999977824671293258340654,-0.019452420906807585399001,0.0648435183579601226444566,9.84296172586086193234678,-0.00925417052009524197797585,0.0670433748216572866773788,-0.00389348684930760757100243,-0.629872939990665292597782,1.79244810519509623070178,1.33195747121441554483567,1143.79063002591897202365,1104.34951993930667413224,1130.37129486281287427119,1143.54079231799346416665,-236.372150631728374037266,-145.509196857031753324918,-506.667337213968380638107,-140.401104303558241781502,162.516821611835837302351
2.68250000000000010658141,0.807970116927507087112303,1.00102576940008702877094,0.0144957746378654994678925,0.0659217464854376655747359,0.00694242434977921860084216,0.00482455380562251887055503,0.0053248221553130921368524,-0.000404300667525851124654845,0.00406053652446142655102479,0.999977384703924943032405,-0.018526248847915219308824,0.064676545648170311042513,9.84193597679485066009875,-0.00912362694407768508308987,0.0670664679462534690790321,-0.00382687843245664528410432,-0.62989242574081194536717,1.79261451080653944067933,1.331959341509026728545,1142.97498307241198745032,1104.03828388491024270479,1129.05349514232989349694,1143.29558947787700162735,-398.514311534617547749804,-79.6525385457260739485719,-513.400074925095395883545,-63.169565137242429386788,162.516325076435151686383
2.68500000000000005329071,0.736255169857210400863323,0.940282760240802595319565,-0.206809726327837145598565,0.0686415586566440499849406,0.0100881922233515500947343,0.00592805660647139492924751,0.00541357343573935310271361,-0.000430716327629109539155972,0.004050403075628014430698,0.999976932738821044921451,-0.0176017090024233047174107,0.0648639782643920248528246,9.84094633231935134176638,-0.00900594557886100557930753,0.0670785235224887199656507,-0.00378014743204904517248632,-0.629911695891072764830199,1.79278169667001274767415,1.3319621067833173899686,1141.79805846824592663324,1103.95125724657805221796,1127.80429448818745186145,1143.22494449230725876987,-543.702348784029481976177,45.5232212792917110277813,-458.346402030347917389008,4.17002889703335100080039,162.515751134675014100139
2.6875,0.642474268086061339744219,0.811390002897792506075803,-0.47125111906773059500253,0.0703304305320613526442131,0.0128899176690394495770065,0.00556507944130079507116804,0.00551018144997985487298919,-0.000449723147753642888291986,0.00403119061581935431148871,0.999976464777651341542253,-0.0167629925031927973222423,0.0654289189921949676520541,9.84004111988807039779203,-0.00890105595958013556812105,0.0670781122775361421384233,-0.0037523649463157074390729,-0.629930997524901781225992,1.79295029821665918845497,1.33196404340875251826048,1140.25647132849189802073,1104.26589999130669639271,1126.76176313217820279533,1143.31643962236216793826,-732.026621067613746163261,248.715648368539262946797,-398.34038705358517518107,55.2883515061705992366115,162.515081597735161267337
2.68999999999999994670929,0.551096290590524118258031,0.579458766837484984257856,-0.776353346581435954654182,0.0710267576272696904426951,0.0155500688453629274526913,0.00298749563256495371046939,0.00561348485052330908179341,-0.000458202358847974720087309,0.00400238240878275121359398,0.999975988743714627737802,-0.0160488297869205501222645,0.0663802576187201565094398,9.83926395634381023569404,-0.00880845114723300542936002,0.0670638473675222168690624,-0.00374093159270943607583315,-0.629950292597367345059922,1.79312098937321007241508,1.3319634188041402644842,1138.13792536290793577791,1105.19483548842072195839,1125.81259255291956833389,1143.50138624983810586855,-792.158814560951782368647,429.772354144834082489979,-302.24670787939163574265,60.4835633239430663365965,162.514164674044991443225
2.69249999999999989341859,0.520975029031064518214578,0.33176053259541238293906,-0.976608230409962807527791,0.0711236954257199044393545,0.017254323570434170614929,-0.000423352073290426294312899,0.00572384820630054101664452,-0.000456890260529968310863891,0.00396483102457123506162651,0.99997549724271383997376,-0.0154250621259053796729965,0.0677557854686843541447416,9.83865085942434802745993,-0.0087267742032670660157212,0.0670346981720471857268961,-0.00374213521494201964423532,-0.629968637088308858196228,1.79329422716660857872739,1.33195933523914411544808,1136.29567725568722380558,1106.41476176203082104621,1125.25052959278127673315,1143.61885743898187683953,-712.138337425828240156989,558.248440224463706726965,-195.012970639167690478644,18.0147362279971474663398,162.513303960807860448767
2.69499999999999984012788,0.555348397932825088574305,0.0488138944743135572146286,-1.08554554286488591507975,0.0713412793764954811237544,0.0180547593596978132868269,-0.00428441958213475471151099,0.0058376940329772242926909,-0.000445909489878497009539282,0.00392014547467311839923365,0.999975002711909310981753,-0.0148749272708328730829841,0.069513232296639124174753,9.83823018677390059849586,-0.00865383208651619370566088,0.0669903673466868687658149,-0.00375096521884034491897686,-0.629986084006628921372339,1.79346949081216933130634,1.33195165041815033468708,1134.57723367577887074731,1107.98607768954298080644,1124.83752769972375062935,1143.59145993097808968741,-677.925240481181049290171,727.935217217824174440466,-175.109960226688599504996,-59.3042755194306678845351,162.512341115078015718609
2.69750000000000023092639,0.666845549865713316251004,-0.296873930549186981764365,-1.09839335495718648516572,0.0719985312961461121350482,0.0175774783040868604055973,-0.00847819352671370235485782,0.00595279699440074121924438,-0.000424481174287560448273732,0.003872567000073977219049,0.999974500933244470068928,-0.0144056990299537279742736,0.0716322534214556411180652,9.83802035113121142728687,-0.00858625895625959867363264,0.0669316204154109112289817,-0.00376236384951112064201073,-0.630003726994115886839154,1.79364526545636926435634,1.33194143293527811344745,1132.90605105328108948015,1110.05443784812018748198,1124.37497979164777461847,1143.32233606138470349833,-513.862435896327838236175,750.115318197544524991827,-183.434594949345751047076,-137.066957324432053155761,162.511066461118275583431
2.70000000000000017763568,0.801298330248383927632005,-0.562965960834510448229651,-1.01783008855152790061993,0.0729052535315637961765844,0.0159283055940540319017629,-0.0112028141642285545415136,0.00606985571139834461512619,-0.000393488637705930648178626,0.00382647094524914566787688,0.999973971293390606618345,-0.0139996490859633226921943,0.0741433174358231417144793,9.83802857687078180504159,-0.00851985723169690345457639,0.0668604340596512525252137,-0.00377185561714697779184258,-0.6300224321117440240414,1.79382054037240390442776,1.33193004803096570753951,1132.0079214962970581837,1111.73665428053095638461,1123.92035472497695991478,1142.90612514435588309425,-224.338029552887064710376,619.50743197441124721081,-211.849648892944031786101,-192.074513282618227094645,162.509904702015631983159
2.70250000000000012434498,0.944173032652757093785567,-0.780337679026321340280958,-0.859656416564579695105408,0.0742490723321787282618089,0.0132606466146892466168028,-0.013221313937901593357771,0.00618740618932880990371581,-0.000354807308512416574950571,0.00378618389082266762479811,0.999973408363797333642253,-0.013628443098056476634472,0.0770256709079581991517216,9.8382521935850917316202,-0.00844974748141943086954253,0.0667800553341423991371428,-0.00377516987615530378447071,-0.630043305693879784890044,1.79399406436310604462392,1.33191863817348110643479,1131.78436090551667803084,1113.15197500799217777967,1123.3157315471830770548,1142.36196349497163282649,79.2417098289223389429026,520.539833688519365750835,-302.710290759802887805563,-242.254619254577562514896,162.5086401949210710427
2.70500000000000007105427,1.0684722234007100194475,-0.972597479404799791780079,-0.599736897183046790971161,0.0767460671831945162590927,0.00975136759230014159294253,-0.0149411691879664607768285,0.00630203099241583020173607,-0.000310424156841141102650128,0.00375732277781591411311424,0.999972816496353944515363,-0.0132705062863739606249247,0.0802095939085592513073664,9.8386794111396191908625,-0.00837046799151502582403417,0.0666948731671651307006954,-0.00376839579319766327172858,-0.630067226700012694706743,1.79416480361923569297744,1.33190742174096654615312,1132.40413004544166142296,1114.33935344897349750681,1122.4068032711779778765,1141.69485204808302114543,377.718917021419542834337,332.522219269874597102898,-352.153040629180623000138,-226.934533746093904937879,162.507005684378583509897
2.70750000000000001776357,1.08360092070026081678691,-1.07991698591921858607634,-0.335241741888881394917377,0.0798867584428732957491093,0.00708353692378737177098857,-0.0159131821803811697446651,0.00640851514376670951950166,-0.000261758538911309468228544,0.00374483972418411048890818,0.999972214090556921206598,-0.0129241600525664135368231,0.0835783906240546159427396,9.83929059327317823147041,-0.00827666243078794064413906,0.066610065612327754025479,-0.00374802556634449461972491,-0.630094564919493338450707,1.79433193069637586525289,1.33189592302351766939239,1133.67295549062373538618,1114.81458610434151523805,1121.55496634403721145645,1141.22729082624118746025,649.328103688563032847014,77.5919639918373036380217,-332.652875296851391340169,-150.972028825257012840666,162.505547910511978670911
2.70999999999999996447286,0.950330641833347478097949,-1.14623433466266910762954,-0.0293474185939614773399597,0.084021207131539876744597,0.00474180988594710174643954,-0.0166545263730212417252474,0.00650455482458575044019122,-0.000213811431233519111741459,0.00374261523315538727554874,0.99997163578903525138486,-0.012525880183120410849007,0.0870612353281153550366156,9.84005815709124220802551,-0.00816500746343240546565312,0.0665309432957547075560001,-0.00371152501500519524380017,-0.630124298101575441855005,1.79449563575619741584433,1.33188400109473370491742,1135.65077056388440723822,1114.72731326893267578271,1120.74353889469375644694,1140.93999190395675213949,885.729467391339085224899,-122.292799474874172460659,-291.852797779353579699091,-79.3270772521299107893356,162.503993896576929500952
2.71249999999999991118216,0.665205457442683889546231,-1.188763445466906043535,0.304090491873160340130511,0.0884526042406973272980153,0.00261189731834423136125345,-0.0171688096922452126946723,0.00658988245270182831231365,-0.000171261908768974405225041,0.00374583478729111031199639,0.999971098344726749829192,-0.0120240480384056214191446,0.0906147673770075490207176,9.8409490644606911757819,-0.00803300423972790229865115,0.066462671909012588367105,-0.00365734586160840202673228,-0.630155221835559498089196,1.79465677419812896786766,1.33187134565629050619862,1138.10160282758033645223,1114.20312210696715737868,1120.09570235514047453762,1140.83065543998054636177,1055.27927079290270739875,-298.726143553319161583204,-191.573179117408017191337,-3.97620597682370613412672,162.50236294151599736324
2.71499999999999985789145,0.193923232506706677558128,-1.20751784369287817888505,0.653940138918726820982386,0.0925290288743094158085967,0.000590048408992152996835334,-0.0169687892634708195616078,0.0066651614232812912697046,-0.000135435929175822323319162,0.00375480069900806451635433,0.999970594575977589357763,-0.0114358717445803281798078,0.0942017254137477444420057,9.84192751935007237307218,-0.00787878172701490103735367,0.0664099094172753839915302,-0.00358492444779893093195766,-0.630186499201672800651863,1.79481604831016916534736,1.33185837507974569327018,1140.92716691784880822524,1113.23368255116611180711,1119.78567299910673682461,1140.92011087407263403293,1272.53982397337995280395,-501.484311234992446770775,-37.6775117169447213427702,71.9307635357787660268514,162.500643181826376348909
2.71750000000000024868996,-0.535950919658459090655356,-1.19405331925516944302501,1.05353404713275744519763,0.0953526717639340687382443,-0.00220100499781121072134793,-0.0150737711348429420654682,0.00673333605637063854765234,-0.000106587264099827484743407,0.00376836294392349831910982,0.999970108567304838409484,-0.0108005814680593170695744,0.0978194364510159564130021,9.84295647133506967918493,-0.00770216828063829874601032,0.0663763663007211901501137,-0.00349490859660440966738548,-0.630217445230577766324132,1.79497413759162238733325,1.3318457878172607067313,1144.4643019474476659525,1111.69570055079202575143,1119.90731479655573821219,1141.19030925765946449246,1280.83942507810661481926,-604.532464475601159392681,127.424084674058164523558,114.392636874564701088275,162.498482421971004896477
2.72000000000000019539925,-1.20276605272100023391602,-1.13682889295953715169674,1.33091944075354917664811,0.0942391730348530326510925,-0.00522266675140373431290852,-0.0117682945271727762426295,0.00679680422717320043002331,-8.49271713555908581679346e-05,0.00378746171728867138048247,0.999969620975462381018417,-0.0101560391445260495002501,0.101445513154228367236342,9.84400041186570184947868,-0.0075042913032942089313071,0.066364666083807269392203,-0.00338878460928598987042526,-0.630247303531036084933703,1.79513182227356482556502,1.33183429662055963227374,1147.33136404323977330932,1110.21102022878790194227,1120.42279342247707063507,1141.49207405844549612084,1090.99831080236572233844,-613.436697371675450085604,277.924686661168834689306,125.832248343479434993242,162.496605354165808421385
2.72250000000000014210855,-1.80672997275842273090518,-1.01007759203699776229257,1.5046415808477506814711,0.0886280651248807505027116,-0.00884526852576390278104501,-0.00692853145819638960994924,0.00686006492991188699531735,-7.04127755751942122856152e-05,0.00381283358868514171344244,0.999969099868032174072141,-0.00954021265749052660432028,0.105092557444548567735509,9.84502670325565532039036,-0.00728782980335286947881634,0.0663761866690924101641613,-0.00326915912844862304592608,-0.630274685699125147841926,1.79529030078345686050056,1.3318241651436000250186,1149.91929350145937860361,1108.62851706393371387094,1121.29693822986155282706,1141.81947049937684823817,1045.95751811668787922827,-702.315946356171934894519,440.072715658889421774802,145.429830086144107781365,162.494654655364513473614
2.72500000000000008881784,-2.32685157733440295402261,-0.765929968090947266290414,1.56016860278600377753833,0.078840014661727741973607,-0.0126687375927564595951003,-0.00059575501950193121558641,0.0069242410205439712880815,-6.09934897861594147111877e-05,0.00384331689554664622174296,0.999968544070827025649351,-0.00902386930409081189363718,0.108703234614773575072988,9.84600920007790847421347,-0.00705702498848307172019112,0.0664111053800138795288888,-0.00313891591028961271930831,-0.630298639881667233098028,1.79545002741384451816486,1.33181573202209202477775,1152.56115163382310129236,1106.69944049700711730111,1122.62315700077147084812,1142.21922320887620116991,881.370773399222002808528,-707.470160013978443203086,510.488779441049643992301,149.750638356002582440851,162.492235840702392124513
2.72750000000000003552714,-2.52999937715879319455325,-0.492221656666731621765365,1.47623647878341057726459,0.0701084528409196133802439,-0.0148508918140385203637832,0.00414973533783150137083107,0.00698686156652662988808533,-5.5710850410968350081807e-05,0.00387734985160720444646865,0.99996797800717551751859,-0.00864729620446473556949485,0.112148203973739785110908,9.84692950022293267409168,-0.00681713232215138287967138,0.0664685695545517707394367,-0.00300095550789248504200413,-0.630318610265432788253293,1.79561163684563940279304,1.33180888383920192907794,1154.32614736845539482601,1105.09116626386389725667,1123.84938212706674676156,1142.56822369115684523422,610.37716376623779979127,-643.022303326429323533375,490.979627447324219247093,148.96763152924313544645,162.490160754262404907422
2.72999999999999998223643,-2.47470886047677307573167,-0.167643413161940618705259,1.27653819915780508686964,0.0618288064481520571735729,-0.0160820888747608345403783,0.00770274186801010382619204,0.00705087037777521723896923,-5.43850132838133890306014e-05,0.00391504026052989003575666,0.999967380306233111220138,-0.0084239788815465566074181,0.115405908902886183975411,9.84777528101993659959135,-0.00657366731082989572826358,0.066546893336967505305779,-0.00285920252668049167804609,-0.630334801320344362274284,1.79577514994915499180195,1.33180362013047348668238,1155.61303745265422548982,1103.48432898037503946398,1125.07805513800803964841,1142.96406136652240093099,450.955214700443832498422,-705.454717742683442338603,515.952954877786510223814,189.883410193401175547478,162.488031083965495326993
2.73249999999999992894573,-2.14264272293532576085795,0.243144263989723580232649,0.940171976540838727487426,0.0532681410940755925564893,-0.0162704220560420109720212,0.010726973249888381578554,0.00711784909612836903108901,-5.35510495198892431272832e-05,0.003956651771337724859956,0.999966738450252079495328,-0.00842065701827611479135527,0.118432151141950187112073,9.84854335202066266674592,-0.00633209114774074821596628,0.0666438273463089564385697,-0.00271756447392550995120764,-0.63034824616811235831193,1.79593935254886361008175,1.33180059925425520184206,1156.58092344195756595582,1101.56389267515055507829,1126.42914690145562417456,1143.51764074212383093254,252.810533856114432182949,-696.943951349991380084248,458.849649479507888827357,213.012203296834741195198,162.485421065235470905463
2.73499999999999987565502,-1.69604748584312825521181,0.570685436475207752415884,0.607284907269494911297159,0.0479360218341162366839647,-0.0150233022725055620494317,0.0125557019995106017296038,0.00718719851231156264120825,-4.93284311872615069773963e-05,0.00400288661096729996013988,0.999966054428750306115603,-0.00870087058142722524767265,0.121145987763498913514226,9.84923958065625626545625,-0.00609737651764267855891699,0.0667567347535616417708582,-0.00257953839447748294044782,-0.630359532589733317919922,1.79610408327216819479588,1.33179990402894521395183,1156.87709012193477065011,1099.99960922362515702844,1127.37230338540553020721,1144.0291223830065518996,2.84601909447682244191924,-602.660656767607406436582,324.771601991484089921869,200.949400665726983561399,162.483207192908110982899
2.73750000000000026645353,-1.15328912492726298744117,0.844733867515378045176533,0.251375571668579544937216,0.0452654057441812668338699,-0.0123689413504223921086433,0.0137354333783375956445916,0.00726009073543479842294257,-4.05351631668725005501475e-05,0.0040549418901358481176489,0.999965316023907924147807,-0.00926404940503881835223154,0.123509344183596908584022,9.84987668756621381760397,-0.0058737082176608017627939,0.0668826477691627091504145,-0.00244842210969638653453306,-0.630368768785805611010176,1.79626962699583603289,1.33180059473627809829566,1156.59515353742995102948,1098.55058939131231454667,1128.05300491141315433197,1144.52238774545253363613,-214.31502409608046377798,-542.824043991240387185826,223.469947255747143799454,178.933503369204771615841,162.480960778440334024708
2.74000000000000021316282,-0.591636500861727809841284,1.05332241973994178430019,-0.0994295958940230456546416,0.044906423083044211264081,-0.00893544237291013683510688,0.0140868917284609953405328,0.00733837698004868605600182,-3.00058897388039155589533e-05,0.00410886517476251756503247,0.999964525114313329545723,-0.0100220867798651164237711,0.125507846018597463144673,9.85047338300247865561232,-0.00566499764749236849048497,0.0670182830523090578012102,-0.0023269379921685550555166,-0.630376410017164046095672,1.79643661410834143410398,1.3318020885821151289008,1155.80551500145429599797,1097.2854890036687720567,1128.48965312168434138584,1144.92378989985263615381,-437.06935813098448306846,-435.611650838709635991108,118.835560163691098978234,122.401599053230597746733,162.478693229787836571631
2.74250000000000015987212,-0.0619845759165292553571902,1.17345355745742274677923,-0.412616847816395182491078,0.0462729663292759246795427,-0.0052465835340136275644074,0.0131577914516778724657309,0.00742122333814950688873902,-2.06641947913328616380849e-05,0.00416302575857368465511721,0.999963692464666764614378,-0.0108775286279564759039928,0.12708525788128732791904,9.85105461230062928734696,-0.00547367106263010275851721,0.0671602727157926820966694,-0.00221671710726814227832016,-0.630382941004974717280618,1.79660503722673503546048,1.33180385762613551214884,1154.40980674677507522574,1096.3725311371188126941,1128.6471827122315971792,1145.13439574071867355087,-736.08094252578416671895,-285.491170438087181082665,21.5438423565506163015471,41.7853287354782665374842,162.476407325763858580103
2.74500000000000010658141,0.504216283431832890116198,1.22428172237142618428152,-0.706281492355252171755353,0.048489564027282855418477,-0.00123786669430411009132365,0.0107750379297829063790504,0.007506245593761946659217,-1.5022168412152929375513e-05,0.00421632723084784492850741,0.999962838696874412036664,-0.011735953898056303290609,0.128167182646610117169317,9.851649533428872729246,-0.00530077855063230268806151,0.0673052800131967166041846,-0.00211841160741919800475364,-0.630389315736748279128676,1.7967736888189596022869,1.33180616155890674257023,1152.1251102888254536083,1095.85803315147836656251,1128.59737233346709217585,1145.13271654353002304561,-912.587861108451193103974,-68.8572966408643054592176,-38.1382234232668366757935,-34.3972933855191556062891,162.473652307725956234208
2.74750000000000005329071,0.918617127674363431744098,1.20576571262722898048025,-0.860833228544967909989793,0.0501589744485134089724276,0.00166390961979905288407877,0.00801706423822373150100962,0.00759328386996086911880921,-1.20818252220561501357292e-05,0.00426590113474579687991017,0.999961975911425993146509,-0.0125696433171953725338454,0.128736745453579742859418,9.85228864113657643031274,-0.00514627703922538193986869,0.0674500276148102539952589,-0.00203221212466032702045893,-0.630396699895724110795925,1.79694219108785957494945,1.33180898712722406429521,1149.84686744123291646247,1096.02824465391449848539,1128.45649159511526704591,1144.96240927379108143214,-943.171466829992027669505,212.533046364119371673951,-48.4303964779438800292155,-78.6137893308039963358169,162.471353353583566558882
2.75,1.28491576274969565574224,1.14802286996394675711031,-0.908911855781555977351616,0.0515495055248834516126166,0.00420592041909999530407971,0.00461752534038656261422551,0.00768255498378154003114027,-8.15889782813446403644201e-06,0.0043075578074491084959452,0.999961120225920208071102,-0.0134038947223220003546196,0.128798529242852594078883,9.85300217487768925650471,-0.00500910821172793202515905,0.0675912843314759453905438,-0.00195755852844054379496841,-0.630406005290459092726962,1.79711080424422475765311,1.33181175248082261930449,1147.4092529546755940828,1096.92069838329894082563,1128.35522035107737792714,1144.73964759687601144833,-1046.78170679987897528918,566.852802323104015158606,-4.19549568055126531618271,-73.2615474485116635605664,162.46905941943779794201
2.75249999999999994670929,1.66897518724118398836254,1.05829874821694835951291,-0.851541530409422930958385,0.0541243293097580444039885,0.00673638378534978637252051,0.000664749108990663134868826,0.00777332906502702179057929,1.41169563364340634183895e-06,0.00433682810710182223973286,0.999960296912776325228833,-0.0142856307040778451877827,0.128352389913494374651393,9.85381829239755546723245,-0.00488734227398024672489596,0.0677258280024378711559052,-0.00189294914964267270950093,-0.630417664265611632501418,1.79727939660864799442663,1.33181397162454406846166,1144.61295890723363299912,1098.86250866552995830716,1128.43551411671251116786,1144.5961015365485309303,-959.565184702635178837227,846.513080818767662094615,78.2200854871933444201204,-8.23229466636820994551726,162.466322153269004502363
2.75499999999999989341859,1.92391098447934183468533,0.979125877700861124708354,-0.731061725094635739274906,0.0580139516837363880541467,0.00834978077562543302692077,-0.00170336089029721128758343,0.00786435007675533037652116,1.83922470664034071825745e-05,0.00435384992974067151771944,0.999959514767395418743945,-0.015207911286099752568024,0.127400696225120374505124,9.85476053857222034082497,-0.00477788953250370910380562,0.0678504363825339490423616,-0.00183603724416299949641351,-0.63043104567567198603939,1.79744761205415337634861,1.33181517441044405813955,1142.61142703116252050677,1101.15326378739268875506,1128.74632077851333633589,1144.6984861235441712779,-691.007469440652357661747,1020.21925019682737456606,176.489194086438260455907,102.216012521423536441034,162.464060949380410647791
2.75749999999999984012788,2.07384391476887586236444,0.899127555617682761024412,-0.576523263184276490989078,0.0638548623450262281542322,0.00989704226641109977014032,-0.00273245828032755598210879,0.00795549634417007899001018,4.12931978205094163967073e-05,0.00435772117786627482399764,0.999958778439476447807976,-0.0161055926919098368887973,0.125981306776749207854138,9.85584557743212386071718,-0.00467760613816526563818465,0.0679617486571938572703644,-0.00178400605368787519913742,-0.630445138525826842545996,1.79761589844410463179258,1.33181499183519225226746,1141.15792156003044510726,1103.96360491651398660906,1129.31796008714468371181,1145.10718159915563774121,-473.479308962409845662478,1166.79585479079241849831,257.53195004661472466978,211.838360838268528141271,162.461828402803888593553
2.76000000000000023092639,2.11189130914369105340711,0.811638562040140065789728,-0.424972868315105056780112,0.0705273891343655839891724,0.0117585620789864685881154,-0.00287195851390378712256202,0.00804569505362249560997956,6.51218569837875384037282e-05,0.0043456208038509152105644,0.999958108973998616164636,-0.0168518274089430458717587,0.124125810744866893475802,9.85708255481921646889987,-0.00458364331555713693661103,0.0680562146615553142936506,-0.00173349962778779126057471,-0.63045916697431592101708,1.79778549839080525885038,1.33181310031626498613377,1140.24403048635031154845,1106.98724306134704420401,1130.03398052874649692967,1145.7576779277355853992,-234.494202049093104278654,1193.84867589056875658571,285.90839565061173743743,299.447610051472793202265,162.459625413151314887727
2.76250000000000017763568,2.00537649746965307429036,0.700354227451709943075286,-0.302739420120798352620284,0.0770810198465616963625635,0.0139515945309633213750056,-0.0023831162940599103297612,0.0081315888410874847397336,8.38315686099047569857304e-05,0.00431699600285910360664143,0.999957536071372166119886,-0.017306390416194944448236,0.12183186890944008862192,9.85847287623125723143858,-0.00449297717836419537029702,0.0681302078075499278897453,-0.00168072478308760840659541,-0.630473554503473976318162,1.7979574051689768410256,1.33180998142940643091947,1139.9854505497849004314,1109.9328482959672328434,1130.74750206539783903281,1146.6044196494131028885,16.5825842393136433372547,1187.3447385752822356153,253.872707776104959975783,381.892739951953387844696,162.457464812967430134449
2.76500000000000012434498,1.73028522073250035084868,0.522997134949334308018365,-0.199056949258344717534897,0.0837106485164587493796873,0.016331730443913811123835,-0.00144475825985353146727053,0.00821035020843594379180708,9.34982134389684765244516e-05,0.0042722307601088692005642,0.999957081464395325376415,-0.0173786342841663193903301,0.119117652645068655692384,9.86000906808491883737133,-0.00440265383063912461858447,0.0681802294307941592066413,-0.00162210874422880372766609,-0.630488773329280660639995,1.79813173464454534311585,1.331806412064997502398,1140.32694340754687800654,1112.9239667542233291897,1131.30334406762699472893,1147.66714162749531169538,207.133538706743678403654,949.019781659783120630891,109.931102284556416748273,371.854556381693953426293,162.454929496639692843019
2.76750000000000007105427,1.41180507068362182110377,0.333225314741870282109204,-0.135865052317003937032425,0.0876243800914239395760674,0.0179258654385993435043112,-0.00089060826378585360163509,0.00828213987256325515073918,9.32792085331801571011084e-05,0.004215006572574268688125,0.999956727947358126051824,-0.0170458152948490399003489,0.116068241976029412620974,9.86167400962914086903766,-0.00430958306612543029512352,0.068203241632832117824492,-0.00155480663632964971956896,-0.630504601979918088971999,1.79830806165318146661036,1.33180284092681500140998,1141.0211182433185967966,1114.67794720426604726526,1131.2971575768206093926,1148.46369243132153314946,325.334927933961466806068,505.694961906203275248117,-139.325416377735791684245,280.698535016159951283043,162.452870474461491312468
2.77000000000000001776357,1.05041420835638810160617,0.102376576277475914156234,-0.0623418411680405487595991,0.0898212945324150524584184,0.0191331565739088355071473,-0.00168517005923676972678482,0.00835153833441455543951104,8.45163960915887969111912e-05,0.00415018367397199453017187,0.999956416748374210534678,-0.016335364586094615335643,0.112861757023630077112486,9.86344081515958670536293,-0.00421096360493726246804203,0.0681969605447237670059479,-0.00147696496146973357127541,-0.630520434220293690685821,1.79848579943741460063222,1.33179939498886090731844,1141.95361804721665066609,1115.45244156375429156469,1130.60671698573833054979,1149.070634302576081609,424.334637097135725980479,107.905388731117028555673,-477.628144195942866190308,219.318991266986927257676,162.450874035395258943026
2.77249999999999996447286,0.618647292570220996843489,-0.205836725585523516723896,0.0813822716692161884921575,0.0909561110396661653965111,0.0198025536230465731835082,-0.00433447037172667720694719,0.00842281301390151483643454,7.02681621162698158292517e-05,0.00408392982862852260000919,0.999956086692956658268372,-0.015315453484486200863568,0.109673318481231379939445,9.86527511107099996934267,-0.004104353961578427814616,0.06816012156332107441159,-0.00138710143498357342528582,-0.63053592653516543631298,1.79866386407954226278605,1.33179600953618271219625,1143.14279142880423023598,1115.21747414792162089725,1128.90901685584094593651,1149.56028738765644447994,423.703951670731782996882,-257.584792647872802717757,-753.441155611306044193043,145.551720309825583399288,162.44855819400569885147
2.77499999999999991118216,0.285616935687302786472941,-0.466978450871481320927359,0.259177429867843645006076,0.0910318119691123084358253,0.0194223516790288826261435,-0.0064300390187064125277483,0.00849928425359224026802707,5.35638339835245824000452e-05,0.00402160210912816656197988,0.999955688765534866924156,-0.0140600454416950834679589,0.10665972748391311375471,9.86713608130017938435685,-0.00398799117079873862573569,0.0680926015451493171770636,-0.00128401680738936046707876,-0.630551000063932054473526,1.79884175435864701597666,1.33179320123714495238687,1144.07213780557026439055,1114.16451760051495512016,1126.83951120768188047805,1149.79839290412519403617,339.75778885020002917372,-549.604282192524692618463,-917.76580446364414456184,68.1030453175950185595866,162.446699989250788576101
2.77749999999999985789145,-0.00716881368132431251449788,-0.697794286602940849739696,0.471541602668841042245162,0.0905504570864712476918612,0.0177739237040197110839568,-0.00669381200130694103966889,0.00858093184573160625006061,3.90949578834899635383648e-05,0.00396871579083379107805163,0.999955201084893774421403,-0.0126812549767983118176318,0.10390922285314474482476,9.86897866169089788002111,-0.00386064754078514413282441,0.0679954664699071453792811,-0.00116647240231510873967324,-0.630565336534849585348184,1.79901907897538038128005,1.33179084797571500864422,1144.84158037305519428628,1112.46945273695905598288,1124.32018783352282298438,1149.90080261424441232521,290.920373777888414679182,-823.579278748128558618191,-1132.27963660407658608165,17.2748800571286835747742,162.44492161621101899982
2.78000000000000024868996,-0.316797134882677799971873,-0.897879812310143909925841,0.698502391420106172326143,0.0895727158326311695413224,0.0142694238073058227156409,-0.00456556944079534576114154,0.00866810118426939758828897,2.82596685952367020178925e-05,0.00392676109402679152787785,0.999954613821746662871703,-0.0112305912722408390846951,0.101511766286270260772895,9.87075330385966154267408,-0.00372216467487674696271172,0.0678708884417358049301328,-0.00103362520255021600457113,-0.630578513994423772714981,1.79919472872711949662516,1.33178876451391769997201,1145.52673967445980451885,1110.04662120677403436275,1121.17811302466111555987,1149.88476730441084328049,210.003912195483650293681,-900.866041627826348303643,-1106.66795868693748161604,-30.1343149205856768446665,162.442885376625497428904
2.78250000000000019539925,-0.552067111003688326675842,-0.978804960721096128928309,0.809342715608180274244887,0.0885503012922577714682859,0.0105575609474350632505102,-0.000904158064838786099635948,0.00876005369297548804052855,1.93494982366864024068021e-05,0.00389686148291962849293801,0.999953928665339275561053,-0.00970105802843154729764308,0.0995272716230880816201676,9.87240807841773815312081,-0.00357285706345599005789859,0.0677220420515234067249111,-0.000884827742355924159491087,-0.630590200440405479476169,1.79936834760030017754673,1.33178687754727320680104,1145.89159993403268344991,1107.96512252881962012907,1118.7868480400877615466,1149.75013103964147376246,106.607286511100483039627,-788.8704310291982437775,-839.308874008447332926153,-81.2572959669086287703976,162.441273514896039387168
2.78500000000000014210855,-0.781554423318722824021165,-0.965565879839700103026701,0.792138637014992652574108,0.0874901906869617329576272,0.00707805425082113845447473,0.00376475859960865699010979,0.00885597042429988288991805,1.12256927705117177755927e-05,0.00387990680792925195230492,0.999953150058394579779986,-0.00809859418453058588216464,0.0980032502023123475165534,9.87389065315688441160091,-0.00341334475916071564127741,0.067552879796677012258499,-0.000719812991360373362337288,-0.630600367281327844892758,1.79954037233389119165849,1.33178505062966734406871,1146.05977610701529556536,1106.10226905162812727212,1116.9815686546189681394,1149.47848082457630880526,39.2769270423295182581569,-674.269555309743509496911,-588.243938733888853676035,-131.908581949349439810248,162.439753454996207437944
2.78750000000000008881784,-1.0165683316595277574379,-0.887167890352977495105335,0.662230490612129685246146,0.086341494409674271470756,0.00429813589301323781266539,0.00776522150544861709114963,0.00895080143172562354980659,4.57062545389783609988375e-06,0.00387460459601454091510542,0.999952328477974883291779,-0.00646644161844231457614285,0.0968911883353197334045603,9.8751515688537399029201,-0.00324465592164455704851656,0.0673678961845691759435795,-0.000538180523630947928517831,-0.630609686854477935469276,1.79971041438314260929587,1.33178337048655759389248,1146.087984569244326849,1104.59377475227097420429,1115.84562834641837980598,1149.09058812989474063215,-17.1023493154738410737536,-489.202242400016473311553,-275.600669260990287057211,-181.973051161370904083014,162.43831176486597200892
2.79000000000000003552714,-1.25925282373299896043761,-0.758786799937241074331951,0.4259145316265954828161,0.0843874513635826245527838,0.00241384720787772132782889,0.00966184438016825034023505,0.00903739509836847670909421,1.58461157583366993911104e-06,0.00387802099105006518181549,0.999951539917207199437144,-0.00487821792940493215162689,0.0960870044403614176342643,9.8761456154341509261485,-0.00306803620819353717666389,0.0671719062344123957197795,-0.000339735561526144889954448,-0.630618400792852806802102,1.79987864760758209392577,1.33178167027707750058596,1145.97426436043792818964,1103.65625783962809691729,1115.60356530831404597848,1148.56861556876947361161,-77.5786500209067639843852,-263.580519738394457363029,86.9576374193475487572869,-257.85341065844119157191,162.436966765887802921497
2.79249999999999998223643,-1.54370839377405655312714,-0.587650237160987298778991,0.0832105756417332864671721,0.080636475277372637870954,0.00125410025823886471692259,0.00954882334472458536855921,0.00911410548737418176046265,1.94767706622343758231285e-06,0.00388625676709258372279465,0.999950814095434625805581,-0.00335695129930638214155181,0.0955800193165505518333447,9.87683122037276106652826,-0.00288479581796903701562673,0.0669698316061558551748334,-0.000125555672841989169035565,-0.630626251050026453981445,1.80004562625573982792559,1.33177928874423168181806,1145.70009131913980127138,1103.27587215357903005497,1116.28041653351510831271,1147.80132107660256224335,-119.359877372610569068456,-18.482591653310404211652,378.872646621411035994242,-302.537470596650621246226,162.435466690073042173026
2.79499999999999992894573,-1.75670968481627354229602,-0.455448900230011222145521,-0.205850637151553161885431,0.0766152410094725067057908,0.00113460493774097080643681,0.0083416512826201254932057,0.00918187995466024364787927,3.20753202755534023470139e-06,0.00389531326773970331192598,0.99995015840712198063045,-0.00188247328915627787360165,0.0953950447838023685154241,9.8771732730358383633984,-0.00269613977813650419063096,0.0667665476916286804165424,0.000102270589743377188218787,-0.630633321042715078164065,1.80021118697670545749645,1.33177611538732887375147,1145.37746497357488806301,1103.56384488136154686799,1117.49792854142106079962,1147.05592821578625262191,-139.673614955793965464181,220.474590742519609420924,572.213026274597154952062,-316.278320670251048341015,162.434312633060329744694
2.79749999999999987565502,-1.92200847937246166452496,-0.348490440642875043408822,-0.459394472673178511090697,0.0720089458729358256050546,0.00125342805063383350497319,0.00667211688471502396835522,0.00924168694734620564668059,2.73918167097082910609995e-06,0.00390476181852967771379603,0.999949566612703177881372,-0.000429729266677794652373734,0.0955414024924126081828035,9.87714591459254442895599,-0.00250262938398635587100571,0.0665667613998186663559764,0.000340799364645677504981336,-0.630639959511306025241595,1.80037494823699839585629,1.33177309751594896702898,1145.00172324436084636545,1104.37824510729160465416,1119.14148166488803326502,1146.21992947325134082348,-159.356695202985235937376,442.219470812567294615292,759.982172433905020625389,-379.831134424804815807875,162.43325893001957638262
2.80000000000000026645353,-2.04217534808587508621258,-0.243000375061651341379587,-0.697781957299627775270778,0.0656402617995358872438061,0.000735723063364546333263438,0.00426288493474756557954919,0.00929368990549062079509213,1.84615870274856061466334e-06,0.00391456567967589982165455,0.999949038453904148759932,0.000950004585595132233777349,0.0959981178713291694037935,9.87673493802486390791273,-0.00230460641889109439650607,0.0663748127891422012858413,0.000586206286347767577780965,-0.630646698099411096016809,1.80053654033852916782621,1.33177188945971836098181,1144.58068149755990816629,1105.77494223542453255504,1121.29783940359084226657,1145.15677254366210036096,-132.093783281143430485827,551.434158410355962587346,781.666264266406869865023,-389.299352495273637941864,162.432110600271585099108
2.80250000000000021316282,-2.06581707219952370735427,-0.160222000488762283954003,-0.83392240744743473257472,0.0598015580678769934075412,-0.000207164356615069069266974,0.0021957926357905350328581,0.00934024460908184327168069,1.41422875719674645323993e-06,0.00392712618975316930802766,0.999948544515585902026089,0.00221557307952982562859745,0.0967737449430214613510515,9.87593753190092549232304,-0.0021019705131762218830449,0.0661944655610896964814671,0.000833484492061490407806279,-0.630653804249017957417323,1.80069625232974384054785,1.33177376256746105021023,1144.34125432795508459094,1107.13541589934357034508,1123.0498129862203313678,1144.27343271077484132547,-52.4881790173378490749201,551.717338666060527430091,654.417437248198780253006,-337.119705942821269673004,162.431250017597307078177
2.80500000000000015987212,-2.00918199329878177650244,-0.0678461566589759618173261,-0.903380500079489778819664,0.0541245804744276692854754,-0.00132661820344501203347565,0.000208842371387098798933557,0.00938744477083363129676918,-5.45842837190346822643565e-07,0.00394713335834833128207277,0.999948012363086946585611,0.00338475908319003926383317,0.0979383903559447321907072,9.87476210884504190801181,-0.00189429225455962132323995,0.0660286959991921301726947,0.00107652815247299190465347,-0.630660496697823202971733,1.80085525556780456923889,1.33177913797955405073026,1144.31824060247322449868,1108.53352892875477664347,1124.56992658983176625043,1143.47117401394802982395,54.6355497009710973088659,592.427681542734603681311,584.621120060286330044619,-315.94308690860759725183,162.430488416948207941459
2.80750000000000010658141,-1.8658552309696077031731,0.057596812248737930262088,-0.909202016030991932993288,0.048031868008799619151894,-0.0023987492196479308532997,-0.00227394032765442302701508,0.00944044059079560300695722,-6.47326063231141743354929e-06,0.00397784520327033874753653,0.99994738444019448664335,0.00448584045357068583737004,0.0995340306879966274511418,9.87322996200461666660431,-0.00168137260584905277177592,0.0658795549737244273691417,0.00130914733167962287450903,-0.630666093978385133844711,1.80101427992832929803058,1.33178840281416821511584,1144.61443207645993425103,1110.09755430705718026729,1125.97291858652170049027,1142.69371727623183687683,163.884588637123528087614,535.518859933301882847445,428.179204763464497318637,-243.4154129168798306182,162.429687030929642332922
2.81000000000000005329071,-1.70522506314736932431231,0.164512036634314323668704,-0.847631745954418591715296,0.0435931459187535799704172,-0.00259270288350189328716033,-0.00457156965854320449654802,0.00949648947276850868837172,-1.69543029607669038124045e-05,0.00401486044392840388944643,0.99994670393487927739784,0.00551111683792587792041218,0.101440810891941873839173,9.87137696662951036330469,-0.0014640453537823475745755,0.0657481306678303206725289,0.00152644192793746007012767,-0.630670969941483194887155,1.80117311811223124173864,1.33180122509336817948622,1145.13766354565882465977,1111.21112322842122921429,1126.71082261364904297807,1142.25409694936365667672,256.180729342309859930538,386.654872214930094287411,192.833908842253123339106,-125.837122464056804460597,162.42911114573254849347
2.8125,-1.53260304500711930231205,0.251087467794572805068753,-0.715577685683893682799805,0.0399706914707256694141435,-0.00167239538506739498537057,-0.00700871629185223412455974,0.00954961993821055316056245,-2.91089596382791293441381e-05,0.00405233391469677749902045,0.999946050197232594314301,0.0063861515742550944985112,0.103470890564048401127906,9.86925133553374855921447,-0.0012433242808052515256112,0.0656346289892018736056301,0.00172465125527185747685011,-0.630676031050890428808486,1.80133207787511406827718,1.3318168109474504134937,1145.89533572317145626585,1112.03082866813178952725,1126.93708813073294550122,1142.06453166391156628379,326.29917952172729656013,267.686883768152483753511,1.73171572482719104968396,-35.3900054144113056509013,162.42862795041656909234
2.81499999999999994670929,-1.37295747822968983165026,0.302909535663131390670344,-0.528434950238573120095964,0.037117660816604579332445,-5.00060102675268209975433e-05,-0.00929720637496343760286521,0.00959711117122646548138754,-3.69602144683057231623093e-05,0.00408589404573028117800826,0.999945466563302853835182,0.00697813277520355212946157,0.10549836480122837256701,9.86690980658179839224431,-0.00102007152458949510581698,0.0655384615203010029160779,0.00190071197965708074163749,-0.63068199568622884676472,1.80149116098918904427251,1.33183437085483591388879,1146.76915944326742646808,1112.54955764726196321135,1126.71948119227317874902,1142.07714692229160391435,351.802561991742777536274,127.136927436234131505444,-188.895788248741553161381,44.9011908905968581962043,162.428219173630083105309
2.81749999999999989341859,-1.25017771421283541144476,0.301574623116739881645287,-0.289234565702410739707062,0.0349830362467662345227204,0.00187027709309931064636523,-0.0111402557407418063839533,0.00964085827753781432480906,-3.64008381328549928800803e-05,0.00411390817974807351808941,0.999944941165736511656803,0.00719449035597918840068132,0.107487861277612090082911,9.86441389924925360332963,-0.000794961275013506820860676,0.0654583399082242639588358,0.00205238025142204976239424,-0.6306882336174624015257,1.8016514660398004199493,1.33185223901756155662213,1147.65434853313013263687,1112.66651330531294661341,1125.99260918948925791483,1142.2890376183645457786,355.117538870816417784226,-41.676158060728063503575,-413.762067466550149674731,120.993202737920753975231,162.427896692738443107373
2.81999999999999984012788,-1.15675500617904414291104,0.245357471151074896242861,0.0231799839622963549379264,0.0328347029757540820327222,0.00375023612797620829739653,-0.0120705840803155099727473,0.0096803159840645660455527,-2.38173531239789908480094e-05,0.00413816689455631572108762,0.999944471393487743782202,0.00695555172940710841889,0.109357383926268175722285,9.86182935559314088891369,-0.000568554621563213962061323,0.0653923943987439887370883,0.00217924936861649265473773,-0.630694091058266015359379,1.80181298068347128804589,1.33186900020821563650486,1148.54474713762147075613,1112.34117685695832733472,1124.6506708549404720543,1142.6821129359811948234,272.922624507536738747149,-190.965832753396000498469,-539.428435749514392227866,152.513231732417523289769,162.427604417515453860688
2.82250000000000023092639,-1.11763838055377684455038,0.17287681493312911928939,0.269720492879447937273341,0.0309037552436590562399132,0.00431891580342286945937147,-0.0112547633079852580501035,0.0097165246152912769506127,5.40121996222099539112713e-07,0.00415892081546831351296367,0.999944045287811889011209,0.0062610506912251923106183,0.111060193580242133615243,9.8592214408178993068077,-0.00034200162979505820733811,0.0653383757203355314269189,0.00228211216566433228170041,-0.630698712620819890162238,1.80197503845638240527194,1.33188407515905882227969,1149.01896165566790841694,1111.71168414154590209364,1123.29546701074150405475,1143.05160377702668483835,113.724220149826180659147,-315.459797806876451886637,-540.718109953886482799135,142.251185185149950029881,162.427435636657264694804
2.82500000000000017763568,-1.09584281759708046521951,0.105650266317741534094488,0.460573982475734111652343,0.0283699864195344868267323,0.00376813256891984655477801,-0.00908928943039599701592124,0.00975133519622503261436997,3.06415351015516918237007e-05,0.00417472067622311031331872,0.999943649966178238486236,0.00522788816026743818898836,0.112570951833409010900411,9.85665200042119593604184,-0.000116998065802120649572977,0.0652938168654265127521796,0.00236279299984966601258507,-0.630700934051254380463547,1.80213781298949737852411,1.33189682211484927698564,1149.11336823837064002873,1110.76387786792383849388,1121.94708030517085717293,1143.39336886190699260624,-52.337437167535632909221,-478.1848948143862685356,-524.385943961544626290561,136.641377232129514140979,162.427339020765884924913
2.82750000000000012434498,-1.05387773290404918036245,0.0594516858782947535400076,0.59573114393611636963044,0.0250393102048492091626919,0.00274723037684157511684191,-0.00607018349264750942118063,0.00978516918816636944999932,6.16135966178446407588015e-05,0.00418248678879591488655176,0.999943293949181466473419,0.00395312973510328347082066,0.113843379217832468830451,9.85417869683534064506603,0.000104375497408870388524674,0.0652561456197859879324596,0.00242407697783539191963009,-0.630700425028414057848636,1.80230124053944384954207,1.33190744449279918626416,1148.75727446983023583016,1109.32075966747402162582,1120.67353729093383662985,1143.73481066318731791398,-201.717795333620159681232,-572.346157499681225999666,-363.790913041847034037346,115.78522118698194276476,162.427299522957042654525
2.83000000000000007105427,-0.980407242878592932733284,0.0568837535226620685802068,0.626303976732235034852181,0.0223133474031128632708576,0.00212288225627036992310126,-0.00372517967846813314106158,0.00981659935781807081733863,9.23098922377655906881463e-05,0.00417919610473124064631278,0.999943004010721003815831,0.00246346617919422639086946,0.114802920824438658975453,9.85185331259813956705784,0.000320142678005905798391262,0.0652227913743175791161377,0.00246940450085696627455234,-0.630698077846958304881753,1.80246493072972757687467,1.33191690892651304345407,1148.10477926170256068872,1107.90214708042549318634,1120.12812573996166065626,1143.97229496784188995662,-317.897381576547047643544,-603.117390291221568077162,-74.0927132887024839646983,94.4184297148260327503522,162.427324775542700763253
2.83250000000000001776357,-0.841125354743679443103588,0.0850098421155188188613749,0.584911897479473696925822,0.0195406467274393987054726,0.00197967116125130192932913,-0.00190675310152230398190454,0.0098424265677407394431464,0.000121961149093501386247128,0.00416522135012621294580804,0.999942810032491191662984,0.000781480667675873985622559,0.115348139641942487587656,9.84971936358489053020548,0.000529139578884544659921618,0.0651912594866396466475322,0.00250259326706023937925139,-0.630694830106249604284585,1.80262883011398877819431,1.33192615736758024347353,1147.16778756194753441378,1106.3051727160179780185,1120.30307372449033209705,1144.20690281176143798803,-456.498741969617810809723,-728.911391928947637097735,249.104435412032984231701,116.323052930422562667445,162.427403355403441764793
2.83499999999999996447286,-0.577660869461350867659633,0.135169310882247983851556,0.480624359044537596830082,0.0163135301339966884426325,0.00227021655929047919478259,-0.000492746769789282300366917,0.00986290763205186632456289,0.000147618000479517028815726,0.0041415964236586558927522,0.999942705018005417727522,-0.00102422196003200405289846,0.11545430716220897449098,9.84780868023317168535868,0.000730804582230005030964171,0.0651592092503829461991316,0.00252701815541784766128153,-0.630691515928944679281187,1.80279326300134590255198,1.3319354525078619388978,1145.82228555185452023579,1104.25759012078083287633,1121.37364791702179900312,1144.55391023249399040651,-517.505557256219731243618,-756.192815722640943931765,510.614347772854614504467,146.919680060867392512591,162.42755133702780767635
2.83749999999999991118216,-0.274361779227690283367025,0.174403932881913220631631,0.370912161841277565610397,0.0141142834032980165476223,0.00270356336622895425392255,0.000129844198051579556895188,0.0098790800974390725885943,0.000165855141199832632195252,0.00410930326936590969988394,0.99994267498167477281612,-0.00287336979408187032092314,0.115121007949420511851102,9.8461415968206420501474,0.000925074364206044459819911,0.0651245063620309594387692,0.00254592025724212356330156,-0.63068864533983515219262,1.8029578544281723573306,1.33194498745350164981005,1144.58025977566649089567,1102.52420863740485401649,1122.85614546335455088411,1144.94150121206575931865,-510.894408090063734562136,-672.664606899903219527914,655.025222242343602374604,182.386841682095365513305,162.427714402385760195102
2.83999999999999985789145,0.102156184360344459705061,0.192158929277775836208519,0.260222448278097984175616,0.0129629735487202819160801,0.00333843706170147908399159,0.000361633928202349005497779,0.0098942310420929054093353,0.000175749501708855396502756,0.00407064338745929000379364,0.999942678065902978978841,-0.00473283836055485296334666,0.114400981338012242005675,9.84472645199241824798264,0.00111244726108508142081721,0.0650852951625068149033027,0.00256221396207079610968238,-0.630686082782841106464389,1.80312297401665033724782,1.33195372301424930228109,1143.26781351140425613266,1100.8942670862813884014,1124.64877402823344709759,1145.46584444090444776521,-529.637853955737909927848,-612.504477679025967518101,710.314508980806976978783,234.253272767121075048635,162.427913934470694812262
2.84250000000000024868996,0.515726383261054688311731,0.179598215886829976062344,0.159951272496119539789916,0.0130207379936342401011151,0.00413122346960530847231885,0.000405657992226793968817272,0.00991029425619096952793097,0.000179258276983897119191344,0.00402754694895671519483393,0.999942687180458422702145,-0.00662494439109592714309827,0.113329157356099802234084,9.84356070009985728574975,0.00129363094451685691106679,0.0650400471188913725795189,0.00257890425946260149620004,-0.630683832035601188437113,1.80328808297219822520674,1.33196147330078895620886,1141.9320705058876228577,1099.46168624900951726886,1126.40771800825882564823,1146.11276757590144370624,-530.081056593335802062938,-499.736934250507090382598,626.163928948475131619489,285.921836146443411053042,162.428141001338076421234
2.84500000000000019539925,0.933284241976173545296547,0.119425907563846300796229,0.0783734776388868153995659,0.0148810652402491840062826,0.00481853953488919298925319,0.000346942059777212408709646,0.00992709252770729820569695,0.000177588209012317417177448,0.0039815162034324983256206,0.999942698599609713916436,-0.00855627887378074269975059,0.111907051056918310782962,9.84263098649327439204626,0.00146943531902377381645475,0.0649875923108501618585819,0.00259905584834799630727931,-0.630681738968187688421096,1.80345206672724911456385,1.33196887364373695028519,1140.61740822843739806558,1098.39558241502868440875,1127.77959367297603421321,1146.89545362163676145428,-557.425146369644721744407,-358.042382884294397626945,445.543274081920060325501,367.782839980835547066818,162.428399054069387830168
2.84750000000000014210855,1.38210422473735317083765,-0.0154009184750556957221868,0.00234999716959681873018617,0.0190115796260230049408158,0.00552670592169255889269941,0.000256273663953621633117969,0.00994561158851119640755822,0.000171095926559276231620696,0.00393407525155922005444253,0.99994269761597520673746,-0.010515582846512952497342,0.110166674184167007188861,9.84191289066244756611468,0.00164072128206340316601552,0.0649270684664865482815799,0.00262526140732876125949424,-0.630679845912953340736351,1.80361478966378396826542,1.33197624011789383935422,1139.14494477403945893457,1097.67147433458808336582,1128.6354343786683784856,1147.95168177580558221962,-508.536678162692567184422,-160.90403617977588623944,155.965879520866707252935,399.60301199285765960667,162.428743017416195471014
2.85000000000000008881784,1.67656272517303439606451,-0.180013470331160746473742,-0.0461303726315911225008826,0.0234628310780333471097236,0.00624566657258058318541449,0.000197061078498973193473889,0.00996542393071446486185749,0.000161776821299145721335874,0.00388608887921217246649852,0.999942685403103159735849,-0.0125230120660775878782545,0.108119597896904257039452,9.84137316719199262138318,0.00180818584864175378908169,0.0648577554324460403556429,0.00265993916867700123940477,-0.630678744895437182194087,1.80377600280821792644304,1.33198359040886460391562,1138.07472483762398951512,1097.59106223412982217269,1128.55942307058035112277,1148.89346868160100711975,-379.258784515158254180278,81.6790764629803760499271,-192.329148512730625952827,381.312642290103156028636,162.429058091428231591635
2.85250000000000003552714,1.85818397436030058322842,-0.387400017102814020475421,-0.0846377916410729763674325,0.028302273646784743138527,0.00677030916649102622317802,0.000158686059988203401671311,0.00998822579396694935904844,0.000147214581982796946209649,0.0038379407547186154825436,0.999942643034001044100023,-0.0145105730884048308992895,0.105825571605662915875001,9.84096934703735826133197,0.00197227822074718750836042,0.0647789117425886240564381,0.00270483136265413717791439,-0.630678394677919307298453,1.8039363487819701781234,1.33199024550089917262596,1137.24865085146370802249,1098.07986971690297650639,1127.67378863610474581947,1149.85824498725605735672,-293.594127977082166580658,341.749776203922010608949,-536.277930084236345464888,418.504976860967701668415,162.429403545108925754903
2.85499999999999998223643,1.92560557739438009683397,-0.649934693177705469224748,-0.12444007952366804847788,0.0342240499286752611340923,0.00607978166290821814971013,0.000106705824129320412784611,0.0100149763189518719447291,0.000128114198922797613592814,0.0037915031910894041698723,0.999942552140535623195206,-0.0164701699620799987822117,0.103336065390663339735866,9.84065328658074811585266,0.00213323363443667333994025,0.0646896072343192546361124,0.00276132097154290325272119,-0.630678019723534766249884,1.80409661986998526295167,1.33199548672676737481879,1136.6067541977386099461,1099.29981111514939584595,1125.8780334201592268073,1150.98599356590580100601,-174.018887767355494133881,541.882525399307951374794,-732.545550070169269929465,395.335764948921905670431,162.429854336885767907006
2.85749999999999992894573,1.84865130445906800105149,-0.840730636362234329261867,-0.153651990862432169526741,0.0391563565167094285168758,0.0039918467175674814118036,1.89040037749545588099953e-05,0.0100447051961956267118747,0.000106914107317111116641009,0.0037476164254818603027708,0.999942417418053564048819,-0.0184262915094163259865923,0.100670502592635158212175,9.84037319024009349277549,0.00229063474922414685858163,0.064588672892566784122792,0.00283042445019343440193449,-0.630677263867673421060545,1.80425690755806211740264,1.33200028402423042983571,1136.37855641262694916804,1100.78928234389945828298,1124.0110608857539773453,1151.83492381200062482094,-33.0949479530325092468956,671.374941280069606364123,-756.078814903928787316545,296.052524351995941742643,162.430260091604282024491
2.85999999999999987565502,1.63102506652705292466976,-0.952786504208165796470098,-0.176606339506637455283311,0.0438793281402269849666986,0.000709064503741080993069745,-0.000176045809823345073474518,0.0100798799580636300882164,8.41509986205056769717134e-05,0.00371034966613493577894389,0.999942196946479899821725,-0.0203633711792976720977855,0.0979205647042589444328797,9.84007369669506815057503,0.00244395060396147357009711,0.0644747345953178979671705,0.0029119347807986368202593,-0.630675504758225091705981,1.80441767587932622163294,1.33200534231053646649912,1136.44127945797345091705,1102.65668582154967225506,1122.09763934563966358837,1152.46625618766574916663,79.8040705785698065710676,870.025927568881684237567,-776.714621401053932459035,191.22338149576154364695,162.430695565342716690793
2.86250000000000026645353,1.21485948819905775764028,-0.953932883498757044904437,-0.189720744412802455602929,0.0488977010951981150288503,-0.00391460396508893238715077,-0.000603634495035345860006193,0.0101251357729076965630277,6.12111642318632779083409e-05,0.00368554499961365683927128,0.999941820996328778470286,-0.0222800468955069580490047,0.0952249444806347600245289,9.83969876774155416399026,0.00259237934668950448582891,0.0643462953675604659720122,0.00300454403426838635715601,-0.630671718693235572317235,1.8045795689647314841153,1.3320107526040394496647,1136.77757676551982513047,1105.13941198174416058464,1120.12748777874844563485,1152.79104071947949705645,154.316969304398782014687,914.17156012892712624307,-624.030491463512248628831,23.8340183429029188744153,162.431248974063890955222
2.86500000000000021316282,0.753859143235366513380313,-0.831847789756146482886834,-0.181334249330083574491823,0.0524056716595458008112196,-0.00781334572959809479930637,-0.00114730709717383535552193,0.0101820211145056283702504,3.94267493126810542546611e-05,0.00367716219349348890504947,0.999941258840848057332096,-0.0241720361754503079709799,0.0926654497797402554315482,9.83919512924438066647781,0.00273455207568834872053354,0.0642018824945580074414764,0.00310653612105069639598431,-0.630665626858658789899437,1.80474227999867609106843,1.33201763092718339365206,1137.21286430449549698096,1107.22754362219461654604,1118.97748688832189145614,1152.5854262793802718079,195.143799707561413470103,790.038013846759440639289,-327.878998382091310759279,-191.40637168825787739479,162.431732118328824299169
2.86750000000000015987212,0.207832541879389043337767,-0.595541484551594613172654,-0.144332705221045409782477,0.0551089170061705019287857,-0.0109646033888792862609485,-0.00183485615945538091745015,0.0102496690332503949394383,1.81881593216788891946827e-05,0.00368783772297990621036323,0.999940510602672305573435,-0.025995066467338193150205,0.0902789893879626381689718,9.83851375669356364994655,0.00286889144496703081890776,0.0640402386031610204586428,0.0032157955351242092922881,-0.630656859025472860125205,1.80490544534430497058963,1.3320266156087576803202,1137.75329576405761144997,1109.08960205097787365958,1118.48809278683802403975,1151.83400886103822813311,230.323946611866091416232,671.483496562646678285091,-83.5154538911428545588933,-380.067477710243963429093,162.432232235790820595867
2.87000000000000010658141,-0.367048511313499581376618,-0.294952848403010448041783,-0.0795396832507826584413024,0.0563624019042051060957021,-0.0129976179384842238651032,-0.00249361516186085265325834,0.0103255894901334733387843,-2.31606506181093615181804e-06,0.00371859102516892319270636,0.999939600066149236745616,-0.0277192451781262949594975,0.0880722060299393705307125,9.83761158904773580502479,0.00299388804348895342863357,0.0638604865245938901896494,0.00332993354556432872085048,-0.630645218006729901816243,1.80506872923321948221087,1.33203760038333363091567,1138.36448403755480285326,1110.58496110500777831476,1118.55990961886618606513,1150.68508889082909263379,263.136400224772103229043,476.054836815648002357193,145.250886435681792363539,-522.247639753606790691265,162.432741038750464213081
2.87250000000000005329071,-0.904324425469398396337795,0.0283509110597392199881739,0.0185301489038006278464721,0.0543410577046651577237668,-0.0130873066726298371842407,-0.00294567367427098041055,0.010405086123434527378695,-1.92265690778829228158205e-05,0.00376317224681869261226907,0.999938598899952624243781,-0.0293670117742234129676326,0.0860093271294992411934999,9.8364531738747533751166,0.0031077240962376633144626,0.0636622658598849644473461,0.00344663065912244716629265,-0.630632236708984827977531,1.80523129411332816651736,1.33205018176307210531206,1139.06897776518144382862,1111.4698762350560627965,1119.21434721901641751174,1149.22277066227024988621,335.902596014473488139629,225.930048080276975497327,379.411216132447293603036,-663.445790146593481040327,162.433252560443719403338
2.875,-1.40547383883352150490964,0.366237751100339514742643,0.166802399592200389921715,0.0479350254240341541733805,-0.0108569159022073192383262,-0.0033040533380642132799121,0.0104859400662935357828598,-3.12833373932163165322823e-05,0.00381287050108765996833671,0.999937562456779893693692,-0.0309294109303623540596639,0.0841020810384039974039183,9.83501007190556109094359,0.00320919035525612248230254,0.0634457639056322103554564,0.00356324312575541238615195,-0.630619488536882877305345,1.80539259726783130055594,1.33206393673480127937125,1140.04399701762713448261,1111.7146113454091391759,1120.45696569952838217432,1147.36785994009619571443,379.484253506060554173018,-45.2956840869329084853234,494.90590149604179259768,-663.388400976205502956873,162.433858532260046558804
2.87749999999999994670929,-1.65191386767972581139929,0.56162178715626598357602,0.303716462868824532694845,0.0410789945409229598216605,-0.00775710982097878917057576,-0.00332199957609002590255831,0.0105644944332514596763151,-3.39132872819549781046727e-05,0.00386205235938630493663926,0.999936550374799226759137,-0.0324639480152696946468893,0.0823311129462833413139577,9.83326301710317096649305,0.00329840234152732310682343,0.0632115892947801155665744,0.00367750544493065240070351,-0.630608069695825501632669,1.80555246823488735330443,1.3320788918754258300936,1140.96639903271170624066,1111.24339781462140308577,1121.68887672649657361035,1145.90582865738929285726,384.124361315170062880497,-308.74313328677749268536,492.817066895132995796303,-542.641179662280364937033,162.434349117563016307031
2.87999999999999989341859,-1.7079708571835334751654,0.643073730089301243140198,0.431063909828373614807617,0.0350805057157731747796703,-0.00467402021442235842546564,-0.0025585661227147593263509,0.010638086303264437590399,-2.29103408222941498846061e-05,0.00391005760875252472014152,0.999935593005199518934489,-0.0340232241268296001224236,0.080692059752751288392858,9.83120131144242392906563,0.00337692329026208692618893,0.0629606625292025018358899,0.00378734033485841198318766,-0.630598012378986161330374,1.80571133216114665387408,1.33209474629279300827989,1141.96461882420294386975,1110.17089567897528468166,1122.92105103400399457314,1144.65465404178485187003,436.126655083862942774431,-571.092250295362987344561,506.284999335286443056248,-493.126735588031408497045,162.434816110039037084789
2.88249999999999984012788,-1.59484700436757309560676,0.618942926747237165407967,0.538586515202102100730031,0.029770311935913361389705,-0.00186027517374992936750877,-0.000505563598600535782021104,0.010706989593265409110856,-5.28097981257902320982242e-07,0.00395323839058733805806867,0.999934699978422991684113,-0.0355364792927361852759027,0.0792325834559682307123296,9.82882197712548055790194,0.00344658373623337723964943,0.0626942039272814222172769,0.00389067843835486744039076,-0.630589221284132528388966,1.80587026551578033739531,1.33211023886652313308332,1143.14703230813097434293,1108.3879365631446489715,1124.22030172317295182438,1143.44019497944918839494,410.272847852929373857478,-701.449798113888391526416,428.68830263529906687836,-400.110567828978958004882,162.435340103236143249887
2.88500000000000023092639,-1.39624425032783427980121,0.521690574070893364755364,0.568516592544985321922013,0.0267035209752297005014743,-0.000376682693662992371368831,0.00179732051512934871972949,0.0107705070197778030038904,2.8708720118465075739041e-05,0.00398734440070107852560621,0.999933894875506434907209,-0.036893145072001178041976,0.0779742911317208992061367,9.8261310071095557816534,0.00350951722218085897242457,0.0624137133214546779846899,0.00398597282626442228625763,-0.630582059335594746762865,1.80602928598082024258531,1.33212496164640192830575,1144.01598306346772915276,1106.6636466884056062554,1125.06449254718063457403,1142.65410120263982207689,296.596338577253845869564,-697.059617144439698677161,274.987619672701441686513,-274.462134014929347358702,162.435740383729068980756
2.88750000000000017763568,-1.14327199079777663826007,0.381121813686399912857183,0.523249262515154800468054,0.0246588024378099519851038,0.000353150701864601585661108,0.00408880210707725580410177,0.0108293367335591146638496,5.86124931270062436228577e-05,0.00400835959425740150086082,0.999933187142241552969324,-0.0379553252661959869551644,0.0769580543610781930841114,9.82314254632733252492471,0.00356801816402210281511942,0.0621210870465809250617895,0.00407178402033030358009302,-0.630575926712489187586641,1.80618852573571087027915,1.33213844961521621357292,1144.6300140010173436167,1104.90263847742221514636,1125.5952398215365519718,1142.06788430937444900337,185.384597451551911717615,-683.071299129929684568197,154.774992758669782233483,-206.636304524003975302548,162.436096401626343777025
2.89000000000000012434498,-0.876363020958723315523287,0.230951121325106534243332,0.418060803855604623535669,0.0232581812929260299538381,0.000623628220127752600637772,0.00584958441946794183846636,0.0108830757136461238332448,8.55297030676435736861948e-05,0.0040134592352867610315359,0.999932594008900887949665,-0.0386408581886077476252872,0.0761941736706927275069035,9.81987936619817425309975,0.0036244063223856933832201,0.0618187195649913603934245,0.0041469299021380289296812,-0.630569886007236957148336,1.80634766394970114333773,1.33215077310025242773861,1144.94290605072546895826,1103.24829019275603059214,1125.83836751097396700061,1141.6209196800198242272,38.4965552082584494542061,-612.198708811696974407823,25.1377497098934234998069,-151.809777712245306702243,162.436411393158010696425
2.89250000000000007105427,-0.61497362671523436716825,0.0948353323766819578111154,0.255651733854007301438571,0.0224613904331564390171039,0.0005058800172819342402461,0.00670949253666339000268248,0.0109331624362204640060758,0.000109660581207839631710625,0.00400671983760765657717196,0.999932083243337488376312,-0.0389489113274425410859969,0.0757190626808606909170507,9.81637169893638272810676,0.00368159313671964118219737,0.0615095964649249662969943,0.00420991922869189474920582,-0.630563849585956237575601,1.8065061029643769696662,1.33216234519194398622233,1144.82249677705863177835,1101.84164493336379564425,1125.720928570086016407,1141.30883542081323867023,-156.060094309763059072793,-544.771344275307228599559,-132.756851285969901255157,-117.101366627460038216668,162.436672331034287708462
2.89500000000000001776357,-0.317123853358534601998286,-0.0287266027417304656288444,0.0200845977188458708895258,0.0217574643167256116804698,4.17664998532161027035292e-05,0.0070754515070164166606892,0.0109803821876999982420919,0.000130402198909900245192908,0.00399416088859292413987268,0.99993162245941558108342,-0.0388685933838649744220817,0.0755456500950867082533335,9.81265686112332069512831,0.00374245097402942658929015,0.0611973446004582255497439,0.00425906613626543528727808,-0.630558033936489126247693,1.80666231756117845463905,1.3321743077478604977415,1144.1626055791766702896,1100.52443347137955242943,1125.17458325454413170519,1141.03541284688253654167,-317.390682192633391878189,-417.825420346989460540499,-260.308338413056958415837,-93.6565372884635394257202,162.436917868460852787393
2.89749999999999996447286,-0.0784764281356074150375335,-0.0881100056652954627400831,-0.191268284228137214197929,0.0211277895840557145001881,-0.000573111368654154467068562,0.00694933703019098760605976,0.0110225471140012812321096,0.000148954935771273400514983,0.00398155592298949766866256,0.99993121273790364078593,-0.0384298777175458086685644,0.0756180227510965530246523,9.80877923646118610179201,0.00380946152161713760125883,0.060886105168372998963644,0.00429274920730264141627286,-0.630553116479120157045202,1.80681459922014520103062,1.33218788343484151326379,1143.23554336609549864079,1099.75251783162889296364,1124.4193868780207594682,1140.8405527343709309207,-423.586688668055955986347,-244.457532286565509593856,-345.9067952130300227509,-83.8175789658198198139871,162.437063031400157342432
2.89999999999999991118216,0.157831231723686071788393,-0.0976974657057922413194717,-0.395671116413885803897443,0.0206106895293226843879353,-0.00138154168968701628397722,0.0061839128571950056911799,0.0110579079951457406177928,0.000163635102018022150771603,0.00397090308874173490011339,0.999930865693289594453574,-0.0376107447288296231624471,0.0758785864267419035700257,9.80478820619392266166869,0.00388422301735596780733473,0.0605802506878701657599962,0.00430909822707797440094479,-0.630549043500399752915087,1.80696270805511405299626,1.33220401205482774642519,1142.04467213583643570018,1099.30214580994675088732,1123.44504927847901853966,1140.61632495205344639544,-546.970123908988966832112,-131.951462700592941246214,-445.468125082161748196086,-114.901317974138407862483,162.437143451642015179459
2.90249999999999985789145,0.439389438662340814367724,-0.057643222238815829128189,-0.606884393248763531758527,0.0205328805130029976022676,-0.00242023241852768258852713,0.00425044988896718274606901,0.011086509356791304434231,0.000170856941484658807683603,0.00396295388215838016027215,0.99993057914565020016795,-0.0363556311371440177282466,0.0762953046550203795028722,9.80073671556766257140225,0.00396760810104276103599252,0.0602839031949419026923387,0.004306139865709888818468,-0.630545047288598392576375,1.80710703326980426375314,1.33222225456689091771523,1140.50069274655061235535,1099.09276051812594232615,1122.19204625260999819147,1140.26604614450025110273,-559.382410298947888804832,-27.853276175754157151232,-442.642565162320465788071,-141.41977659968642910826,162.437162469519535079598
2.90500000000000024868996,0.662824993561172859379838,0.00545702813484247751391054,-0.738801843581493700163776,0.0211779367745982861903631,-0.00306553432359150121802593,0.00209722970840999075811673,0.0111114449888070239425009,0.000166657554582596710741893,0.00395464812353153380430903,0.999930332560034607070065,-0.0346045598423390873832339,0.0768878973461090686747355,9.79667961308326518121703,0.00405934938475648911249127,0.0600004947881793704311804,0.00428201156812164831361178,-0.630540155976584748565017,1.80724898289103697024416,1.33224197518096088010964,1139.24776008434150753601,1099.16287942906797070464,1121.23183645266726671252,1139.90922606905496650143,-473.052152493541939293209,71.9485186702010253156914,-329.602886685529995247634,-145.815281385411424253107,162.437112404360135542447
