t,ang acc x,ang acc y,ang acc z,ang vel x,ang vel y,ang vel z,quat x,quat y,quat z,quat w,acc x,acc y,acc z,vel x,vel y,vel z,pos x,pos y,pos z,mot 1,mot 2,mot 3,mot 4,dmot 1,dmot 2,dmot 3,dmot 4,vbat
0.0025000000000000000520417,-2.53743462911140760240869,5.61821909062231572562496,-0.0699763544928122538379966,-0.227882893723250656847767,0.341360232091716508939783,-0.000342353876001357654550866,0.000248607232370476837184786,-0.0152697902769328361372025,-0.108081448511003833101718,0.994024911920642573193163,0.39048022824037709188616,-0.374135140546044298037742,10.649513657918015852033,-0.114215624649552774383388,-0.0532486648303991810804447,0.893446263190974532264477,5.45116881412990217370407,1.89136531626988757537333,0.15411419646062435306888,1222.72385357439702602278,1222.33612265922397455142,1218.78827610862686015025,1173.15011468084958323743,-2060.3086339286164729856,-346.968494389511761255562,7.75214330369635717943311,2365.53228636021231068298,160.267882850732320321185
0.00500000000000000010408341,-0.926540248860774129369133,4.78486809647116917432186,-0.0088514900884453136253871,-0.22990863877359207778639,0.357629980154003546122254,-0.000263698150722461240220984,6.12369290575345121517559e-05,-0.0145540603396324200180523,-0.108003492320740246412925,0.99404322901275565804724,0.372449000207952130026001,-0.361658496699037046440139,10.6829465181302296628019,-0.115529890098512055818247,-0.0544941272813211294301361,0.895350767041857120709381,5.45079392288406960886959,1.89130975420678693055265,0.156365072891411049926802,1217.57308198957548484032,1221.46870142325019514828,1218.8076564668861010432,1179.06394539675011401414,-1818.23893356622670580691,-406.954806568956030332629,37.0250256604322274256447,2115.91795444296667483286,160.276575398028626295854
0.00749999999999999972244424,0.295652751019159942824643,4.08763477016305554201381,0.0353057549474828161195639,-0.228351555447078524707649,0.368205757403539279959404,-0.000230663494505858553997035,-0.000123652712421805171215394,-0.0138616248256997962040593,-0.10793019660963537598164,0.994060592470837889322866,0.354797517638481885171586,-0.349040502058280188713013,10.7163699444809541461154,-0.116808421699795592085813,-0.0557305442402410838864668,0.897272583586858796245167,5.45041866171276900843168,1.89125249516590265841387,0.158615980719710641944076,1213.63265890656589363061,1220.30134862637919468398,1218.97340123692902125185,1183.72970445306441433786,-1515.15989106051165435929,-537.826387297400287934579,61.2555348638579744147137,1739.10796559007394535001,160.283449777569757088713
0.0100000000000000002081668,1.34389842750050059194677,3.45053959855397707201519,0.0827659310631961020465752,-0.225015447205478724690408,0.375470254542676906694965,-0.000218064097987598874564888,-0.000306598238931613691939104,-0.0132031899272186028365672,-0.107863639524823293203148,0.9940765650652891860517,0.33773842348848331917921,-0.33621811656931599454623,10.7497706432531838771638,-0.118031535912634558127543,-0.056954032756726995223584,0.899226822252799484758157,5.45004307730780102048129,1.89119256237160660027996,0.160865235748750057265255,1209.99728253427292656852,1218.77956948676319370861,1219.11393414120539091527,1187.75948522470048374089,-1535.82792184788536360429,-704.581801212407185630582,-9.83085092543660543640271,1554.08348394576000828238,160.289945653792358370993
0.0125000000000000006938894,2.38237756832427916009465,2.81063223776501747153134,0.154163092825762043647231,-0.219512092479112685960985,0.381633553481324772072014,-0.00017095784605503523126066,-0.000491514198061846190740409,-0.0125739934794033975107297,-0.107803777620518986823939,0.99409115634473854683506,0.321156875979797917786129,-0.323233558033532264452958,10.7831164027928583237781,-0.119206721572009427534411,-0.0581680370856647241395443,0.90122702408071242441423,5.44966734978677536105351,1.89112971084547876188253,0.163111255830537871247543,1205.95351929732646567572,1216.77843962031715818739,1218.92424698230183821579,1191.50012187279321551614,-1427.21313155711891340616,-716.881927616395955737971,-182.069331196453305210525,1152.1703703661844429007,160.297308378830280162219
0.0149999999999999994448885,3.06104133081133822358311,2.39358428635587250354888,0.230806643755634893766526,-0.213451267373533148941078,0.386050160743463210977211,-4.03733200510503130952443e-05,-0.000680690863567422503252469,-0.0119691212484893793471796,-0.107751480366724453063831,0.994104298542467290644709,0.304926749678122777087452,-0.31009753568511877475089,10.816343999254279140132,-0.120341980942960238842865,-0.0593723962894713783167155,0.903288043082495883950855,5.44929107163991321982621,1.8910630233606626759979,0.165353619458738498870787,1202.86121687648733313836,1215.19515984868121449836,1218.20358748522312453133,1193.52033707653140481852,-1169.14284350295906733663,-559.887506298582479757897,-455.055378335191448968544,561.471368537968260170601,160.303087216924012636809
0.0175000000000000016653345,3.53882609728684016658917,2.07740839161467594209398,0.326632546892869801702375,-0.205312759631762264955768,0.391017096742235836792645,0.000283662564597272101422909,-0.000875469823239634695188904,-0.0113875449021874526611686,-0.107704950752680633785374,0.994116184192983753931117,0.288998814204127152382995,-0.296799356013550286181868,10.8493521236343894997844,-0.121438791454099845323888,-0.0605630279317527567273238,0.905425705859971508004946,5.44891392727885115476738,1.89099223995720522317754,0.167595044292998485158108,1200.10780507981166920217,1213.97900208882424522017,1216.64897009062588040251,1194.30747871548305738543,-1117.38329102763577793667,-405.606928864290182445984,-899.119143047073293928406,75.3068093097681270364774,160.308499502733241115493
0.0200000000000000004163336,3.87003524939609988564371,1.76961742480932149312878,0.458339172948853568190231,-0.193498777991529785635905,0.397792614268584476810986,0.00100997695504752142171834,-0.00107305646981483370459853,-0.0108354240233408168764262,-0.107662054789562353085408,0.994126973936091395955827,0.273469104664586237785073,-0.283233323859804264621687,10.8819997143942668316186,-0.122486367305076324085711,-0.0617264353449594529998912,0.907656847667632993292841,5.44853539223457250528782,1.89091778643983365881809,0.169839038517059254251862,1197.27430042134915311181,1213.16712520435976330191,1213.70799176998775692482,1193.89687112308024552476,-951.37290044854171355837,-181.67417826234677136199,-1245.24953035643261500809,-343.820526514082473568124,160.314574275015786497534
0.0224999999999999991673327,3.9452560673871226448739,1.54561031538800897067176,0.573260460667569526904686,-0.182887020186384890996223,0.403334272483072409087868,0.00193883485537082078838111,-0.00126253822226573067522004,-0.010315844033892053455137,-0.10762261414140869564271,0.994136665098650174066108,0.258351762390185202278303,-0.269137802078377785797159,10.9141106668626726161619,-0.123480563886178507093661,-0.0628353565326671970048267,0.90999640045295127066538,5.4481544564654882378818,1.89083964691827022264192,0.172088588579982215698294,1195.35094057756896290812,1213.07063119751251178968,1210.42272243884372073808,1192.58837608291264587024,-677.214595979057662589184,58.7342412432917484466088,-1444.42106995656990875432,-667.531703376016480433464,160.319288987626492826166
0.0250000000000000013877788,3.83203946750304824675482,1.34537408951133885537388,0.677920040346971397582365,-0.172743082952205195823581,0.407518450731065573489076,0.00321756813098410341528188,-0.00143798400779709132160655,-0.0098193946872864850544671,-0.107585941409153743042459,0.994145444254291188457273,0.243403927079617860007588,-0.254402687290678608533767,10.9454706904672995904093,-0.124438901663209589010251,-0.0638738253747115208858176,0.912453320524980515671132,5.4477706358901363259406,1.890758472701654424597,0.174343985307164189846318,1193.88822744145386423043,1213.4607964105762221152,1206.48588642020490624418,1190.55921260620016255416,-518.671095257104639131285,199.38653957274252093157,-1639.34274204775624639296,-885.514819014360682558618,160.323645311167439331257
0.0275000000000000001387779,3.59114447274620784966714,1.17281238960574829555128,0.759117234695042331082959,-0.163795392458281896530536,0.410116777589918157786997,0.00498506200164847493305764,-0.00159484581718255958443509,-0.00933601899801982451632121,-0.107553088991638609583923,0.994153326853985719324669,0.228375003637950352297636,-0.238966042006403645014956,10.9758293500141217435839,-0.125379936252596274615101,-0.0648293641132088177547743,0.915033761442632820326537,5.44738383107764700952202,1.89067489827025836390817,0.176604883641926807547051,1192.75758510128343914403,1214.06756389537622453645,1202.22600872860493836924,1188.16080198784084132058,-397.535550858492740644579,238.122536623359451368742,-1730.34312588961347501026,-1000.49861834572811858379,160.327706224790944133929
0.029999999999999998889777,3.23751328973520768883532,1.04602687394241478102686,0.79289577546248479755775,-0.156670849134978557026798,0.411514457607835781871586,0.00753643120699325382016998,-0.0017301580224876856282934,-0.00886161920616984968845919,-0.107524034758201839090397,0.994160393081824023120419,0.213152563522145260810348,-0.222804030670746999742704,11.0049046939234536068852,-0.126311830658571322416606,-0.0656915753187551354486118,0.917742652486948862211591,5.44699470006735264604458,1.8905898318294642734827,0.178870939916298543614914,1191.90054968716140137985,1214.65140909369301880361,1197.8341707907568434166,1185.55671951447152423498,-354.825214337552040433366,183.480750653961848684048,-1911.5145911845952468866,-1147.16062070897328339925,160.331413618957071776094
0.032500000000000001110223,2.72557509891205995700147,0.946022327301371035446209,0.762057087701962343473383,-0.149526433741358349971406,0.413446243500696808403916,0.010984201073959134684066,-0.00184284179249755999084603,-0.00839077432970218584085131,-0.107497961478878162333572,0.994166830572283388711696,0.197607703814749319226607,-0.205954788299962082698258,11.0323926286437021815345,-0.127245721543079143289745,-0.0664543774459145225597112,0.92058154680474157949277,5.44660373683958631829682,1.8905037378841158535181,0.181142846182372641017366,1190.98345902959567865764,1214.98496764864603392198,1192.66843577268195986107,1182.42499888429597376671,-344.265899272295143873635,26.104665589673434311635,-1852.99287442462468789017,-1126.24330369371728011174,160.335458121647889129235
0.0350000000000000033306691,2.24173172874796700071443,0.891713481837839938570767,0.676908105934140302828439,-0.143862542994801945184236,0.415717219583991604014983,0.0133422121628712919694237,-0.00193807380538635158628846,-0.00791995229915737689041499,-0.107476581090405517993069,0.99417254049731340614926,0.181679125233188354382463,-0.188606400059740136887498,11.0579737822183030715451,-0.12818876117434568895348,-0.0671243965630548000689259,0.923548756224706113293621,5.4462124067093888868385,1.89041682332636296060002,0.183421897058599875363072,1190.1792201907999242394,1214.78193242164138609951,1188.56920641863371201907,1179.92550299600293328695,-347.659100161581761767593,-199.014039920166482033892,-1581.00128303235646853864,-957.877999676157287467504,160.338495312688877447727
0.0374999999999999986122212,1.70459325781005843758464,0.844684730793891280775654,0.543873077226883605561625,-0.138404633444468350145229,0.418232552247442934678645,0.0146330754350495577387203,-0.00202744214528281611886751,-0.00744502143445211102268377,-0.107461482695662330355546,0.994177448734988256084932,0.165320563707611223325245,-0.171106310985856074902145,11.0813244453537844691482,-0.129149012775487986859346,-0.0677212269652398696218043,0.926638514911758859327051,5.4458214506108619801239,1.89032851027199777504961,0.185710097666334894572771,1189.24516352878777070146,1213.98989744904520193813,1184.76342935752018092899,1177.63560888591518960311,-439.647360706431072685518,-476.819982315328388722264,-1592.91647140835357276956,-942.900754635912107914919,160.341191772778017821111
0.0400000000000000008326673,1.01060642429794000918264,0.775628470354578047896155,0.349890969392904205292893,-0.132976000860611454079674,0.421098243913228365009616,0.015397079535665780108955,-0.00211962471429489760985088,-0.00695859420628590265994751,-0.107456007054207935969004,0.994181303873063804132926,0.14842233582936492641835,-0.153761047207311651874306,11.1021296473689670136764,-0.13014187448866149088289,-0.0682614903124186267469042,0.929841288180473846125551,5.44543115646711761712595,1.89023936170070072648741,0.188009056052009126958069,1187.98098338726777001284,1212.39783251006474529277,1180.6046240615919487027,1175.21099922282337502111,-475.098641067870232745918,-669.547080620849897059088,-1443.89798131537509107147,-825.028567275466457431321,160.344040423915714654868
0.0425000000000000030531133,0.41468203495176214623541,0.698635387613677494300646,0.170709555269238838492996,-0.129974579323710398570668,0.423218626021374610957082,0.015935381716515820832436,-0.00221622457718614060753759,-0.00645188342921838072635543,-0.107461635661965995702793,0.994183924469068558416041,0.13084265281021362214986,-0.136736109096512403748847,11.1200925390468547959699,-0.131187900652735695006257,-0.0687497014425433178308467,0.93314498418367175514021,5.44504080410647794963097,1.89015084451001125209757,0.190318151536247676114399,1186.86967032344841754821,1210.64216204594094961067,1177.54393945094329865242,1173.51046604953785390535,-437.174732417998029632145,-752.140940648223818243423,-1119.61376038393655107939,-603.071439424457253153378,160.34609723568314620934
0.0449999999999999983346655,-0.150355282607982060349983,0.597687851696070526763549,-0.0180982227791216324086498,-0.129508939030023279004311,0.42502189183284699858234,0.0164575006704004850321965,-0.00232598155779661312086981,-0.00591534562256751644121477,-0.107473396411733215782824,0.994185787873899551314594,0.11245676781506022678947,-0.120364104916829417479818,11.1349402923074087823352,-0.132309341121001206031949,-0.0692029897894350792819651,0.936533895907452951234973,5.44465084675739241504289,1.89006222805197099390284,0.192637318244206351414149,1185.79510972517778100155,1208.63712780682362790685,1175.00655525967226822104,1172.19564202570109046064,-448.006752252422529636533,-882.521667087849436938995,-971.199465446898557274835,-480.186058331719550551497,160.347832123257830971852
0.0475000000000000005551115,-0.72073038844542158809503,0.451211406697424655121154,-0.243231668648479115724115,-0.132396575282165807063706,0.426931038348545954796975,0.0166535687675943185059868,-0.00244993614984899150260889,-0.00534705192904450041929687,-0.107488434430522694640331,0.994187127390069647070447,0.0933095921935717942385935,-0.104794062931979597985688,11.1464358558445422175964,-0.133516202977576825539074,-0.0696242030715217702363518,0.939992866469369747761675,5.44426241110191977412569,1.88997310555411779375845,0.194967174676616866735301,1184.62963656218630603689,1206.22955371050170469971,1172.68794212370880813978,1171.10953575787925728946,-405.052630740919653362653,-838.499474574245255098504,-717.880764406117350517889,-314.009663551996425212565,160.349550467245336449196
0.0500000000000000027755576,-1.06187843025781059047574,0.314083564656248370727809,-0.414580886840144380300899,-0.137023114627702419232591,0.428009635250895748015409,0.0162103914822165420805966,-0.00258968321303348425824198,-0.00475086128805342084585606,-0.107507304051321334048552,0.994187795898261450489031,0.0735952341385473496337966,-0.0901751143301095792192967,11.1543852605364310903724,-0.134807354190463357657137,-0.0700177740160440736927328,0.943506204364224720926302,5.44387567209025036163439,1.8898843161396854384293,0.197307915880994860780007,1183.76984657147318102943,1204.44463043395239765232,1171.41715143764167805784,1170.62559370794110691349,-334.445014578841607999493,-620.339475817172910865338,-372.250315195333485007723,-111.40622904881644217312,160.350685680159386947707
0.0524999999999999980571097,-1.24336548029057603059755,0.172580332610504233459281,-0.544437767388202820129095,-0.142315324109407892461121,0.428107676124452385391095,0.0148513305203062211112819,-0.00274575746964541211533883,-0.00413555640246067793275309,-0.107530698492989407188958,0.994187631067385946259662,0.0536323754176445052777034,-0.0766196276243521767757017,11.1586458435805049305145,-0.136172381008297732618573,-0.0703858797388312862342019,0.947057949879455351904767,5.44349011742500810129286,1.88979634500364990223886,0.199659603277230701667833,1182.95741148929209884955,1203.12785633141584185068,1170.82669054773214156739,1170.55250461263517536281,-337.905826451560812984098,-424.514973263285583016113,-137.145107309606885337416,28.590929253778099905503,160.351520043098133783133
0.0550000000000000002775558,-1.30878959353463186765509,0.0342522541249545356412121,-0.620289452175443067893923,-0.146901164804281808562436,0.427718267895741410811183,0.0125459224118310303658363,-0.00292155456306195538546122,-0.00350717028283188377371649,-0.107555428226304525263224,0.994186916608340798262589,0.0337009103565109324751603,-0.0643049531120345324586296,11.1591317438815611495784,-0.137605347556423257548985,-0.0707361030204397972509511,0.950629571612235824140669,5.4431061419740975892978,1.88970761590568958609992,0.202022781896130265710809,1182.08031743921537781716,1202.32205556763597087411,1170.73142590109364391537,1170.76854835420999734197,-398.556772822803054623364,-190.924502915367895639065,51.2136304475915977718614,138.737550571613496686041,160.352110090666400310511
0.0575000000000000024980018,-1.2843170764921840731887,-0.100325668443120755157771,-0.615980159524369463852622,-0.149650566882378655009234,0.427243323485178461140777,0.00945995326411314986503331,-0.00311083394291471757378553,-0.00287135559513870602596497,-0.10757671075695825202434,0.994186153875367351062664,0.0140610360961064828622114,-0.05318799598760034358369,11.1558182823449207887734,-0.139102263449279422991012,-0.0710579497593250564158041,0.954202313092944343075885,5.44272542719947516332013,1.88961802352625141132592,0.204398401457201506215,1180.96462762517808187113,1202.17323381683900151984,1171.08275869997009976942,1171.24619236549324341468,-585.398651978721659361327,64.1829215105645118910616,208.970790657167640347325,248.80499262567366258736,160.352411559142211672224
0.059999999999999997779554,-1.22472869158987096582791,-0.267533347625282913462286,-0.524128582303484469306909,-0.151063244773115196162294,0.426310595662607982880843,0.00614874893606603533519062,-0.0033093534162086284469706,-0.00223541082661742745996136,-0.107587952639724579451119,0.994186048113755771460376,-0.00497841340776683516367029,-0.0432562254717486216470945,11.1487440665810790818568,-0.140654383943579375237931,-0.0713442073755785194366652,0.957756910268668493202426,5.44234850238545408984692,1.88952859510036286216916,0.206787389131817406218161,1179.15332417932177122566,1202.64297017518879329145,1171.77627985437948154868,1172.01257331733836508647,-763.226338049026139742637,241.344280297698901449621,261.869234544065079717257,302.239541936569537483592,160.352447213975096929062
0.0625,-1.18819408936077119953723,-0.424069118859853044778419,-0.400887894822010037998439,-0.151564015276870328596814,0.425028096427927104539179,0.00454934553334736604957023,-0.0035057292321609727012155,-0.00161136640434641370024649,-0.107585260473394242475287,0.99418703328044089051474,-0.0230195052134011812761116,-0.0343173485592507890307168,11.1380124763026078227313,-0.142242839481463184680976,-0.071574190223953879086416,0.961276094671835723559639,5.44197484645331108765731,1.88944062607404084097595,0.209190275941827624750502,1177.14849593493295287772,1203.37995521832749545865,1172.39210487269042459957,1172.75739007517609024944,-914.078483260526923004363,300.279750827212126296217,212.371686889036737966308,315.533328574883569217491,160.352210452703872078928
0.065000000000000002220446,-1.17544313937824940197174,-0.620098661666436568040695,-0.275259218437570452042706,-0.152514199936791883249754,0.423641702988739043966859,0.00438842070534606765869201,-0.00369195499560406913477917,-0.0010006811856089500942929,-0.107570127807562698762922,0.994188980805538857765669,-0.0398959413041465871252456,-0.0262695851370236543864678,11.1237870782332599617348,-0.14386467082114134941051,-0.0717374852155918119045452,0.96473954872489930956192,5.44160257326449059434026,1.88935478870179651700312,0.211607634716297593469037,1174.5829317630191326316,1204.14436892932485534402,1172.83813828882466623327,1173.59023996021278435364,-1249.85839855780682228215,256.357133490109617923736,118.677896073995626124997,390.328833559305735434464,160.351703138524328551284
0.0675000000000000044408921,-1.15458581590292719276647,-0.932301606302354368693841,-0.173550336494235957207621,-0.154861925547307488493232,0.422100298055798905938474,0.00532904062216417191005791,-0.00386265293534790487076092,-0.000401691002510190487643366,-0.107543965304931779525255,0.994191786505936536677552,-0.0555149200916315033182968,-0.0190647964072726341933084,11.1062892218885700401643,-0.145519316528275044486662,-0.0718293678965214177356557,0.968126869590525407360815,5.44122848009287363169051,1.88927177121821210370456,0.214040286102407634194478,1170.89920394214391308196,1204.66174088577804468514,1172.98549435306040322757,1174.70903424297262063192,-1435.13306899203462307923,66.1529814041386430290004,-28.7120038838565712069339,434.023404915432877260173,160.350788043187748144192
0.0700000000000000066613381,-1.08939755048885533739167,-1.27646479396560175167963,-0.153686056270260884559775,-0.157868279430254748740836,0.420700838509006358467701,0.00646223197742034228402419,-0.00401839947148878180033238,0.00017615786994254232036318,-0.107509256211861664587204,0.994195205895793687744799,-0.0695407479817186646720018,-0.0127470448094291685658952,11.0857977503323734680407,-0.147180288103531203836027,-0.071854508631769564708236,0.971422421300183303038978,5.44085037603186005839007,1.88919181638405953016502,0.216487382710440545707797,1167.40726641805895269499,1204.47513383634554884338,1172.69457826940538325289,1175.76035698478995072946,-1457.89845785562010860303,-249.430932607356709240776,-210.453905620443435964262,445.376636151150648856856,160.349774398488222004744
0.0724999999999999950039964,-0.918849560993832081834398,-1.71691714156873365126899,-0.205865966037756004114456,-0.161441689397516907611418,0.418631922778684828490015,0.0075137927924638601984153,-0.00416064429743844520215301,0.000720096502122975724510812,-0.107466108918588015841422,0.994199255734245612714517,-0.0815853621272853990475937,-0.00735655443430767441714835,11.0626404309493171496115,-0.148811761260467856349266,-0.0718177193372062094844921,0.974614561592233030751231,5.44046609320044005642103,1.8891152914161575271379,0.21894612245050995569251,1163.60971165286582618137,1203.41458622274126355478,1171.93322482495818803727,1176.93591742372836961295,-1547.3941419564682746568,-580.469456618812955639441,-379.159387314894786413788,484.774449303587061876897,160.348504514775811458094
0.0749999999999999972244424,-0.628040598294901220022268,-2.22725174753443866393354,-0.302370325722223609599126,-0.164911145122476426871927,0.415486195831690718893725,0.00804273856253604792210243,-0.00429213672360621422557925,0.00122075315971067631035107,-0.107419787149983528284913,0.994203395954558755143182,-0.0913615045105072021147663,-0.00295692226525582496643452,11.0371829684561557627376,-0.150381126316602664605426,-0.0717283149266646352648635,0.977694175879601057310708,5.44007338402710605151924,1.88904146153296270682631,0.221412736107982760502821,1159.670295708276626101,1201.57278655325148974953,1170.79878133283091301564,1178.18422923130788149138,-1581.57067237911951451679,-905.255965021296219674696,-531.152088717271453788271,501.680858449344214022858,160.347024913147350844156
0.0774999999999999994448885,-0.173373233197786635884086,-2.78708664605553568804908,-0.414169103180606734682101,-0.167558976146255061978607,0.410172236315058780231624,0.00711845812963842264342595,-0.0044170806550798752052045,0.00168064775714875077120003,-0.107379102975023996147108,0.99420668956733082577415,-0.0988706294692796305856319,0.000342725064412623126042234,11.0098153126015088076883,-0.151876871833483195750603,-0.0716017822963134764613358,0.980652135898551047255012,5.43967156000152929351543,1.88896969845000994858708,0.223885825547430916682146,1155.70185829097022178757,1198.88830639763477847737,1169.27746438137182849459,1179.4443217159750929568,-1715.40512957467240084952,-1310.10064593847232572443,-738.552758345303345777211,531.914397693571572744986,160.345295189946739355946
0.0800000000000000016653345,0.553580764667134017642525,-3.45095725573833167487692,-0.508015860569187127637747,-0.168878012212604899922042,0.400472418096564086731348,0.0041820521484264615644233,-0.0045407772613066848046981,0.00210826746294449094212831,-0.107348482625707689064321,0.994208664454581891867235,-0.10427077848450569397265,0.00241374604164322492660943,10.9809425491741716740535,-0.153299664954805847649766,-0.0714556120653872806069984,0.983480960105821422345684,5.43926216516558636016043,1.8889002124810660987464,0.226364956985757370677703,1151.09327006040325613867,1195.02228332355912243656,1167.10601754110439287615,1180.84380121977574162884,-1637.47524186128293877118,-1456.08476741021922862274,-841.276822009284956038755,476.164967108160965381103,160.342933208851320614485
0.0825000000000000038857806,1.28176335906652116847226,-3.94975292417447398918284,-0.52041216606662077381884,-0.167951482313630773290924,0.390004481337646646821327,0.00123754448922734866349316,-0.00466746412896545687792882,0.00251467325455348618412632,-0.107324124335006432229278,0.994209737379596836248652,-0.107804278893695426599919,0.00316543099055340004799319,10.9509751439009850315642,-0.154657894585251837193951,-0.0713032765807735391394573,0.98617584007956771152692,5.43884749330070249584423,1.88883251715404543169541,0.228849815110981374965959,1147.51448208166380027251,1191.60788256058367551304,1165.07108027132539973536,1181.82514655151589977322,-1348.31540070676851428289,-1315.5306486027700429986,-852.976950716537544394669,336.215416532513415859285,160.340727856858393352013
0.0850000000000000061062266,2.08029030459838537581163,-4.35497713956673671020781,-0.451864597895723196785411,-0.164547257985798889290407,0.378309355613684283881071,-0.000858208466117695500594009,-0.00479114068654261024415852,0.00291158220284184598297683,-0.107302191768233370905428,0.994210370242702645704469,-0.109776264718917854201763,0.00274541466320275817647456,10.9203179890528758733126,-0.155965607594684585457401,-0.0711383015381862882087205,0.988735962884220609403485,5.43842898780588512863687,1.88876600069702793582849,0.231339927808177719947835,1144.35169305686940788291,1188.44463008054526653723,1162.84113278752170117514,1182.52487830243831012922,-1269.83044681905880679551,-1241.07753433822722399782,-1027.08514270307114202296,227.127805783720560839356,160.338277744400727442553
0.0875000000000000083266727,3.03468319671585851082796,-4.72637862796953100996689,-0.289200775213554472919952,-0.157398716776186775589963,0.363988767219274644837412,-0.00210534126814443129510623,-0.00490168135004457640457876,0.00330101020772815894818719,-0.107278554386405267084825,0.994211092356287795546166,-0.110312395435285981459828,0.00142811162556085585739751,10.8893660059272203710634,-0.15722137136768254972452,-0.0709439172402535345174357,0.991166952992681427048183,5.43800842509758908249751,1.88870003601371005963472,0.233834488213487567964677,1141.16532984756850055419,1185.40249488889253370871,1159.93565455781003947777,1182.96078558043450357218,-1055.43504596389743710461,-942.022862154410177026875,-1108.07427323234355753812,83.6468736790267684000355,160.335055921920172750106
0.0899999999999999966693309,3.7589400935915815438193,-4.95543932272692888574284,-0.103762794865720917036889,-0.148771186922195680635284,0.352374229871881272657674,-0.00251040293034796762119965,-0.00499284920968714844569103,0.00368841792658706167651328,-0.107249006320112860723981,0.994212407603733638872257,-0.109623046886330649529739,-0.00059115810367091348176416,10.8584913845121207032207,-0.158432534167492450327686,-0.0707117913042184798033674,0.993475484821216836550661,5.43758809703878309704805,1.88863556652436281879659,0.236333631131184301876758,1139.07451782704993092921,1183.73451576977322474704,1157.30076142135999361926,1182.94311267083344318962,-714.499836603455605654744,-463.06156440855460232342,-1102.13247283427540423872,-94.0001477102215972081467,160.33213787580453413284
0.092499999999999998889777,4.33256761489635344730686,-5.12926396901879577683303,0.112709157649071717299805,-0.13759425869735003589156,0.341209632284447395011995,-0.00260452673770016811596872,-0.00506473434295977471830685,0.00407026414176154312934974,-0.107208836459758677372989,0.994214868514221916662166,-0.10772437187735864339011,-0.00321895579973860423983467,10.8280411447973374805542,-0.159590147628024175974204,-0.0704442641461810875602723,0.99567281946917662871499,5.43717036968128208940243,1.888573029462732089101,0.238835914280696531841741,1137.59283066455122934713,1183.08718706684976496035,1154.42499219363867268839,1182.49078484188339643879,-515.689382913796634966275,-67.5861662283750206370314,-1315.24190335116941241722,-304.212286425081117613445,160.328980720090783052001
0.095000000000000001110223,4.77952755748993851625528,-5.29857199010707269337672,0.383828217763311885235566,-0.122460655157843295581799,0.327881108523484954275773,-0.00234236959404710573875996,-0.00511373428344432789244278,0.00443425418668147615364195,-0.107163475844825634153423,0.994217976237987022258835,-0.104467587638576248076916,-0.00625191993766938819421242,10.7983287958719547106057,-0.160669681695883304062278,-0.0701378992998692024629648,0.997775520289089001835237,5.43675709815689867099309,1.88851227687463385507272,0.241340910899258964672498,1136.49607091248094548064,1183.39658493863134935964,1150.72455190460414087283,1181.42205123870803618047,-297.42581958707859257629,252.027689579608477288275,-1383.73807127627401314385,-479.550384512958373761649,160.324920527369528144845
0.0975000000000000033306691,4.92416716868866988221498,-5.40929618691014013620588,0.597823477751357801324161,-0.109321159882504057025976,0.316235153926478496089203,-0.00151628234359078828928646,-0.00514535509670206898935607,0.00476853637182009845035813,-0.107121916899558036750939,0.994220796087224356618606,-0.0997028232747789178169739,-0.00967183355178527492945761,10.7696270143118759676781,-0.161646680430488631774466,-0.0698086153943920928455213,0.99980064141317848136481,5.43634903648536571552086,1.88845258213705857741616,0.243846939748873253739347,1136.10570156661583496316,1184.34732551474780848366,1147.50630183725729693833,1180.09303291931860258046,-62.4422019426673955422302,450.815475623312124753284,-1284.59149484524346007674,-618.696498263443004361761,160.321315167174418547802
0.100000000000000005551115,4.82802727684687305043099,-5.47088793003175410945005,0.768130762927040633414322,-0.096480833635643567514073,0.303479459256680517142968,0.00033321825582916344329204,-0.00517240671947007818465281,0.00507024283921549395043327,-0.107087959203153823550814,0.994222872129190360368511,-0.0934598945746899500974791,-0.0136226082489483493742632,10.7421602303002128309117,-0.162514512038298142293513,-0.0694871372358428496252003,1.00176247397945705763789,5.43594618689380659759536,1.88839363024340278762736,0.246353237537019736924648,1136.18385990276760821871,1185.65066231674791197293,1144.30159443037791788811,1178.32856874739081831649,96.8437331345739096377656,520.73975830944573317538,-1248.59029931262625723321,-772.592401103428755959612,160.317485991944096213047
0.102500000000000007771561,4.54667847309205175321267,-5.4696236810188381127773,0.877711467354133412221984,-0.0845582911851422425186797,0.289843915458471768076265,0.00303619511596126857855271,-0.00520046232394768409568186,0.00534709409370313915044193,-0.107059882679816364969838,0.994224325725147961563266,-0.0860103112765945865270112,-0.0181042727471218273249676,10.71610086698428432328,-0.163290036538317528957975,-0.0691901469895891546579847,1.00367273102983012300626,5.43554729564483452008972,1.88833596473474085719602,0.248859892868386528563818,1136.58992023228870493767,1186.95102430629503942328,1141.26335034069415996782,1176.23007091380145539006,229.113856553704380303316,461.076956808256852582417,-1131.84565118467821775994,-911.134533917631301846995,160.313476914867095501904
0.104999999999999996114219,4.07377594381907215392857,-5.36866410209757383142914,0.891737054378944460353296,-0.0742087380880921132497718,0.275679148554859754227664,0.0065455742310773518816136,-0.00523016762470782624327992,0.00560934083167548627746335,-0.107038175458600587353075,0.994225055442279348483225,-0.0776869477984009071391824,-0.0230104553445314788384657,10.6915736898542643729115,-0.163995454286604974702968,-0.0689253356192140731462104,1.00554220047595643805494,5.43515010124084962939151,1.88828084399070617038774,0.25136643536630659534481,1137.3294291855361279886,1187.95604710078919197258,1138.64236617445453703112,1173.77289607780267033377,391.465954437217817485362,334.01892389297307772722,-1001.55056955900556658889,-1149.21263337633035916951,160.309258839495754500604
0.107499999999999998334665,3.33281862725709210337754,-5.12034633059184773884454,0.79093176383259078399135,-0.0636610065257994933718422,0.2590539709020124869987,0.010899537362772207180206,-0.00525868052882048561680328,0.00586519261481655961726345,-0.107025179278471466171041,0.994224792651315247837829,-0.0687814119316843552986995,-0.0281524521582204798053617,10.6686600549631407375273,-0.164648496214995748720966,-0.0686928830426428438382658,1.00738138684034317371641,5.43475145436830064937794,1.88822943405395182736584,0.253872931028929715857601,1138.54725000447479033028,1188.62111892575990168552,1136.25559749289914179826,1170.48400774691981496289,496.896464494465817551827,156.154191991436022135531,-716.343398268917781024356,-1247.84813945775454158138,160.303966738879722697675
0.110000000000000000555112,2.60594336094427569960885,-4.81709584343978747256187,0.624890979882370412035186,-0.0563760827498011041214454,0.246137261098015563964836,0.0137632470189061884013881,-0.00528428774412833916762633,0.00611999076308368788329473,-0.107022494546747740096215,0.994223360103375863872088,-0.0595149845425844981061658,-0.0333586236395351232175699,10.6474021615975402710319,-0.16526005136501389913839,-0.0684933336817662857809452,1.00919960108230477580094,5.43434970421550467278848,1.88818207445242292052967,0.256380877826769992822165,1139.81391150800845935009,1188.7368180607463727938,1135.0606491831099447154,1167.53365538051389194152,556.003238742732264654478,-7.54690341359491156936201,-293.303331994547704653087,-1200.19480951936998280871,160.299372998311667970484
0.112500000000000002775558,1.8075947735411870276323,-4.44529774601954219548361,0.415961155631857981695987,-0.050937752464515068107076,0.234819622212220191492804,0.0152912747047923985865836,-0.00530498801050599284173659,0.00638140303492130533252746,-0.10703408147551199403047,0.994220312272460438052235,-0.0501521145667338796858559,-0.038460437596790367220656,10.6278058703318691868844,-0.16584485050446259868373,-0.0683265065583843894669869,1.01100273210563673664808,5.43394408644227233651236,1.8881380489103387620986,0.258893034496518903431195,1141.32726619818845392729,1188.58338440869192709215,1134.78908083292640185391,1164.48303369932295936451,720.962922237185239282553,-60.3544645249712061740865,87.1684472378546360005203,-1332.01485370345722003549,160.294598551608089564979
0.115000000000000004996004,0.819546500830022117689566,-3.97055636109879150907886,0.179953384689394424444941,-0.0468733757994845359751146,0.223408002186042092818141,0.0155152607605268527679598,-0.00532702658038278209495786,0.00664684805726968759576057,-0.107061008747317734646209,0.994215520489991178010314,-0.0407138736908843612560815,-0.0434468267065985236374814,10.6098503775152348538313,-0.166395542026596843232511,-0.068204001027973651383185,1.01279644354255560223521,5.43353583879972301673433,1.88809572299010297591337,0.261411732780398642361774,1143.41872611919438895711,1188.43504573812151647871,1135.49649141929921825067,1160.873581111996600157,810.254108390835654063267,3.53464856602840571397905,408.511556377061083367153,-1288.0748686469348740502,160.288671779333924405364
0.11750000000000000721645,0.0130567688306785587709635,-3.58662591304905475908527,0.0409733153414974307637841,-0.0457174111356409354489649,0.215594254600660284459934,0.0144341651705645682146617,-0.00536351220369634968526684,0.00692298163130206870713446,-0.107101059909185655771857,0.994209101345130852322995,-0.0313929639849010455598943,-0.0484823031124851366868711,10.5934876411766367709788,-0.166922701182518673501676,-0.0681504393991245460693307,1.01457971668816115951017,5.43312524041521438533664,1.88805401826220164984704,0.263939013123286880801999,1145.37853674014263560821,1188.60105765152206913626,1136.83163861481170897605,1158.04265935608827930992,820.485134331603831014945,170.632938198014329600483,647.285002596210119918396,-1062.99157139851763531624,160.283576640002934254881
0.119999999999999995559108,-0.723231470589914771096574,-3.24232869368695109102418,0.00013037924100836595364683,-0.047058061177633753180416,0.209204913732767283640612,0.0123948376814330928075147,-0.00541922179802115707575316,0.00721256450097751238004218,-0.107148343701500781133262,0.994201635364756253210317,-0.0223098501876089205797626,-0.0535607200584017340005971,10.5786516084815271909747,-0.167432216979165965353715,-0.068169891901917037402292,1.01635129795529399743259,5.43271319971581068131172,1.88801174643786517926003,0.266475591321718940918117,1147.52115179085240015411,1189.28821042911158656352,1138.73291643228026259749,1155.55862325500402221223,962.640433888193001621403,432.935745688792735563766,912.389692015132709457248,-977.376468170179578009993,160.278329406604143514414
0.122499999999999997779554,-1.46803831273457108252956,-2.87587823144407783715337,0.0724522746151397001312944,-0.0510528763214983180573903,0.202305773254436022101643,0.00954945961449131519582778,-0.00549406171864596538922942,0.00750864859620773653775538,-0.107194500776561063570824,0.994194064164380941761578,-0.01338295281032308992053,-0.0585702417676015538172685,10.565265293524811696102,-0.167912845168471852597136,-0.0682520132595041129075497,1.0181120193299051379654,5.43230181032978354238594,1.88796723690303380749356,0.269021840235419695819274,1150.19173890958359152137,1190.76573637996602883504,1141.39358707488736399682,1153.15577701523739051481,969.550216211017868772615,625.584917844298047384655,1000.37914793710933736293,-763.227939549641860139673,160.271868538071942111856
0.125,-1.93879925078781556457841,-2.58710463541499136042034,0.20757624861071954924796,-0.0559089108996787473304657,0.196250201192354284396302,0.00805092917791461887278004,-0.00558650557550319139948902,0.00780322461487707383365198,-0.107230109872878676124941,0.994187464845896151643956,-0.00450321531429642707422545,-0.0633888354867565978478794,10.553243312184175550783,-0.168352707892372610576359,-0.0683815598515472439222762,1.01986221165581003589296,5.43189293104996373529048,1.88791909035709837283434,0.271577703738549891543386,1152.36890287190749404544,1192.41613501833307964262,1143.73481217196581383178,1151.74248355725580950093,821.237653119577998950263,684.440599967683169779775,924.286934839437094524328,-426.483695458227487051772,160.266356197716646647677
0.127500000000000002220446,-2.2259113049255319083386,-2.27204969580440119258924,0.353530213873641641075807,-0.0620962384979172818399995,0.189485953914319382729303,0.0089875613390431787624868,-0.00569434927966217668826587,0.0080919787720460621682772,-0.107248253676995364269686,0.994182626163436000688023,0.00436782036147188856833878,-0.067912960722695175919128,10.5424949492506279113968,-0.1687480856268659956676,-0.068542560589435225226751,1.02160071264417129377478,5.43148669596465172304534,1.88786653019133221498294,0.274141647279428468664264,1154.29792717518148492672,1194.18793937980444752611,1146.01502174908455344848,1151.02335853794625109003,700.502299213803212296625,668.268514340933847961423,881.68324555058381974959,-169.722814423539460904067,160.260720839602868181828
0.130000000000000004440892,-2.35205947225720946036631,-1.90494289581925202448076,0.447277879184377169519138,-0.0690253637934913344409438,0.182717669941486998697044,0.0117706391489344561890329,-0.00581492266638164358866225,0.00837468619235546933576853,-0.107250777751049283792462,0.994179365030592232521656,0.013190063102318003163127,-0.0720633445778800368897166,10.5329274592111978847697,-0.169103031183594904041101,-0.0687214546259441033670967,1.02332533533889780130721,5.43108308929605776427252,1.88780954113911203506859,0.276713257159389436345975,1155.8714143679765129491,1195.75747759003775172459,1148.14322839971873690956,1150.89386948513811148587,515.870423310615933587542,508.884501858892235759413,799.543986432671999864397,79.6476553484352933764967,160.254990860881889602751
0.132500000000000006661338,-2.29356852051938542302878,-1.4592186223455474447519,0.419719538003590075803118,-0.0758446328920517748306551,0.176962691080909922947129,0.0153750298270434009040297,-0.00594440857889070445319035,0.00864685589446067062735501,-0.107247322241190212732675,0.99417669941734210237172,0.0220181458012656261491458,-0.0757504096042380670184002,10.5244499054001039439754,-0.169412205951040256701745,-0.0689041968732959780874481,1.02503637980503237159269,5.4306828131592395081384,1.88774936871938914251245,0.279291675347189460865138,1156.8772792917345668684,1196.73236188909891097865,1150.01274168124791685841,1151.42159681468842791219,294.421317393607466783578,229.406602944072602667802,751.487721317425211964292,352.132774785422611785179,160.249155465956334865041
0.135000000000000008881784,-2.04835096504597080624421,-0.847687957006826420247592,0.215067796417377526951853,-0.08270659472294726588526,0.172170906235252496596644,0.0191297788410145844228971,-0.00607798655263331981390973,0.00890698177369278649984086,-0.107245180356372121766029,0.994173882919156537418814,0.0308494154575178203270269,-0.0788916855840517960984926,10.5169731161225818993898,-0.169676363212471037478224,-0.069075351208449528583877,1.02673448790518628825907,5.43028590057171989258222,1.88768731008078205491074,0.281874837301700764680135,1157.3435209549445517041,1196.90451060475811573269,1151.90066700630586637999,1152.6545333590652262501,50.9789981097582796110146,-117.782150829952925619182,627.789043392157850576041,518.29158663235784842982,160.24204203786030120682
0.13750000000000001110223,-1.73862506503342628683129,-0.305957756551530402067129,-0.0867067243141810689577298,-0.0870831070141295376929591,0.170178027145040516865393,0.0211286061575555288161166,-0.00621073660728049727758338,0.00915381055895836057145765,-0.107245838308113572434621,0.994170794967016768772794,0.0396815722225082254115414,-0.0814225113177163006827897,10.5104109742289022477735,-0.169896556244574448157891,-0.0692185685571929248949274,1.02842168915415466123875,5.42989225142357145870164,1.88762325451596257863685,0.284460372141137562973512,1157.13217428228335847962,1196.14345113494914585317,1153.15168689820870895346,1154.01305474785021942807,-187.454642721695392992842,-472.690547482215663421812,428.828260512954841487954,566.879195978162442770554,160.236029486436478919131
0.140000000000000013322676,-1.37035114581741934713932,0.216231639724147495229545,-0.475956392077498902093424,-0.090281526379692125794385,0.170201265840319859723451,0.0213437575942987713129018,-0.00633957911781281562707546,0.00939378822158853758750308,-0.107252753890168500694458,0.994167020532915945985053,0.0483583481859756886267476,-0.0833499779016108610640856,10.504679857946774390598,-0.170087542849056805316366,-0.0693249941034234373749001,1.03009842562040021540781,5.4295012660098000978337,1.88755740383259640324809,0.287046536128381157837453,1156.40624774133607388649,1194.54105786734703542606,1154.04480830887064257695,1155.48892933895604073768,-396.95009325719149728684,-843.121758927781343118113,307.75863895596529573595,629.596522622295537985337,160.229938083206064902697
0.142500000000000015543122,-0.912763635555112862185467,0.753736829408661268558944,-0.95909725032003600997399,-0.0929928740558054051090764,0.172385764876224534258853,0.0189117972380226720408025,-0.00646153792508064386823641,0.00963775343293162174707067,-0.107267178184547562480589,0.994162342090847084286054,0.0566327872696700124199864,-0.0847052249732514195290634,10.4996998982445095549565,-0.170271651757084974132539,-0.0693879207838223044380044,1.03176445572188568711169,5.42911078661388213362216,1.88749071396697898350681,0.289633143592191888426868,1155.14742381599739928788,1191.92784234031023515854,1154.69048009298853685323,1157.16103736096169996017,-490.090778875494379462907,-1021.39262459855240194884,169.051535261315507341351,572.898471452392982428137,160.222547519883534050678
0.144999999999999990007993,-0.549655791505642810079735,1.08387300034414590932386,-1.30881676930316026563617,-0.0944278573291137818257468,0.175815230121786209016577,0.0146236724261918273753968,-0.00657633551089175510950824,0.00988905549460090439739535,-0.107285540171808885245852,0.994157113265566771964643,0.0644188407525276701681705,-0.0855669164697063777680341,10.495396437049720361756,-0.170454027597867430188217,-0.0694049113640916870426878,1.03342220360307357474028,5.42871784283698755046998,1.88742425171302818931451,0.292219813600299360700774,1153.95579384695861335786,1189.43409474435429729056,1154.89006598517721613462,1158.35342169621799257584,-463.044592110374992444122,-999.57317250382868678571,24.089853295481702843972,423.123614540965888863866,160.21632868887672884739
0.147499999999999992228439,-0.235864684610703784217733,1.25594363234182981869935,-1.54102794735565606920602,-0.0950034095509449533212276,0.180365365578547320879466,0.00890039748159026158913498,-0.00668233310064844394232653,0.0101497380643473331801596,-0.107300417946236237298763,0.994152123903910611701917,0.0716505381317160683352085,-0.0859860857040636583636939,10.4916998268705992103378,-0.170636263776585861418056,-0.0693713058846643776389485,1.03507434964698874502176,5.42832053799743263766686,1.88735979581486690292991,0.294807000341205494020613,1152.83220085544553512591,1186.92997647779111503041,1154.81092935946594479901,1159.27665543366651945689,-438.246993099800931759091,-1034.64995758426903194049,-67.6113975438055945232918,348.430505682153750512953,160.210056151491642140172
0.149999999999999994448885,0.0556847464653982618387751,1.26967228613372862255915,-1.65246406739774087668593,-0.094472425969770498777045,0.185900688653160756080851,0.00193325338782241915557003,-0.00677769754728174082109016,0.01042108463700125962903,-0.107307943662345792179558,0.994147790214693793942047,0.0782709326831050045125693,-0.086006362109346423672207,10.4885460972990482986233,-0.170816977334948799649439,-0.0692851556302644250306955,1.03672289409314744013102,5.42791818597643871413538,1.88729977297315687501111,0.297396861633172582273232,1151.76455888145960670954,1184.26084495643294758338,1154.55200899745818787778,1160.09557422462876274949,-327.818367286590444109606,-877.372945552223541199055,-92.2453059160033319585636,262.754541181993545251316,160.202476515261736267348
0.152499999999999996669331,0.214168394609568352171536,1.13641217894694990242499,-1.6131789539583545334267,-0.0930067877475796028763355,0.189861795511840486527788,-0.00329255864652078710994032,-0.00685948026806707921582129,0.0107042322134215835138793,-0.107303225196399981689055,0.994144649648079470338757,0.0842168481213948494357169,-0.0856424127463114859271087,10.4858779670114170556872,-0.170994741432259927949033,-0.0691437543596766235332041,1.03836863276666724331676,5.42751269073415176791286,1.88724536854949653807978,0.299992971850815692835823,1151.19310901901258148428,1182.54311175002999334538,1154.34970282988592771289,1160.59042813957648832002,-161.37113203471912470377,-540.402108588386454357533,-41.5939234393135492950933,172.848046031958659796146,160.196122853725086088161
0.154999999999999998889777,0.283733220991114976072822,0.893982208673778200314075,-1.47285572568790312786291,-0.0910207070348704877504886,0.192804500976510612142434,-0.00743938161470974849975857,-0.00692898230863254679934293,0.0110005297633111731592237,-0.107284753377596284162898,0.99414284492052595876288,0.0894231659851387750137519,-0.0849883073310438164060798,10.4836455327354052258215,-0.17116797153518600871358,-0.0689557696320970969772191,1.04001047315810080107212,5.42710676216105980529392,1.88719706412941579110054,0.302596388111828484834831,1150.95770322128601037548,1181.55883441349101303786,1154.34403938026161995367,1160.95981445478855675901,-51.4880927302328501582451,-256.244849536960600744351,51.8311927610738649718769,134.560236696961396773986,160.189737808672958863099
0.157500000000000001110223,0.294333537562000868703649,0.602087263801316274758335,-1.28765267814649408961714,-0.0892552176570620692253044,0.194708142580025889145645,-0.0102608962299933614142899,-0.00698734089562782524629458,0.0113080394522499030895979,-0.107251297015616711694186,0.994142527404462517104378,0.0938870865661811798696945,-0.0841153043991061666329045,10.4818075412804514456866,-0.171329678376378247151024,-0.0687297186092418188607667,1.04164746187180656811222,5.42670261507694196012608,1.88715451632539421567003,0.305207270552868337176733,1150.93566855536141702032,1181.26188750234518920479,1154.60885879369129725092,1161.26322932306129587232,13.703678913134341499358,42.1890381654065649286167,183.484268143956626317959,111.333135334461886145618,160.183331890707250977357
0.160000000000000003330669,0.269984470817929866903739,0.304665878360622144338521,-1.09497475007970712645999,-0.0884758079480053444276777,0.19496757984553120257587,-0.0115094667567494073762147,-0.00704597292327254366012257,0.0116191850369333510989422,-0.107206834897011632490305,0.994143273328746968076075,0.0977417203232333331452963,-0.0832815565262694790238385,10.480331233327239814912,-0.171459877624801831919044,-0.0684960059401093501740831,1.04327902137833405937783,5.42630209793931328476901,1.8871164138210676508578,0.307823791049180173207134,1151.02622161585168214515,1181.76977960431804604013,1155.26146072098140393791,1161.51648013146086668712,19.4015111607768453438894,373.867680649209091825469,372.485482710271412543079,107.163944906960651337613,160.176906670995862214113
0.162500000000000005551115,0.257218971543979713079153,0.00308546522491914831931581,-0.893807549824306324381951,-0.0887819481030189955328424,0.193605230856048304843853,-0.012481542728854832374763,-0.00711599602545776206696804,0.0119289426566360698411806,-0.107160163911052055962791,0.994144115789663329607606,0.10106373041148998537242,-0.0827293243725714111391767,10.4791930397877450786837,-0.171544938703217464404105,-0.068286066966856212578918,1.04490345080846513958761,5.42590587496238718756558,1.88708143338481981743371,0.310444888798045548483628,1151.03267611116530133586,1183.13122590559123636922,1156.47128620724265601893,1161.79904904759609962639,-48.599736248934235050001,583.343181364170391134394,498.628365238163951289607,106.887060060944250494686,160.16918124387612465398
0.165000000000000007771561,0.296187316600327432691842,-0.173434978567350794875779,-0.757213261211496235780771,-0.08954969999790618473412,0.19187270425562050202295,-0.0138400624178731165153655,-0.00719947384021330828718366,0.0122311520137209465974859,-0.107122565786535450804706,0.994143902844090709969294,0.103933359667542940529827,-0.0824953033214528563821233,10.4783789655202301815962,-0.171571986505923479437996,-0.0681119833597509799494318,1.04652026569146139323152,5.42551359842688984969072,1.88704887200425330817666,0.313071634777942087168867,1150.78322293460701075674,1184.68649551113890083798,1157.7546025471722259681,1162.05091543176558843697,-183.363474712859726878378,653.967014132512645119277,541.064261081737186032115,112.539807056464169932042,160.162735684432419702716
0.167500000000000009992007,0.409983372829015813021414,-0.263724810340741466774261,-0.641528373146377006719376,-0.0901618328324289841635419,0.190285478015095183002003,-0.0157293166114592861126731,-0.0072947272166008448809893,0.0125135528987696132557916,-0.107102407701628668523774,0.994141899673762430289514,0.106553085102096323222298,-0.0825131267403367146817672,10.4778834153212159208124,-0.171517698205001817290949,-0.0679741846477548566918259,1.04813157494753506071561,5.42512502210686431425302,1.88701753062335986221854,0.315704233944086420926567,1150.11585873760100184882,1186.40106097625380243699,1159.17660751265134422283,1162.36174808287842097343,-401.487373507415782114549,732.421205843592588280444,618.914506192231215209176,156.061140513020149001022,160.156287844168787160015
0.170000000000000012212453,0.629735637364037481589207,-0.289701327562319921327116,-0.509419568216745166644444,-0.0900128888561822215752528,0.18908057963816277124991,-0.0178221361306862419171537,-0.00739898364812932845396842,0.0127713358048754388462953,-0.107104045706281972294427,0.994137722119835420819811,0.108973949631951227967619,-0.0827017903498681872243026,10.4777077849254087738018,-0.171375748282164230840152,-0.067869374730544496099327,1.04973722138035951978452,5.42473987627882792139644,1.88698524761899255608455,0.318343539700202793341077,1148.77578606706993014086,1188.34860154035686718998,1160.84917507813338488631,1162.83122113433068989252,-568.221228380661614210112,662.494112927878973096085,580.350774925181553953735,187.852401519466923218715,160.148554794953668078961
0.172500000000000014432899,0.861670304248067675523259,-0.265071479836257062334681,-0.396432695019994174590039,-0.0887784006671415437672579,0.188722039259610591122041,-0.0191387904752879749181727,-0.00750238081690058136730137,0.0130055236052973605814786,-0.107123901769547100193414,0.994131821417151839703763,0.111118671313195194194634,-0.0828410689850657688815261,10.4778592915222592552027,-0.171155084884338060113862,-0.0677763860433914233638575,1.05133626258388868102145,5.42435781573382236331327,1.88695110345584615707537,0.320988894773018396122666,1147.27475259569769150403,1189.71353154089320014464,1162.07836138727725483477,1163.30101009047575644217,-640.521521647041822689062,467.631165526654115183192,428.776539135742098096671,199.724039471084154229175,160.14211980210760088994
0.175000000000000016653345,1.10633882638061642467164,-0.219142872768848806508402,-0.275421696399844040392679,-0.0862271607003756573872622,0.188683466693869150709872,-0.0199923293535755192129599,-0.00759593702203035896214356,0.0132234519522417028059014,-0.107153494761768358634058,0.99412509257135261986349,0.112791103161004491184372,-0.0827409673871364881314605,10.4783484380385871759245,-0.170878605876787020845242,-0.0676741595761970182731915,1.0529263471429763932008,5.42397825223058660526476,1.88691475098583394398588,0.323639621080589245938341,1145.57317845883471818524,1190.68675736799013975542,1162.99305777381209736632,1163.82984133168611151632,-729.760782992437952998444,329.460047960493909613433,304.102886272859507243993,241.628493884946919934009,160.135701649085319786536
0.177499999999999991118216,1.3672741213453936115485,-0.161524263896093922543429,-0.118304341823507741526811,-0.0817884566179492011883667,0.188654384335140534734165,-0.0206229704694481166815656,-0.00767185829550949202615406,0.0134299911477788573577197,-0.107187136063788004958219,0.99411815795682556551327,0.113860355091545656369689,-0.0822290243320916852676206,10.4791863768388928690456,-0.170563666772740735178004,-0.0675432844354664635444507,1.05450704735859135396936,5.42360078107471110797633,1.88687642118407161717641,0.326295243939379864261952,1143.62594868073551879206,1191.36083178069566201884,1163.59887581864154526556,1164.5091525599004853575,-649.235030337470902850328,171.987663432992917478259,128.796867169240300654565,257.273081398444730893971,160.128028586888206064032
0.179999999999999993338662,1.52953977422091047522201,-0.120693776616917158861497,0.0235921055855022321345871,-0.0774600627220557863550354,0.188536659937887041138538,-0.0209253821049017463273856,-0.00771858570000717551795599,0.0136277258969279835287836,-0.10722127733035996532962,0.994111467356071587531119,0.114247030124612458656941,-0.0810500125007912602947968,10.4803824525121651589643,-0.170223505587112550196949,-0.0673557933070968173350224,1.05608043481919366968214,5.42322537048613195764801,1.88683732134579429384758,0.32895541024107144423283,1142.32700330714737901872,1191.54669568515510036377,1163.63704210965829588531,1165.11620673867832920223,-405.943053347754926107882,16.7900218315025853144107,-84.4206780409421497779476,258.391847462871510288096,160.121665615696343820673
0.182499999999999995559108,1.61498369509183659076257,-0.0928349956213375682168021,0.176187333800653211923759,-0.0732520940748693089039634,0.188376683219943052982615,-0.021044848557659846799428,-0.00773673170882177400897728,0.0138229257416452970541609,-0.107257862917556984205802,0.994104724939206096934186,0.113834719296865283233444,-0.0792124183122505931553547,10.4819406069035228057373,-0.169875690946542451387202,-0.0671113654556687311281138,1.05764749171089711410332,5.42285181806517435632031,1.88679804199591183433427,0.331618860970637363561053,1141.59623341399674245622,1191.44478188985317501647,1163.1767724284368341614,1165.80111179721484404581,-178.602786371948070609506,-68.4473265023370345261355,-260.306261491450413814164,294.572757424429880757089,160.115344498490429714366
0.184999999999999997779554,1.63079909297671332701896,-0.0777480842314553638461305,0.333845405952851725928099,-0.0692791843344875563071028,0.188319080851827247435892,-0.0209602252040197167826108,-0.00772983095555546638466549,0.0140177708337088369194845,-0.10729680756619203174651,0.994097886456174140157316,0.112612415109586500028271,-0.0767821454696691330088498,10.4838574856792945411144,-0.169528753633538808998082,-0.0668140298140649790958889,1.05921174028292819357944,5.4224804020635630763536,1.88675848538236490270492,0.334284055254241263543946,1141.43398937528763781302,1191.20445905264341490692,1162.33551080220104267937,1166.5890705258004800271,74.7282276263830880225214,-105.242105784918649646897,-410.492954063192541980243,346.201204004637190791982,160.109065656905045216263
0.1875,1.55976895417211114391876,-0.0786553371690953823103243,0.486314764374227992416166,-0.0653576275759666924791702,0.188292569738155335379304,-0.020441852792949747469331,-0.00770933920505612307189081,0.0142058303004034061634009,-0.107335714964638603841074,0.994091212604146678977202,0.110779968930397682003175,-0.0739778849909123181749493,10.4861203785131209542669,-0.169171418036692000619325,-0.0664817970569123589674732,1.06078010020218194142672,5.42211275286890881375257,1.88671753179042678283395,0.336949380720467150940323,1141.9698745521286582516,1190.91857136092858127085,1161.1243076581208697462,1167.53211781723803142086,376.411339297009931215143,-109.380574964325106179786,-584.32655114356691683497,446.419260237007222258399,160.102847267534400543809
0.190000000000000002220446,1.37253469987420362308228,-0.0960932040958333566482708,0.63918562787210941866789,-0.0605712613071033439959834,0.187958805065405881729035,-0.0189425756780500532949763,-0.00768739234848654379855803,0.0143803148181192008009388,-0.10737252588777976280987,0.99408492811620097207026,0.108558927754168282886482,-0.0710387051460234231203827,10.4887069274659641138214,-0.168791065827246927755212,-0.0661343059494514939888887,1.06236020894416394177995,5.42174934902049532325918,1.88667460757993477038497,0.339613823281567639433831,1143.3160460717726891744,1190.65755617782178887865,1159.41387804648320525303,1168.82116682698551812791,582.800618008968172034656,-65.7664620642207751188835,-639.751443815929974334722,484.264272501377035951009,160.095466450757982102004
0.192500000000000004440892,1.13454183142223774538593,-0.12214233066287254192428,0.719831335220417201092857,-0.0569101989183120257620452,0.187341366801638153916088,-0.0166880734911376386875315,-0.00766929300635017276166483,0.0145408836703751643409932,-0.107405483872165918857178,0.994079184168530805010278,0.10603258942361459826742,-0.0680828349541011401679924,10.4915852477628597227977,-0.168389532814034653673829,-0.0657786770058283176698666,1.06395810658108236346209,5.42138925909711932860091,1.88663008158495526522813,0.342277834028658412002244,1144.88387764217350195395,1190.58973905060747711104,1157.92555043904121703235,1169.95343917974491887435,679.216075437033737216552,21.3610533060091078993992,-572.103364179155960300704,437.336589080268424822862,160.089390709192912254366
0.195000000000000006661338,0.824351981309818793164368,-0.161323755151041414723778,0.730660437471731039060785,-0.054351708619483088402724,0.18654621363211337792265,-0.0135925070649882909906703,-0.00766258030686063889430626,0.0146944731962703554334349,-0.107433983266828653180269,0.994073883876534614145726,0.10314736635855967228359,-0.0652979699360365650750992,10.4947138574367215824168,-0.167982479911654269955079,-0.0654293947364768535557289,1.06557639556732453023358,5.42103066168543623604137,1.88658525905816820689154,0.344942141701469362491395,1146.71212644895786070265,1190.76436144435183450696,1156.55336122558742317779,1171.00784977238686224155,818.719393664104472918552,152.221526042694534908151,-544.955205303812817874132,411.690814156190413086733,160.083400105769953825074
0.197500000000000008881784,0.392733446503223448953435,-0.233368522795953881043829,0.659217908273787567274837,-0.0527510938114992902758793,0.18600223459854575702721,-0.0101684448868608924565482,-0.00767045981653845850706253,0.0148544580047467681543916,-0.107456006248365223965102,0.994069020984742701685377,0.0997139590194595637484554,-0.0628022217777320090892346,10.498042995666793331111,-0.167599431224579542565323,-0.0650935979860124830365109,1.06721456483257481906435,5.42067209326649646072838,1.88654142191621199131646,0.347608780996024380183229,1148.97747461049402772915,1191.35084668082095049613,1155.20077441252215066925,1172.01189325052587264508,814.078011911987459825468,289.690320515819337288121,-436.030900603008888083423,305.214565280038812034036,160.076316766960019322141
0.20000000000000001110223,0.00189193048389145923766919,-0.324652359730336736998169,0.544586448515129384340128,-0.0523000158224902825243596,0.186225083253969331265054,-0.00836178372487406638968732,-0.00768921430308492064725767,0.015030343101586704154804,-0.107468676243916899659681,0.994064791856426599458985,0.095614588683569701199616,-0.0605651707036471489975504,10.5015163478417417053379,-0.167262661145415075791831,-0.0647634161281863546255622,1.06887239095882402573068,5.42031385910698304542166,1.88649881620634185530605,0.350280005827189211409234,1150.78251650851780141238,1192.21281304693093261449,1154.37320672257237674785,1172.5339225987870577228,678.237672294835078901087,428.133113050443682823243,-271.50101970105401960609,132.095682230055786021694,160.070505863214833652819
0.202500000000000013322676,-0.40111154522738423633399,-0.453451528050753172038867,0.403946618630473430755501,-0.0523891755605471118317773,0.186514231103669381184318,-0.00761316144747079936311307,-0.00771696919710099064892983,0.0152289493771450620135388,-0.107467646183080772770424,0.994061579231524938826681,0.0907963222407199843644321,-0.0585919073272893817239115,10.5050732265627484451898,-0.166987980160008431251839,-0.0644346342449932385498812,1.07054855796592507388709,5.41995628826336872663205,1.88645763016354606200764,0.352957657974613314699752,1152.36866297196820596582,1193.49151224607317089976,1153.84326931401687943435,1172.67237166167615214363,624.84149294714313782606,646.99266273187220122054,-180.46315184169526446567,-22.1295683999869439162467,160.064793987277624864873
0.205000000000000015543122,-0.871540493159493223629397,-0.635361624681886727472602,0.24122549237690599222006,-0.0536277503354447432348806,0.185836009810375790696213,-0.00742819708185038073827711,-0.00775817909310440485814997,0.0154512493597269637279901,-0.107450539381805126870617,0.994059590345528931720764,0.0853449695247990858248954,-0.0570068993018026728969438,10.5086514208460872765727,-0.166776785165703961277828,-0.0641165866018367225365182,1.0722415059805079362576,5.41959950932867240425139,1.88641853026079586719277,0.355643169653247048778155,1153.90672397325351994368,1195.44777636059029646276,1153.47089096336389957287,1172.42327475678712289664,491.930581243650067335693,762.330421038722533921828,-106.080448785860326665897,-141.408315917169488784566,160.058057025247819638025
0.207500000000000017763568,-1.22622274928325536436091,-0.784304527602873613467693,0.130091784261315068782494,-0.0560694776798056626621047,0.183977905656871110195993,-0.00753107299296454455600491,-0.00781030919410544751529946,0.0156988698099081863679416,-0.107421025794163876865284,0.994058418669225063446504,0.0793167419987815813797738,-0.0557876886335183855281095,10.512190060572143224249,-0.166632750897339254603224,-0.0638063540984045718396089,1.07394883054242562536729,5.41924417973743199894443,1.88638155658240136425263,0.358338054635429281713499,1154.82831587818645857624,1197.30316435126678697998,1153.31286707008757730364,1171.96533008209030413127,287.749989276973337837262,739.257032444542119264952,-42.3568410433292399375205,-193.785594624115219630767,160.052541895489468970482
0.209999999999999992228439,-1.50642190775525608437135,-0.89565180873223004809347,0.0576452206618115539638048,-0.0600395247596341163909273,0.180835144921964785513779,-0.00760783064884999835758572,-0.00787543168982595548355263,0.0159655931132418361928504,-0.10738951366207548365761,0.994057012079028523565682,0.0729401949864038612325601,-0.054986206692525456396492,10.5156323437775949258821,-0.16654108923356450433495,-0.0635115973737999384152175,1.07566977215696102376796,5.41889230657326326223711,1.88634610803429514369611,0.361041273868283552062053,1155.34547391963837981166,1199.14406152281299000606,1153.25910675814725436794,1171.45434678366655134596,141.326589080927732311466,687.106170881137131800642,-5.48988080395249955500958,-171.821015890237390522088,160.047130581728026754718
0.212499999999999994448885,-1.70173279078072070547023,-0.957313710154110708572262,0.0216993516984625885168914,-0.0647699101629678475333662,0.177221278596196324395251,-0.00767113498174957792602457,-0.00796005577344036964471119,0.0162430056610193100652406,-0.107365297280094196263889,0.994054441349849104980763,0.0664978163854487158701545,-0.0547388439283067254614856,10.518927843077964467966,-0.166481394112968195120317,-0.0632490187987645863243458,1.07740393433593650840407,5.41854476735009793486597,1.88631173493937231988582,0.363749648211757314886228,1155.5349488235910939693,1200.73869520567245672282,1153.28541766606781493465,1171.1062250026391211577,5.2329322822515633717444,522.489736889201140002115,36.1640082851863198243336,-48.0916845682258582428403,160.041805963160555847935
0.214999999999999996669331,-1.77853185606529740070414,-0.955694265874858173148709,0.0315812533589118413224206,-0.0695037361510194295899367,0.173951703693153741925315,-0.00788771684910709661164852,-0.00806032029771740383961021,0.0165236811243535570981056,-0.107352609204843879586733,0.994050391510776898407187,0.0602253211125663712177669,-0.0549635316945545834843578,10.5220341367760426010136,-0.166438065271610424744608,-0.0630120297143010321683221,1.07915187594698824824491,5.4182007955883069172387,1.88627735359737580544959,0.366460618375415381198223,1155.37163858104963765072,1201.75651020725899797981,1153.4399267995731861447,1171.21388836082542184158,-138.093534309245910662867,262.582743869097384958877,110.49239173448758322138,202.979629244873478910449,160.036586435907679515367
0.217499999999999998889777,-1.72683391737532132559352,-0.89913808214473978086545,0.0944347047336501210779147,-0.0747154437295824980225234,0.170864396766846338149293,-0.00824610132705577529577123,-0.0081682770943412013470164,0.0168033242614767756861749,-0.107352572217062638970653,0.994044871112383598976692,0.054278965456567740410776,-0.0554938973640535029852039,10.5249178645666265907721,-0.166402960902293145517561,-0.0627852059643769638830335,1.08091373287160608107627,5.41785960286336010227615,1.88624251303938939017257,0.369173586209460224960566,1154.84448115204486384755,1202.05160892501794478449,1153.83787962474025334814,1172.1211231488634894049,-236.919860567240704085634,-59.018166003852407186514,188.721630378040401865292,476.057099199214974305505,160.030445000474117023259
0.220000000000000001110223,-1.56370176783191450198274,-0.829466357696036937774409,0.182814314546203643407907,-0.0788771054575826274790629,0.168875695880481485611213,-0.00848850718050142734327768,-0.00827354709640615477994618,0.0170733436418912115639657,-0.107364417948010118508684,0.994038188391058952220192,0.0488927962128989090917486,-0.0560957221315521795124148,10.527556408655801334362,-0.166358714915596200834003,-0.0625465785277154462384885,1.08269131842903099105513,5.41751954440713934246787,1.88620751235262251732649,0.371889362236970333341901,1154.18703927821343313553,1201.46141937723973569518,1154.38353495146338900668,1173.59417385682149870263,-295.079113449628209764342,-390.904374166074944696447,262.118404550937839303515,722.188846904418142003124,160.025429038291093775115
0.222500000000000003330669,-1.27865007042777500956277,-0.766035810444235742977526,0.292592849764713169857799,-0.0831739758259752853808422,0.16721053532826887777496,-0.00816753999997561243306965,-0.00837453414820720463962456,0.0173282953285648251562368,-0.107381844410189747351936,0.994031123475741851258647,0.0442473236214730447635191,-0.0567187560656823366866952,10.529938113400350019333,-0.166292420496368720250757,-0.0622926327932142726018228,1.08448423683601258282749,5.4171787911701470008552,1.88617394916888492240048,0.374608224441045412067552,1153.36908558479672137764,1200.0970870541875683557,1155.14847164749494368152,1175.73206738338558352552,-380.515928831072983484773,-723.465647451120503319544,368.863371249971919496602,1042.55602745370106276823,160.020518997721325149541
0.225000000000000005551115,-0.810915767674291521061036,-0.728327933674936423003032,0.422364734471918468194929,-0.087953769141314128154896,0.165427716746872122133283,-0.00629343771936515059689521,-0.00847116480357574565263068,0.0175675922203782329533706,-0.107394930413287278958556,0.994024756470459847079724,0.0404154074823052933407297,-0.0573480994109977423867086,10.532062396641395096708,-0.166201066096274163719215,-0.0620238189687426916263391,1.08628968888069232789917,5.41683755347100337473876,1.88614368382994967987543,0.37733157603059153117897,1152.28445963405806651281,1197.84409113998412976798,1156.22785180771325030946,1178.80695399409000856394,-400.085207014307911776996,-877.649968635022673879575,397.092164349259860500752,1162.59823603063409791503,160.014749455033864933284
0.227500000000000007771561,-0.344594852160543974051166,-0.74807179926869882269358,0.512760057539160096773401,-0.0903534370485263166328238,0.164227433987321647101965,-0.00381047551468084895465172,-0.00856487541572900808184432,0.0177935657183927765923048,-0.107394115904982698217474,0.994020070202898287092808,0.0374006378874939121592647,-0.0579990522256352350471964,10.5339399729073566192028,-0.166087372731672983094953,-0.0617451935528175316347799,1.08810302744193521107263,5.41649783871274959068387,1.8861171432432002337265,0.380061948616531475320102,1151.36865954972518011346,1195.70883721101245100726,1157.13393246924124468933,1181.54505856353875969944,-346.209620400668143247458,-850.294544294091906522226,323.748358753982472535426,1071.27943732648327568313,160.010043689404938049847
0.230000000000000009992007,0.14719314213614315134393,-0.836723081583751304712848,0.583034932556135698789035,-0.0899695670991290247231476,0.163361915303927962561659,-0.00169784534183334192419812,-0.00865572349795469368760603,0.0180052947721312424367301,-0.107377346441008270083728,0.9940173068892016461362,0.03525750751659174897501,-0.0586420476037016955017656,10.5355933667873458148279,-0.165946692393646955121511,-0.0614605531982663141898904,1.08992029313534022350041,5.41616193292301950634737,1.88609439844668536068184,0.382800807788851560342636,1150.55341153205472437548,1193.59261841851366625633,1157.84659360148316409322,1184.16335118072242948983,-288.932832658792619895394,-812.010050041089243677561,222.296905768371090061919,988.944858127159932337236,160.005444637413916098012
0.232500000000000012212453,0.61630451457987611707523,-0.984749270536209198034783,0.649424480882740406961773,-0.0876280567598468063117423,0.162451267333440896312169,-0.00041103920876631633339951,-0.00874691915688938573247846,0.0182058519973061147534388,-0.10735264921708628782504,0.994015519518334333959331,0.0339484564415806905346429,-0.0593149972607162692672667,10.537055297169446888006,-0.165781383727946068917802,-0.0611842584162673799874632,1.09173578100270107782421,5.41583160456695988926867,1.88607584127180860633644,0.385547835525071491691307,1149.92399538643121559289,1191.64878696080700137827,1158.2454169980831011344,1186.4897828541745639086,-180.410795134230113490048,-718.81402328863191542041,56.1154378955506629722549,827.240828889397789680515,160.000935142525491983179
0.235000000000000014432899,1.02038728191388994304134,-1.19001298290061452433974,0.731301396041369788925124,-0.0841994971027429373044981,0.160855263224581657155454,0.000280085773534618804204294,-0.00884215950409520182184941,0.0184024475171404543194509,-0.107331846405153336077021,0.994013273798981855655654,0.0333354231014511559472169,-0.0600713178769023345426881,10.5383673248400189237373,-0.165602213733945402562853,-0.060933097774511606192771,1.09354281068767700269007,5.41550616222452951831201,1.88606158646154464797462,0.388302468069616213419692,1149.65135755638357295538,1189.99854830207050326862,1158.12717079096091765678,1188.29955532516942184884,-7.25084672299089394442717,-662.946830115515126635728,-183.462550678723175678897,652.023216668566760745307,159.996535671964124958322
0.237500000000000016653345,1.4099510995995001572112,-1.46235056042957589639286,0.861398832034103612009801,-0.0796998519902896440658679,0.157632142336181862996014,0.00117283139735853110877106,-0.00894293153367338965187283,0.018598661904962104224337,-0.107319846862260911968256,0.994009968634608997994917,0.0333383223040021325900284,-0.0609109072074310517463935,10.5395791242064920112398,-0.165412865080462656575122,-0.0607148606226335305069419,1.09533715424820843331588,5.41518381904131285153881,1.88605111644926992653382,0.39106318909919535187214,1149.88774115281626109208,1188.33405281022942290292,1157.32810424468948440335,1189.7498989375174005545,195.10314299655055947369,-575.436588574623783642892,-389.285055543225098517723,403.823511183420180259418,159.991387096956657387636
0.239999999999999991118216,1.65633104203508363383435,-1.67125295858960787320768,0.991618795665855312648773,-0.0756920275107790946345077,0.153652440306168119876773,0.00248088487772201360045954,-0.00905020855791539499679565,0.0187938450149148089662887,-0.107316367831411116351426,0.994005648544345699058056,0.0339510082029927662272684,-0.0618171055229924729101931,10.5407463411223112359494,-0.165207771799879193919125,-0.0605318801540915968351086,1.09711743951065976432346,5.41486232394863709060928,1.88604348531145915579543,0.393828558943022155602876,1150.62687327136632120528,1187.12136535919739799283,1156.18074551324480125913,1190.31867288108651337097,411.518558562877046824724,-476.418534596725692153996,-517.565459378468062823231,95.1834732801221292675109,159.987208942135083589164
0.242499999999999993338662,1.83292540180879104383393,-1.8124585530776828878885,1.12175702409909328061133,-0.0716776600744378489249442,0.148414651471570652185861,0.00482019393447533778251923,-0.00915689948955800137042615,0.0189838065092917396281536,-0.107321030939240252832789,0.994000508887933675872262,0.0352088542295074524712817,-0.0626022053543683343335147,10.5419279667664103072866,-0.164974921575702343501391,-0.0603657941578672960214469,1.0988856587975917022959,5.41453886896130143213668,1.88603720662452589706959,0.396596555817430085344455,1151.94533394563063666283,1185.95196013724580552662,1154.74027694779715602635,1190.22581630391800899815,695.74264208749752924632,-530.377152132950413943036,-631.103632939311296468077,-179.894285726959253679524,159.983152218636462293944
0.244999999999999995559108,1.9795166225564500006584,-1.86097143118070884604265,1.240216270023376976539,-0.066821168707096770256193,0.141523199987697440027645,0.00887614650369144067565408,-0.00925181946898499633913371,0.0191569927540713343117051,-0.1073306881814581476009,0.993995217978485001708577,0.0372790533004120905324896,-0.0629859234570555315269047,10.5431840827028810991806,-0.164687138606326749501463,-0.0601843416400091105189496,1.10064796670023046232245,5.41421292004591236945998,1.88603000726833025524343,0.399365695542265031203755,1154.10558648180381169368,1184.46947959853264364938,1153.02522734854824193462,1189.41920145245171624993,859.209871773099735037249,-563.732462938332446356071,-570.775632472577399312286,-390.408014836929964985757,159.978431266893039719434
0.247499999999999997779554,2.05356286349480088304631,-1.78655606118923038216906,1.28269212426875101051849,-0.062566878527960334555047,0.135959545941239462463201,0.0128775201337300356646542,-0.00933072339436605280305059,0.0193118871020561619356037,-0.107335819814851893272412,0.993990870892093592026129,0.0401226515888982726565359,-0.0628700506321525631747704,10.5445707314212828720201,-0.164338375855601515063142,-0.0599688095023788725335123,1.1024074124779634775706,5.41388602278240149701105,1.8860195340556298315704,0.402136688884979387470509,1156.24138330449613931705,1183.1332978225541410211,1151.88639878543426675606,1188.27377622973335746792,873.215850914129191551183,-543.846322214494193758583,-337.305302587719495477359,-517.468928751440671476303,159.974625298708588161389
0.25,2.07620683978414977133298,-1.59752268016321030685845,1.25030286580841387689134,-0.0580121952655003603194217,0.13115607104069743060748,0.0167798171493115620689363,-0.0093949649035194541385474,0.0194575222863953914420598,-0.107327055923763292621942,0.993988292127574002421397,0.0434809568956540104522901,-0.0623122720139202210254403,10.546137599205351875753,-0.163945119153907054032615,-0.0597137984837997418119393,1.10416345312514518894886,5.41355938303524553134594,1.88600478307600960548029,0.404911296025259603847957,1158.47166573637446163048,1181.75024798746017040685,1151.33870083560964303615,1186.83185680869451061881,935.54243948806208663882,-580.464000995288529338723,-63.3816201301669366330316,-645.505353939551582698186,159.970959053742546984722
0.252500000000000002220446,2.03246846118784141310698,-1.2643676923266131684187,1.12546808944130338758782,-0.0520936211001796628528027,0.126671442934276679004313,0.020854059814258071869908,-0.00944291991522974369366317,0.0196003431264359269381448,-0.107297992166528965984895,0.993988069574276100759391,0.0471330800719340359261622,-0.0613169789922677829774322,10.5479278581715920637407,-0.163519666908428784601881,-0.0594068878881186604457021,1.10591686588852766703894,5.41323321571193361023688,1.88598574529639662067382,0.407690529778652333003919,1160.91909550193645372929,1180.23097781757769553224,1151.56949068478343178867,1185.04624946003559671226,815.446354582899630258908,-493.89628412950469282805,237.524232080477105455429,-620.100136027303392438625,159.966728074225841282896
0.255000000000000004440892,1.92601306443276065749615,-0.92489783626126609306084,0.960280707660413512805064,-0.0467259038529535611350418,0.124108066190585286658887,0.0236734120365149521003634,-0.00947536253498992495081232,0.0197425196631564187077501,-0.107247217339950046133268,0.993990319341771955130582,0.0509454692565122213565587,-0.0599433461528156366626696,10.5499765636841544846902,-0.16306500468166165718209,-0.0590414242120567561711297,1.10766976219974555561976,5.41290846436175510092426,1.88596319864068262539547,0.410474662950663982119437,1162.54889750928896319238,1179.28076656681264466897,1152.52632199601202955819,1183.73135612855799081444,535.09676220000937973964,-267.136367534794544553733,513.986111703388360183453,-445.152594824139271167951,159.963347159642268024982
0.257500000000000006661338,1.73936452823853215932104,-0.554868093864872680143208,0.751234215731476528965516,-0.0412097889724472588035553,0.122708176410200986428123,0.0257908492743685775760998,-0.00948984420831859402933883,0.0198847863304348337898375,-0.107181978626811003074693,0.993994288442642481840039,0.0548014408260900087732637,-0.0581911347984312640746474,10.5523089695409009181049,-0.162582050806588079838733,-0.0586065475103842298265633,1.10942510525053639192095,5.41258611614381557330944,1.88593764601349445086953,0.413264502510273412649866,1163.59457931293650290172,1178.8952959799037216726,1154.13942124330037586333,1182.8204864859148983669,319.205077184051049243863,-36.0528787234670389239,711.316233686965688320925,-276.158292200534333460382,159.960121266001465301088
0.260000000000000008881784,1.49146960866487776620204,-0.182130884591746505796195,0.523173300771959004507039,-0.0363029271468922540289093,0.122254048988481398008155,0.0271850974313283810790409,-0.00948733809925357031433979,0.0200238951210170885997019,-0.10711500991537113713914,0.993998683722158049569373,0.0586730130518236248082786,-0.0561322633657792349759497,10.5549396889378055419684,-0.162062674794002853362329,-0.0581009282010541278085114,1.11118712216205017817572,5.41226671516422985774852,1.88590971284943043073667,0.416059386685328103094861,1164.14492289520921985968,1179.10050217319530929672,1156.0829031644468614104,1182.35056466755531801027,124.548218771042115804448,230.647111974030650571876,789.279721948877750037354,-76.5191405442691774396735,159.957026846430352406969
0.26250000000000001110223,1.19237977542131945440929,0.172583004225277780729897,0.292642398618876697913294,-0.0328091768471594283362869,0.122748348152283304202115,0.0276869335732431130769893,-0.00947344197842128928066519,0.0201665857389233607599444,-0.107056124589801043844872,0.994002287699131459319801,0.0623350096302085210364652,-0.0539666414932764640366436,10.5578709835155066798507,-0.161520927752959952972134,-0.0575369125343879184164564,1.11295666783469915372962,5.41194963796554162627217,1.88587959683514694297912,0.418858249057726839126303,1164.21732040679171404918,1180.04853153977387592022,1158.08581985304476802412,1182.43789078319355212443,-23.7617837195557299878601,565.112950894671939749969,807.554355265164531374467,149.019563947604041231898,159.954093875249441225606
0.265000000000000013322676,0.81579636326760240905287,0.558964884756695923329062,0.0333307428665983590532207,-0.0302998256320130068819374,0.123942723235772461753967,0.0275725503219541381860758,-0.00945958281649434719329239,0.0203194643876342014021663,-0.107013114815698043291725,0.994004057850870648138653,0.0655825210621643894803867,-0.052020144086856838494537,10.5610938058557461971532,-0.16097027572129227190878,-0.0569416353626263985199252,1.11473456852345531586934,5.41163477821235971987335,1.88584876488727459786787,0.421659043001625766233786,1164.02611397661144110316,1181.9260669276686712692,1160.12067494077268747787,1183.09566248729333892697,-69.3730303110441468561476,777.259580776307529959013,635.198290875450197745522,307.409880811473783523979,159.95076393395129343844
0.267500000000000015543122,0.51764831812265665877959,0.838884250655706487087571,-0.160178565285967383635679,-0.029325038539988388525126,0.125420632665968007080082,0.0271564922882499178158344,-0.00945089962461515172009729,0.0204835479669389849965988,-0.106988101790498835175214,0.994003743814643958565114,0.0683215659047848589136009,-0.0504744844517911947501254,10.5645884090388690879081,-0.160414646419131112775602,-0.0563281928033123324706111,1.1165241767578215625889,5.41132319245017257003383,1.8858188351267430871161,0.424460605265088664062034,1163.87045525523649303068,1183.93482944365541698062,1161.26181130742202185502,1183.97494018725092246314,-11.2009441296322513892392,845.447991539184954490338,313.980301878245597890782,383.801889936875909370428,159.948148647148514100991
0.270000000000000017763568,0.263971367215849461729249,1.06364058240656467191343,-0.326995953345868228812066,-0.0290921445434487516146227,0.127807599853982767346139,0.0265168343141674589524825,-0.00944920040340464090222738,0.0206617502616292351980132,-0.10697688557361373362653,0.994001778037589156511444,0.0704210154832331236551823,-0.0494416172878976226123804,10.5683244387534092112446,-0.159864225609947646633557,-0.0557038739384901684936757,1.1183281620251703802893,5.41101667732669877608487,1.88579195205822713887756,0.42726358621476934196437,1163.97010925596327979292,1186.15330688536460002069,1161.69057645016391688841,1185.01467193697772017913,138.708267797028270251758,968.338302024220865860116,40.4787075776311766617255,457.051240331110932402225,159.945700622260602585811
0.272500000000000019984014,0.029883634566877190219536,1.25559278450557654238651,-0.495993748779511023361266,-0.0292766229272893238610997,0.131514050771545154550068,0.0253892836728364518217305,-0.00945195281393245052836694,0.020855512961770589913657,-0.106975474643950990705221,0.993998649528416988729873,0.0717812225933665837285247,-0.0489278779493933710376119,10.572262369268075943296,-0.159327444187462308189396,-0.0550686975726371735762044,1.12014919521916866962385,5.41071582153976748941204,1.88577100406648323627223,0.430069659036339480007172,1164.56399659422163495037,1188.77652095377652585739,1161.46420484531017791596,1186.26019638890647911467,301.775102487226547509636,922.239632856689354412083,-165.365567851540475885486,439.320842805954782761546,159.942957839472114756063
0.27500000000000002220446,-0.10093807001826134162048,1.34342384357082633705716,-0.610550424979703465488967,-0.0296267201038066911589208,0.134670364949435877877093,0.0241539832725758789322423,-0.00945533952029330680699726,0.0210619397437684027774019,-0.106977272308650436793975,0.993995228662379770590007,0.0724031653110750461621592,-0.0488883964644466276205925,10.5763553418572424646982,-0.158803791186927667489215,-0.054420131261290985436041,1.1219903070695229629905,5.41042062480600804974529,1.88575730458037149617212,0.432880279570434178815219,1165.47898476839941395156,1190.76450504964805077179,1160.86374861090621379844,1187.21127615100749608246,433.154591350330122168089,728.160942546082196713542,-255.525739019185266442946,359.41506312360581887333,159.940835471632595954361
0.277500000000000024424907,-0.164681182929296343608883,1.35076535306941236669331,-0.696435017744909345971394,-0.0300506041330233508723779,0.137544578867458855420125,0.0226660629329358577488396,-0.00946025584185351126054186,0.0212783015511644607586916,-0.106971475456859921315811,0.993992773910889027000337,0.0723084846226294541970958,-0.0493608415277884751692916,10.5805509835974582699691,-0.158292213372606987986657,-0.0537663064943303403708796,1.12385285471837148563168,5.41013146146912848877264,1.88574927985045048828283,0.435696899798600045805586,1166.72976955097328755073,1192.41732566650694025157,1160.18657615021425044688,1188.05727170452450991434,579.052791659159424852987,638.227417553252394100127,-231.822737588436012856619,365.565728079945643003157,159.938883491903027334047
0.280000000000000026645353,-0.166984256048243129288977,1.25696026407366057142667,-0.763054543631335180364772,-0.0305553949270255462145052,0.141074885950310258131424,0.0205577284614363239856338,-0.00946622648375379516227923,0.0215040403552126044295356,-0.106952984278006188456622,0.993991863091263971874412,0.0714812720668633327925079,-0.0503364493980692287444789,10.5847933894445045410748,-0.157795979984767964499071,-0.0531147923894779647180364,1.12573645622946982847168,5.40984817329982448086412,1.88574594627524261269969,0.438521353100753408238432,1168.37424872669521391799,1193.95564213741431558446,1159.7046349229640327394,1189.03910479140722600278,582.089654330592907172104,492.694603618746896245284,-74.5268285775181738017636,375.996627500989802683762,159.93673892736487118782
0.282500000000000028865799,-0.110192674514102251226433,1.08243936589740918918778,-0.785260099263436650574022,-0.0308990016585830168382998,0.144370684184422809481774,0.018398566493567632823547,-0.00947579885115228809366883,0.0217387741051425983918044,-0.106922428532399499401251,0.993992366675261362907179,0.0699197161039820380690202,-0.0518471475098686920834901,10.5890253567267293988152,-0.157316930472510940752784,-0.0524812359984030973869551,1.12763969942275688040922,5.40957029599557781551766,1.88574736634612127872401,0.441354493233539812990784,1169.64021782262625492876,1194.88079868460067700653,1159.8139420073266592226,1189.93725484202946063306,431.181317245909269786353,309.660014462678816471453,176.345551453687050980079,401.72560333544390687166,159.935117096162798588921
0.285000000000000031086245,0.0038605010369755984878104,0.797329824966023670285153,-0.77210659192985686694044,-0.0310050228124791396600024,0.147709272741374852966345,0.0158088312086432161707172,-0.00948800624991907697036719,0.0219816871810842827394961,-0.10688569940921080481111,0.993993537639251245607852,0.0676338138106771513680116,-0.0538274780610159195304298,10.5931902844260061868908,-0.156855526978910836399805,-0.0518737679569529555601015,1.12956135839312854507455,5.40929666492354144224919,1.88575357209362004518027,0.444195930741193734103689,1170.53015531292476225644,1195.50394220972771108791,1160.58636268023246884695,1191.04773280808444724244,260.918852053600630824803,214.605552089551366634623,413.831430286381532823725,491.581500507026703417068,159.933667242613068992796
0.287500000000000033306691,0.162829770810180574081016,0.422081715814474511816456,-0.735321979579422801975852,-0.0307178086343164284677254,0.150476430707280978138485,0.0131875702176424084571815,-0.00950291629800705840713793,0.0222172041994041676027383,-0.106856247702144968592108,0.993993989444171388569771,0.0649564296085766712529619,-0.0561789806792061738316413,10.5972349611735658925227,-0.156377231393762694544591,-0.0512997719477631952678109,1.13150521079814958547161,5.40902571008807075969571,1.88576316447788516761364,0.447042238728448837470353,1170.94481208289425921976,1195.95382644504843483446,1161.88309915875856859202,1192.39516234456459642388,28.8211512347973659586842,159.808854713357305854515,613.271979108646405620675,595.063909570677992633136,159.932360132380125605778
0.289999999999999980015986,0.373985161976852220622192,-0.0420852945543429834973637,-0.688437852843268194291682,-0.0298610801813796455927985,0.151881160081059507493961,0.0113248889724318537591818,-0.0095178057790130995291511,0.0224298782003376599714084,-0.106845527995477876381791,0.993992399438060503236159,0.0622229526651421060989833,-0.0587302209307394643134081,10.6011104551254682348826,-0.155847541383502041778542,-0.0507577869713853047084484,1.13347569273823389757183,5.40875500207647164074842,1.88577522079877302196849,0.449889368949990098300873,1170.67426106909874761186,1196.30298648329448951699,1163.65272257577566961118,1194.02305235593780707859,-278.314657688682132175018,156.947092249403567620902,828.166541308254863906768,756.881944959567135811085,159.931224753230935675674
0.292499999999999982236432,0.688313117552882491878563,-0.654882346678642646153889,-0.652969200809073946345507,-0.0285517585057177628038438,0.151190339271808527055185,0.0105542893483739283477796,-0.00952715140591629990052258,0.0226181305314932731831412,-0.106854246262152174917759,0.993988097686317462198247,0.0594826410080909195876586,-0.0612750131085176077960774,10.6047725208534000529426,-0.15526395154937511211557,-0.0502382037596571032200821,1.13547321068932061116641,5.40848304489997833144344,1.88578958320333067710806,0.452736562218502669452391,1169.55323879445086276974,1196.73856190629544471449,1166.02393186529980084742,1196.17957206936239344941,-524.08567316047037820681,176.686221068893985375325,865.538099919921592118044,793.02545273935652403452,159.93005922821839703829
0.294999999999999984456878,1.00182531198999402732852,-1.16905977562212481934978,-0.658770098954417848702292,-0.0272713531429373164105545,0.148553391332184953066431,0.0105206505642136630834793,-0.00952697359353619002697577,0.0227849164347116578399621,-0.106877361868584597193177,0.99398100885731444087412,0.0567029507033864899057107,-0.0636453412232022008865329,10.6081833762793174003036,-0.154634126282108042005348,-0.0497320959188774294745805,1.13749624158282336416903,5.40820974847598190393683,1.88580620056675551943215,0.455585454034505010767475,1168.05383270329639344709,1197.18641758863896029652,1167.98041307537528155081,1197.98817961963459310937,-674.931064264591782375646,201.926935399614933430712,736.943067887613551647519,679.618539145530462519673,159.92925007788019797772
0.297499999999999986677324,1.36271870934457783874905,-1.63798834463847930997815,-0.701950652165026611761789,-0.0252852538656596903532403,0.144470037767814168949698,0.00979966849865128095120603,-0.00951096586248579949074422,0.0229329934666751555916164,-0.106909502640841119758264,0.993972272179139082481925,0.0538591812079512732847064,-0.065621516225675996514255,10.6113133620781727728399,-0.153966383206796203486633,-0.0492226579303762235007014,1.13954248411783831684829,5.40793625103307551427179,1.8858233986399495218933,0.458437588413346197580012,1166.17858347312790101569,1197.74819658329352023429,1169.70864720473787201627,1199.57766476509004860418,-850.811959084921113571909,260.742181431942071867525,684.735134248011831914482,597.249918890974527130311,159.928605871039707153614
0.29999999999999998889777,1.82713580248668661099032,-2.1042711446622286430852,-0.772474892636939802770257,-0.0216164211172872981758797,0.138476856629968614331716,0.00761079174907585039033808,-0.00947687690337872638834948,0.0230582173613272586876199,-0.106946177194236879959277,0.9939631746852140015136,0.0510894175755960411322576,-0.0670560106656589716145334,10.6141426864587593570377,-0.153253399696801406726365,-0.0486984968645695140421203,1.14161011797093281394666,5.40766428016614941753915,1.88583873535973833845958,0.461294776186193467015784,1163.79977290787178390019,1198.49012849579867179273,1171.40408874661534355255,1200.97442921408946858719,-849.15692556951319147629,263.233225421481392913847,558.142035259560998383677,399.71174620800377397245,159.928018436538678770376
0.302499999999999991118216,2.21191365706719933470481,-2.38871035125398245568817,-0.823194311217693708293552,-0.0172811186991408266555581,0.13259748811554605829599,0.00506422304630261329444485,-0.00942953984251976989883204,0.023157983362887324396695,-0.106979788603004208336067,0.99395501631281346632818,0.0485238403538241491741445,-0.0679625264979358267858345,10.6166614725559718124259,-0.152491087483045129058468,-0.0481619507170851016142343,1.1436947920528204303281,5.40739731515327992639186,1.88584962265491129507211,0.464160649868030239506567,1161.93279884528033107927,1199.06436271040092833573,1172.49935738103567928192,1201.57622349613006917934,-678.814261837123353870993,190.966148001325393579464,383.460437028133696912846,111.923572474370203622129,159.927679083994604525287
0.304999999999999993338662,2.55082905086893063639764,-2.54561828117054922415718,-0.843530320479284112522578,-0.0113217091839806650171996,0.125969948279666371648844,0.00237990717560938608993171,-0.00937697824482278813329472,0.0232370719063249853153508,-0.107008177361701692364981,0.993948137145161170202812,0.0461501297352889805480913,-0.0684477000857180439830074,10.6188695069468579390559,-0.151692130860591495311596,-0.0476245355762787009323844,1.14578833987303485564269,5.40713714105624543293516,1.88585519999037987126655,0.467037185476144089957273,1160.40570159868616428867,1199.44495923580529961328,1173.32139093175601374242,1201.53404707646132010268,-561.347570300358256645268,92.5928887412736969508842,313.861982542948396712745,-151.669307105157571413656,159.927489299619907114902
0.307499999999999995559108,2.85217702236787529201933,-2.57729197950582333831449,-0.821339588203903181451437,-0.00244425227972490562156072,0.117749065039296482715336,-0.000510265196078646355790087,-0.00932711241062724599748535,0.0233031282856672773695639,-0.107030316070426359531531,0.993942558782755170021517,0.0439015405876315434330337,-0.0686356123611114865568084,10.620776417594925078447,-0.150876383060248864254049,-0.0470979899639853982762361,1.14788113383469148054417,5.40688415195140059665846,1.88585568052600938138141,0.469924140186107675010163,1159.1260609937785375223,1199.52732715410729724681,1174.06866729375042268657,1200.81787696060428061173,-367.809564969365624165221,-45.2263649278392705355145,239.237077670622767300301,-345.666537778788267587515,159.927426287991238496033
0.309999999999999997779554,2.98578869784706979473299,-2.47653389009550517485536,-0.763481488847227551808317,0.00568292375035147484529929,0.110984938803494095904689,-0.00249219416245540469068143,-0.00928356995430415846137784,0.0233670785078061368778002,-0.107045395539267951257045,0.993938146228029784090552,0.0416374286455674369467062,-0.0685821535835653417478852,10.6224006007398283912835,-0.150072233073747479670246,-0.046585298418597771707983,1.14996305922910524444092,5.40663800112971504319148,1.88585129608036372594881,0.472820488067131172726931,1158.56665377383933446254,1199.21882741116610304744,1174.51757632010912857368,1199.80571438756737734366,-121.658232066738378307491,-202.699926417699145986262,137.168376033423442095227,-448.966983476838834121736,159.927505342769165963546
0.3125,2.97982239857857589271362,-2.25970642496103923946293,-0.668251823696570212973711,0.0136653644421594715196999,0.104792259910268456546412,-0.00392449479571847607839441,-0.00924332116028690059517103,0.0234350726299920909811991,-0.107052358869222791204479,0.993934899976360641815631,0.0393062241152170865898796,-0.0682072991524226013293486,10.6237682373281590031411,-0.149298069576918185363823,-0.0460738089405324791059115,1.152026898508716312719,5.40639774928269378762025,1.88584297696804314981023,0.475725726234630719169161,1158.51776983344484506233,1198.51382752201880066423,1174.75450917391754046548,1198.5730420432200844516,55.0025688180084628697841,-337.020259047994557022321,45.8506513849897174850412,-499.975397157094903377583,159.927715227592216251651
0.315000000000000002220446,2.85792129916773030018362,-1.9666152067746596188158,-0.543724735866962682884207,0.0211823515037918262693406,0.0994390762641601533289304,-0.00502905421936251234571458,-0.00920815382058382675412034,0.0235096894548687262993525,-0.10704918993282315498039,0.993932922260646889434099,0.0369437302282366875072483,-0.0675399219363146396943876,10.6249101943500736666692,-0.148561499455820950066354,-0.0455622577007341530985762,1.15406785257679356249128,5.40616112894753442219553,1.88583284809575890683675,0.478637843962200548730834,1158.84166661792937702558,1197.53372611592612884124,1174.74682957703407737426,1197.30583740178190055303,201.230014339307501813892,-432.687145602767088803375,-84.476954891169881989299,-490.008713996166534343502,159.928030199581002079867
0.317500000000000004440892,2.6066731869455765924215,-1.61199871499893498949518,-0.381343150489711679718141,0.0281001374997064158611781,0.095172233780694115434784,-0.00619434342754159993765795,-0.00917182264371412502013126,0.0235929283000875164577614,-0.107036724613009476270165,0.993932070058593963857163,0.034576973620013440324783,-0.0664505287339855754691342,10.625858538763692351381,-0.147868724463895706566774,-0.0450333617814511061316907,1.15608379029544772187421,5.40592558794310829028973,1.88582396513629402257095,0.481554802748426546976646,1159.52391990514138342405,1196.35039179400496323069,1174.33212439946169070026,1196.12299847323924950615,355.89369417093587344425,-521.915170943202156195184,-301.837317095578043790738,-486.904414285117582039675,159.928468832921851117135
0.320000000000000006661338,2.17821740218189097149093,-1.15725183870677916786462,-0.137325858676209833220128,0.0355918150473759214991176,0.0913061789009761703983514,-0.0079798363235933887638307,-0.00913515513248444425975503,0.0236860999688747811409151,-0.107015231605358931976646,0.993932201488307520698129,0.0322583850666125215855828,-0.0649694988362817249516468,10.6266424718865160059522,-0.147220765547807386219858,-0.0444878131763355999517273,1.15807451400629179971702,5.40569018135007972603034,1.88581886116817476484186,0.484474707849559482752966,1160.6211350887840580981,1194.92415026121011578653,1173.23764299155618573423,1194.8713153303563103691,429.100354303363531016657,-485.147344947471992782084,-508.733372652431626192993,-433.257182461920422156254,159.929135548615704465192
0.322500000000000008881784,1.73846061854548028513534,-0.784186204235377992688427,0.104240544238076535132898,0.0408018182921422514763954,0.0890123672143194322181614,-0.00935752048852332013462174,-0.00909445584567445189372314,0.0237879793452472690362676,-0.106985996384291320859816,0.993933167840268305681661,0.0300750629096879773527462,-0.063035265347119950885002,10.62728496974783176654,-0.146612301698986452480611,-0.0439173210634991942336036,1.1600428338818680185085,5.40545506411813914127151,1.8858195276585756339216,0.487397061450721980069289,1161.66942167665820306865,1193.92465506926760099304,1171.78845753619953029556,1193.95671256092964540585,426.872821814913152138615,-313.944960203116067987139,-681.170023097001262613048,-350.432407912148562445509,159.929807172102670165259
0.32500000000000001110223,1.24861043660924497800124,-0.452065692049873624203116,0.36407167239164400784901,0.0441994909169654420777462,0.0875122057801371727725481,-0.00946742918605535457854394,-0.00905371306611272436137838,0.0239031983999397519558006,-0.106954143194999504173914,0.993934202447355863441203,0.0279956017789535771544962,-0.0607683353461051026234152,10.6277978589722739144463,-0.146048274060905231008789,-0.0433350404648750395231183,1.16199101477759803024981,5.40522102656196068437566,1.88582597946727692495017,0.49032230121965175717591,1162.75549919785862584831,1193.3544254601945340255,1169.83179287607117657899,1193.11915329079556613578,468.416899334760785222898,-107.644230542018604523946,-941.3547523376556682706,-363.173775850463812275848,159.93059925568701373777
0.327500000000000013322676,0.647865696583024286425712,-0.141290961714141904970177,0.651407273966205457860212,0.0458059295528242746420311,0.0868805076683037275087074,-0.00750187388266682162601962,-0.00902061169414482798278865,0.0240367682279819562529699,-0.106923768232771415620519,0.993934620355445663797411,0.0259755032627201343231604,-0.0583744629130297856822729,10.628179636298932919658,-0.145533043183137061893362,-0.0427632638485914637338503,1.16392237322022773504671,5.40498850312367995485374,1.88583741991857611886019,0.493250682310318211420963,1164.01150617333200898429,1193.38643391655750747304,1167.08168377451124797517,1192.14084368167732463917,442.168577212987258917565,149.495316406591740587828,-1036.66002042609670752427,-357.572135362988433371356,159.931690358083301362058
0.330000000000000015543122,0.161822192991670416040151,0.0156192406902752045638749,0.835417831050204617859833,0.0454304942863831204280523,0.0874383377370470116218826,-0.00464129483125652608777045,-0.00900229559142558082018848,0.0241872621751859848138189,-0.106903028284973111716738,0.993933472404528006727276,0.0240887445095228081015648,-0.0560364283700367990515012,10.6284142563965939842774,-0.14505566789169802022208,-0.0422225299531349615445031,1.16584323843330328607237,5.40475855202593269410727,1.88585236289724811342694,0.496181041060983318846667,1164.96634208392356413242,1194.10190204222749343899,1164.64849277394068849389,1191.33129261398062226363,352.293481908872877284011,429.511544112437661624426,-952.233939194638082881283,-319.934542468763254419173,159.932718281185117348286
0.332500000000000017763568,-0.29835258566127803581125,0.0392995915604087697747815,0.933044637822390665604644,0.0442519806663034948046587,0.0885562535039763343291952,-0.00139512689673368188957026,-0.0090027084587198692722243,0.0243507181281892026714075,-0.106894364297295707544322,0.99393052704978557265747,0.0224404942574103205554792,-0.0538690861179126831426167,10.6284691876621657513624,-0.14460026807927786607344,-0.041723551598840662169021,1.16776155687850002884431,5.40453152361601407704939,1.88586902572831704993916,0.49911326919498932852548,1165.77297358287637507601,1195.53399163711969777069,1162.32051407853805358172,1190.54117096933350694599,310.4158008848114036482,768.170084032589556954917,-947.886256410810460693028,-336.418017826872244313563,159.933871490472682808104
0.335000000000000019984014,-0.832710542424046074039268,-0.0996658185202430324522993,0.940274653206022881235526,0.0430469646859608298661293,0.089788375968519351655317,0.00246732512559700396456708,-0.00901705401965560530974653,0.0245210598300816783046141,-0.106893608715881605064624,0.993926404464934187821257,0.0211456778159315461618206,-0.0518029768166361134773545,10.6282948397031198339846,-0.144148419785566417328226,-0.0412538770924926814775979,1.16968658871731223669599,5.40430583634835581818834,1.88588734570765859110963,0.502046666737214652975752,1166.51842108834762257175,1197.94275246239044463437,1159.90906149188663221139,1189.64920252484625962097,231.321060581012517332056,962.617023578558473673183,-791.52784159309635469981,-311.386653294357245158608,159.935402981388392618101
0.33750000000000002220446,-1.27621819202309350060887,-0.349977115040597308581738,0.862091538787196909332522,0.0423325522315718197341461,0.090319528698782722275773,0.00544413411467966571605226,-0.00903657506925208998949106,0.0246880968390953345337202,-0.106895395188103370376353,0.993922001600813564969883,0.0203812848692265791150646,-0.0496787477883159980796002,10.6278255522454490034079,-0.143673030768576848181795,-0.0407895710783038392688304,1.17162868736643388523078,5.40407999241636716192261,1.88590680131799826035888,0.504980860373706263999338,1166.92957888578143865743,1200.34707675501249468653,1158.36287487057256839762,1188.98423770286171929911,120.492582308815940450586,991.485248960133503715042,-500.731789031805874401471,-237.907942104811610306569,159.936804524787817172182
0.340000000000000024424907,-1.71588921773948643867413,-0.71652423264104059263957,0.720119504935335608131197,0.0407429794015861310163551,0.0899019453339944818459628,0.00765400144230481659091136,-0.00905102874410754903999887,0.0248413166431446508219949,-0.106897562939085338795664,0.993917902327262070549807,0.0203118000133784004646031,-0.0473066361304485052952096,10.6269808694103904400663,-0.14314653923796055723372,-0.0403028849206413866679277,1.17359741474073819844648,5.40385304624232709613807,1.88592693231421071331511,0.507915566035806009814735,1167.12088399989170284243,1202.90017870719111670041,1157.40540254672760056565,1188.45966281432220057468,44.6737619945451598368891,1006.9160931954675106681,-280.2800877941533599369,-173.79066682319702863424,159.938339097205897587628
0.342500000000000026645353,-2.12733574316281215388358,-1.15001079170897391179551,0.550432122617862007452061,0.0369959642142174277568145,0.0883606357206998122011399,0.00878626424226124601302157,-0.00905287274730331645300474,0.0249728273641886752698404,-0.106898103953032910795606,0.993914593179494265662299,0.0210389897878953402443614,-0.0445627582341902375717702,10.6256681001423025634267,-0.142547355781811352359867,-0.0397721520988745871894032,1.17559979870842079563431,5.40362470287444196515025,1.88594662946129121294803,0.510851486746422334128681,1167.15294769575416466978,1205.38165722098983678734,1156.96147443160180046107,1188.11528436874573344539,-15.9920359082661747152088,938.063295745950313175854,-63.2270627145316552741861,-77.7504777330704399673778,159.939986397237817072892
0.345000000000000028865799,-2.45352462412472860364687,-1.61735160156182766755251,0.377027419076502501305015,0.0304744567423266728145581,0.0850929371186763539025577,0.00878577279645865495683044,-0.00904123501694200151779235,0.0250767677884553633060882,-0.10689266568031573212405,0.993912707082566071470353,0.0226264707378687202066203,-0.0414724767900360238859214,10.6237865115690031103668,-0.141858159359150415301798,-0.0391906891911443164278062,1.17763970005664164730774,5.40339617503747859927898,1.88596516619016241200768,0.513790766017011901745093,1167.0409238203503718978,1207.59049518592087224533,1157.08926723315494200506,1188.07091042565684801957,-70.5478138233501681497728,878.81999940986963792966,155.197281683649492833865,64.5614916370959122104978,159.941772777276241868094
0.347500000000000031086245,-2.6846167024951439472602,-2.1508414969188311971493,0.187523098726584375173232,0.0210244651229951548532249,0.0790310094161250781263917,0.00836830871310460105982898,-0.00901439925563318235346433,0.0251491494698311973676752,-0.106878791941978329438356,0.993912637021262312941872,0.0250878706097561465782064,-0.0380494919730766031906732,10.621231866609106120336,-0.141067655871723068861101,-0.0385505579708382631332064,1.17971780739892317946271,5.4031700642727287231537,1.88598231265179805404841,0.516735798389982181610947,1166.80020862663741354481,1209.77575721803918895603,1157.73746084002004863578,1188.43809182693121329066,-101.23319384911147267303,714.085856294513405373436,283.065992417550432946882,205.979761711432558968227,159.944081540542470065702
0.350000000000000033306691,-2.71776253247668719836838,-2.52768402606628628248586,0.0468480201607024485110919,0.0128178253564517116019905,0.0725150792621706008489468,0.00823351435706948762971447,-0.00897021441601768797224903,0.0251987524420103671529692,-0.106857277438350731224581,0.993914102883263539389702,0.0281604923085181924058418,-0.0343281248283004644661354,10.6178999776153233369769,-0.140196263233004103643253,-0.0378469213510561758306849,1.18182839453282384489796,5.40294761965746417331502,1.88599938339604200621125,0.519688618855388084760705,1166.53475785110481410811,1211.16092446739344268281,1158.50459719524269530666,1189.10080923421401166706,-122.15913001505339252617,462.931165212426265043177,301.720467909902595238236,326.154641726728812045621,159.94614630482021766511
0.352499999999999980015986,-2.58387097536404342079663,-2.7937195826654237507114,-0.0859474774228627391714497,0.00518678953869714919749923,0.0648685789852104788266729,0.00863073450163199737406039,-0.00891149151916708660847721,0.025231512406022064270994,-0.106831549709008988280345,0.993916567055372124350754,0.0316510733806253663491503,-0.0304408403126845625297214,10.6136946355005061803922,-0.139258246543760094704467,-0.0370869638884922525612353,1.18396388559696696951562,5.40272966376023777712589,1.88601704636452849328521,0.522649817138072458888587,1166.18941297656215283496,1212.09041304410129669122,1159.24606317956954626425,1190.06886503556484058208,-183.522365014188892473612,311.061678562058204988716,262.943117739271599475614,463.938748191371985285514,159.948360887986211764655
0.354999999999999982236432,-2.26067776489027139064092,-2.96185245306743905047142,-0.247333113270771065561604,-0.00263376745604144719276052,0.054671213197564141883511,0.00966290246694600021837296,-0.00883827436077375822032209,0.0252489486534236140524712,-0.106806912893558300647889,0.993919427565371993438248,0.0354548490572420549327148,-0.0264502956899058741524478,10.608532214794458070628,-0.138259803922268664777562,-0.0362712352327522538630866,1.1861160985354703978345,5.40251714800738991328899,1.88603466302760525152848,0.525620501078999380339951,1165.61714602603387902491,1212.71623286020371779159,1159.81931278393903994584,1191.42050297517084800347,-248.888584149017106028623,155.19500290452000967889,126.831633230904003539763,495.575347311159475793829,159.951195599841355488024
0.357499999999999984456878,-1.89245495527783003097966,-2.97970237767230150538467,-0.379424147958081992015877,-0.00791314786992718989522277,0.0459920438102538464697489,0.0102925291182635950115731,-0.00876014749655071832401543,0.0252464355751719563003554,-0.106793305993135217990542,0.993921649443796129119733,0.0396216638306896018484338,-0.0226022836764114207208642,10.6023465457715619919554,-0.13719135842744500930479,-0.0354229827099155972214284,1.1882767451034792483,5.40231155910081195514749,1.88605094179183740976669,0.528600294706589202142766,1164.94497005581706616795,1212.86638805862389745016,1159.88022134572406685038,1192.54674177212064023479,-321.535770782838596915099,-10.2838808234991940793179,-77.9896805907355172848838,410.599699646899921390286,159.953708278444025836507
0.359999999999999986677324,-1.47326861125287322806798,-2.90186468889629001211006,-0.48211589115123826276843,-0.0116459340878395448126703,0.0382947235364731186635368,0.00949954244968606413557222,-0.00868778586014720168029246,0.0252248451733214536230054,-0.106798168522507674893518,0.993922315708062997785532,0.0440954394029411389510642,-0.019174369151428651003588,10.5950902522580765463545,-0.136057001248267028792327,-0.0345698056396566560932726,1.19043517635046303126956,5.40211409630732308784218,1.88606606243214858231738,0.531588502911335414324867,1164.00946717211968461925,1212.66481345608622177679,1159.42936438098536200414,1193.47350147340534931573,-474.518633739762265122408,-170.303193546078404096988,-307.033567575171844055149,323.677693988792896107043,159.956380134137248205661
0.36249999999999998889777,-0.971515240000775603945726,-2.75779035067380506873747,-0.52338870040318885568098,-0.0142243887397811297201855,0.0308119242745849356013288,0.00688452143164550774828703,-0.00862431314259155465395956,0.0251881849074821542733282,-0.106822824500241886358509,0.993921153171525073588555,0.0487476384193988032667022,-0.0162880317137044025588288,10.5867366043427608701677,-0.134870673785069755679089,-0.0337220001919874903806296,1.19258002719759348408957,5.4019245055075844064163,1.88608109480055974316315,0.534584522372436254933348,1162.57237688711825285282,1212.01487209089350471913,1158.34505350784820620902,1194.16513024206460613641,-568.942569023965461383341,-314.825763957787501112762,-465.370972664913608696224,167.745294801261337624965,159.959773620438284069678
0.364999999999999991118216,-0.591163119749052667906142,-2.64035404548926910806017,-0.459646047579656602533049,-0.0150427083430133712999011,0.0257619560623931938281306,0.00424781496721891166368223,-0.00857389869216991160061347,0.0251462863857936508305002,-0.10686468301927964930087,0.993918152762989448589792,0.0533407772707468474937542,-0.0140935447741063132887085,10.5772808817829755412276,-0.133659594285385152634404,-0.0328942114837222354672974,1.19469865480717918337916,5.40174121538540497056147,1.88609830022938251836706,0.537588646625642763154929,1161.16475432699985503859,1211.09068463629728285014,1157.10250951766079197114,1194.31222794741165671439,-578.498050487768864513782,-468.850569103824057037855,-528.051534879204609751469,-30.97417236026555542594,159.962759727785424956892
0.367499999999999993338662,-0.278205124860601116232317,-2.56287605119697925459832,-0.278874212961560341561551,-0.0149300276294593997628013,0.0213498117380273924603706,0.00204190232045700723745307,-0.00853622859586568652479066,0.0251066040278737911961571,-0.106915167477893216507745,0.993914048696430851848049,0.0576898690206584796591471,-0.0126344764522387034699769,10.5667406203084084381771,-0.132445782626484126476285,-0.0320897040801016997235706,1.19678010899606479533475,5.40156269779584441437237,1.88611953610910143552815,0.54060018726587399928718,1159.67988663467940568808,1209.67061924537438244442,1155.70479583345218088652,1194.01025938026327821717,-575.681053344396332249744,-668.231780957966634559853,-551.824277438162880571326,-182.893700004524191626842,159.965912379757895678267
0.369999999999999995559108,-0.0284223695755839722565383,-2.52669376512564669567951,-0.00721824050669476590530449,-0.0143916965698606211937483,0.0169644158387873902893439,0.000451725231531519748427034,-0.00851094841311599362154716,0.0250753408869405745862391,-0.106964318850433184882043,0.993909760722240798180849,0.06164680618991122407202,-0.011940861758443353790593,10.5551545041722594220346,-0.131247085120036188765624,-0.0313118587072194753950782,1.19881503392351973502628,5.40138805838152791238826,1.88614517236848544534666,0.543618050897058169290688,1158.28634906027787110361,1207.74952573150744683517,1154.34338813046997529455,1193.39775944738903490361,-492.266496881074544944568,-905.321869160478968296957,-498.372438245359717257088,-294.58606182379270421734,159.969204820046684289991
0.372499999999999997779554,0.151756522512083574794062,-2.52401250553726930192511,0.347068375532796791205215,-0.0137768787605911519067448,0.0119500463810244400564287,-0.000305357218929769845018607,-0.00849906814792399621649732,0.0250563785950686755688022,-0.107001305618097425353952,0.993906355038215338915109,0.065124774570722882005569,-0.0120552166958278542119309,10.5425803863386633452137,-0.130074159290710256176027,-0.0305669145824739654782043,1.20079617132966953718665,5.40121606682220800621508,1.88617510763198237278004,0.546639881819523387740389,1157.21855415027403068962,1205.1440098995719836239,1153.2129336422253800265,1192.537329071144313275,-344.927969208674483070354,-1305.49392625248287913564,-405.145801143998710358574,-400.6417895799582993277,159.972667948441028329398
0.375,0.308507219532619281210373,-2.51321042860021348630539,0.809736357464242217929495,-0.0134605509467281905799929,0.00486455841924820792804285,0.000523289073373214320972213,-0.00850395039476801659072969,0.0250503979348833671902952,-0.107017015361776976489772,0.993904774654340683603948,0.0681166114990909288273713,-0.0130496163479397811468807,10.5290925178066228085072,-0.128928110125133166263822,-0.0298661981518857921891197,1.20271857599004428074352,5.40104466864491783439917,1.88620894904888203313931,0.549664495781505557658875,1156.56170921423449726717,1201.22205610024502675515,1152.31765912474998003745,1191.39455049948924170167,-113.895898616738023179096,-1552.63566539133398691774,-233.134237042304249598601,-416.574390967616238867777,159.977023913985988201603
0.377500000000000002220446,0.405837061405883214870727,-2.45640688840958398841963,1.17084742686666420929953,-0.0133890673049602264982338,-0.00170097626436191699979272,0.00363633302143281456411672,-0.00851746006863458859914573,0.0250531864081781248387859,-0.107010561013325997126167,0.993905289026292604326329,0.0706954354030448206547277,-0.0147292865572158163112171,10.5147771173304569458651,-0.127800116773930522162672,-0.0291933576293375018906318,1.20458025375141586366112,5.40087272454771039065236,1.88624560181704992167795,0.552692239795529949297759,1156.64907465719034007634,1197.3808315726153068681,1152.04726245701385778375,1190.45445711630623009114,170.993972744008573272367,-1614.3477326387696848542,-3.18631295112936374636092,-360.069670548909584795183,159.980822918129518939168
0.380000000000000004440892,0.478810896885017878155111,-2.3052488281397485181401,1.4409446927394080617546,-0.013039354991268303080032,-0.0086833724352867042162174,0.00881581531179347933913082,-0.00853776291176243373737265,0.0250602881395961887833757,-0.106985968733018743659358,0.993907586308832469157437,0.0729570046576482056366331,-0.0170184373393916302252826,10.4997301108890734866463,-0.126678614797231747779449,-0.0285471755111565729523537,1.20638005827091676636087,5.40070040810373441786396,1.8862838667702788164604,0.555723645292556689412322,1157.41667907795454084408,1193.15031743705117150967,1152.3017275599943332054,1189.59420214674469207239,470.263654320705938971514,-1888.26829578356250749493,218.821456383102287190923,-360.666471557260251756816,159.984800076404894753068
