t,ang acc x,ang acc y,ang acc z,ang vel x,ang vel y,ang vel z,quat x,quat y,quat z,quat w,acc x,acc y,acc z,vel x,vel y,vel z,pos x,pos y,pos z,mot 1,mot 2,mot 3,mot 4,dmot 1,dmot 2,dmot 3,dmot 4,vbat
0.00500000000000000010408341,-0.282424287172069465867708,0.859611527776350747842571,0.941450195342351969785,-0.0590261997863938403519057,0.159497610081757640321243,0.00805132795022211675273205,-0.0046179502277390030093307,-0.00236858422215223797871464,-0.06135068209782779807826,0.998102584807096904206958,-0.148435857748163702041211,0.127447312348999086673018,10.1136625448739856381053,-0.0424047027700435244512711,-0.0496536726236936690193069,1.03931005295993506010177,7.33389776669903969974484,5.50224643305181704278084,0.165343412501231273870062,1147.44898536192295068759,1122.0918187862203012628,1123.78714272527599860041,1127.3786473199957072211,-790.811705340092998994805,380.394869322572105829749,-1077.17536954405682081415,-18.9320637108721747665641,164.523796207921492396054
0.00749999999999999972244424,-0.414988240363678428934691,0.56328868880986338041339,1.00120979635742335389637,-0.0585800690541560947766087,0.161269760912971876765099,0.0108979547255307947922764,-0.00466712713384184220422046,-0.00218634491817792757373251,-0.0613500335484753953063652,0.998102791721902193877725,-0.150013587369764611612055,0.126602386729455868019656,10.1062007090680445742237,-0.0430377305927177183919596,-0.0494004667087401191927221,1.03998518676620643752528,7.33376717871490235722831,5.50215997526919142757151,0.167942827808013783741359,1145.47195609857271847432,1123.04280595952673138527,1121.09420430141585711681,1127.33131716071852679306,-761.650284670713517698459,337.153938963456312194467,-956.850906389490774017759,-21.2688550391703756758943,164.521224751393816632117
0.0100000000000000002081668,-0.515091428112355198543071,0.280418954567320077853054,1.02317215977134523541281,-0.0581383483312419499511314,0.161892146389722657584542,0.014403518361539168965435,-0.00471015775995681576504559,-0.00201244913737776446802097,-0.0613442017173199544144424,0.998103299378923281004461,-0.151411214362547508205381,0.125896826237198999898226,10.0986521837674239066018,-0.0436550576398412742973321,-0.0491343752711660072818312,1.04066535557743811146736,7.33363631082027289664893,5.50207531096267565828839,0.170540109473753559443665,1143.64073393856938309909,1123.77758848103758282377,1119.00288819332854473032,1127.27230304479985534272,-744.093515418398851579695,257.902694227186600528512,-810.598236901341692828282,-37.8998662247340618591807,164.518704445606175568173
0.0125000000000000006938894,-0.595154529514119734479038,-0.0208717660081153798257159,0.994150456977551222337297,-0.0588254681678440360936833,0.16182075110619142943591,0.0181010304305522090606573,-0.00475108134433819238873209,-0.0018428868642029886445316,-0.0613344740766724044744862,0.998104009158205518481566,-0.152699159197431932888378,0.125244683334510942263051,10.0909711452747909987693,-0.0442640380967996086014615,-0.0488651561347955773473295,1.04135107900215095888541,7.33350512455720426885364,5.50199323982798205179279,0.173135467371668988478817,1141.75148852148072364798,1124.33231943066266467213,1117.04121311690914808423,1127.14181782959485644824,-829.015691245240418538742,180.88050029577973987216,-835.443471667122253165871,-75.0815969784980694612386,164.515804540295164315467
0.0149999999999999994448885,-0.63438023607977001017133,-0.390009809285186526128797,0.899786662922753333049286,-0.0613828214430660185074728,0.161146241033247206164702,0.021946227014429366131143,-0.0047934036529898209691436,-0.00167232507743728196075716,-0.0613215838706895263743313,0.998104865009902253447649,-0.153975169463978184269948,0.124568929199076028346838,10.0831083814751139016153,-0.0448747220891335951709067,-0.0486015523976251681559368,1.04204191038123350487865,7.33337409751161750648407,5.50191335742094178584694,0.17573115543267830984675,1139.49565548234318157483,1124.68199098251648138103,1114.82567083499293403293,1126.89689505990736506646,-823.174575290431562279991,63.9604236419927332235602,-785.816075381762743745639,-99.1378584984886259690029,164.5119002919279012076
0.0175000000000000016653345,-0.595176821705717284949344,-0.696981756580628553088275,0.786881050360546119293303,-0.0645134070703387574319265,0.160078192574913208412468,0.0242750593941589709601203,-0.0048372846248202613569922,-0.00149679156169750873783819,-0.0613048684013193720399038,0.99810591308305285362934,-0.155314221442397620842613,0.123860927057418176988612,10.075015046642905147678,-0.0454946628063453567536456,-0.0483448036261014887915444,1.04273657197316538258747,7.33324309259142292916067,5.50183517713719005826079,0.17832928010662957296617,1137.63561564502856526815,1124.6521215488726284093,1113.11213274000033379707,1126.64612853710241324734,-742.817082761166489035531,-87.7737799027272416196865,-647.301678251278531206481,-100.049449153630106934543,164.508303956496860109837
0.0200000000000000004163336,-0.471564699036241652407853,-0.993984231229056325318538,0.667069311345462101492387,-0.0675634257384936653956231,0.158314852172076386827015,0.0254430434296253893400319,-0.00488115199837467744065078,-0.00131362499525653256791935,-0.0612797354571681940349492,0.998107449603253038539208,-0.156767671885683940180556,0.123147467681394257033034,10.0666467284844411977929,-0.0461289538842995713863182,-0.048091586268791876312978,1.04343272061798231220564,7.33311144885490762135305,5.50175822021905425174282,0.180930178536219316010047,1135.78157006853734856122,1124.24312208300284510187,1111.58916244373654080846,1126.39664781413921446074,-815.654234949307010538178,-271.410845752234422434412,-607.275638448254881041066,-100.324192047264716620703,164.504365071727391978129
0.0224999999999999991673327,-0.250407427912579361173329,-1.3230652359605283852062,0.545834532434458008509637,-0.0698747140049847115239601,0.155210562347008640404766,0.0259092771132510661657999,-0.004927077687802789741911,-0.00112639431201055646020182,-0.0612437790746629684424107,0.998109611688030140541628,-0.158259752270187625811104,0.122387089228036455290649,10.0579684235816539938924,-0.0467687153472534575260333,-0.0478450767295244827614908,1.04412705305490249862999,7.33297880569133830874762,5.50168225574360647556205,0.183533669719119829633058,1133.55734447028203248919,1123.29506732011145686556,1110.07575454775906109717,1126.14450757686608994845,-810.164878229852433833003,-420.566796724233370241564,-486.498110912361767077527,-83.4830607534513404743848,164.499258150261113087254
0.0250000000000000013877788,-0.0435364570318511820423701,-1.55968923537089421138546,0.474394011851749841657266,-0.0703912313712235920837301,0.1518406625917751717747,0.0261315588176052986113529,-0.00497885559318393938060821,-0.000940334315394699533051381,-0.061196521453064499362906,0.998112408975386888876358,-0.15968232537842411145057,0.121502715505811584306706,10.0489571412988851761838,-0.0474008883599541588904636,-0.0476115214343843032307468,1.04481521020882817119002,7.33284471696686246389163,5.5016069858182632401622,0.186140102330344198167111,1131.73074567738808582362,1122.14028809938167796645,1109.15667188917473140464,1125.97923251037195768731,-709.192032821647330820269,-524.413126621538935978606,-278.197996938888479689922,-63.419158572105502003069,164.494697093266466936257
0.0275000000000000001387779,0.131367799515136274290938,-1.7377354321495959155186,0.429174634372602725740364,-0.069572060463304330468759,0.147639174513091331331083,0.0267313633398387900941273,-0.00504064745366438870383119,-0.000751563545622949504866617,-0.0611355180855139707096768,0.998115975694901513826096,-0.161112099041569090118742,0.120395818254854000683984,10.0396032044265570704056,-0.0480313547879600635792663,-0.0473984651970431186684962,1.04549097566740600839807,7.33270799643245485555099,5.50153186572682706412252,0.188749523320217688082678,1130.01138430617379526666,1120.67300168700376161723,1108.6847645630646184145,1125.82741178400556236738,-652.520387548475241601409,-621.196450379011707809696,-104.347995876014522309561,-66.9715577794704870484566,164.489832963163166823506
0.029999999999999998889777,0.24118202210813857733207,-1.85358279599513076085771,0.392681642435317612704893,-0.0677705836174685161132913,0.142705279919608324368241,0.0278319701647763706464644,-0.0051089053397130792383285,-0.000561820256476138705364898,-0.0610631161117550363970352,0.998120179133848317576394,-0.162525950213692926826781,0.119124957318824054031126,10.0299132661795837861973,-0.0486548976664253687851591,-0.0471967821536150022865286,1.04614863986497641512585,7.33256860091886775165904,5.50145695888184338429028,0.191362861626729996444851,1128.46814373964571132092,1119.0343058474866211327,1108.63493190979465907731,1125.64437472147460539418,-552.620935019649436981126,-667.618416254754151850648,85.7512647134171714924378,-89.1766466448643626563353,164.48472780048868457925
0.032500000000000001110223,0.241621777612271299018332,-1.88487970582644837058695,0.348347493302835653494753,-0.065273029885641320468892,0.137296040133822905282557,0.0294838010049496904163568,-0.00518452608862821420765421,-0.000373546817406593574528717,-0.0609845338103368814208771,0.998124688713568963827072,-0.163883976233606287742361,0.117656079757411713426762,10.0199126509659706130151,-0.0492643542156772709650348,-0.0470066345193949283731705,1.04678172491344123606893,7.33242718418760652809851,5.50138238181721561659288,0.193981678976822197180141,1127.24827963107554751332,1117.33490960572999028955,1109.11352088663170434302,1125.38152855078124048305,-441.316343901598486354487,-718.906195469343629156356,321.369287398237872821483,-135.860498031934071150317,164.479344436447689759007
0.0350000000000000033306691,0.108405990843715369087441,-1.82834638825689110852579,0.271912614716201872511192,-0.063008793287896824875105,0.130863152739242427635702,0.0314220786459893514086517,-0.00527034583697997670997948,-0.000195580169044480718914397,-0.0609045680813830869748671,0.99812919035343350415701,-0.16501761438533540937712,0.115920664943269968727435,10.0096463593022004801014,-0.0498395761240812626424734,-0.0468313690773728558136568,1.04738426594430644733791,7.33228479838558211412192,5.50130808983648922350085,0.196605368279653330843004,1126.26156202013771689963,1115.43977487013989957632,1110.2417783467858498625,1124.96507223131493446999,-278.520767901773183439218,-640.667450067713048156293,483.771876542641848573112,-163.293573040391578388153,164.472578889462397455645
0.0374999999999999986122212,-0.0955780480061253490120521,-1.71865396567875650113422,0.190218567455033599200576,-0.0626633714023259041914216,0.126166381296396429290141,0.0323592268925326498330008,-0.00536915478244357445569701,-3.49720750074939123195131e-05,-0.0608243040380473942718709,0.998133600850922175773405,-0.165794508075875091090978,0.113846545135913718160836,9.99917738632765207285047,-0.0503651735339600351015754,-0.0466742179538279094996867,1.04795067335223968107982,7.33214290291394021892302,5.50123340487715317692619,0.199233140083551030219411,1125.85567579156668216456,1114.13157235539142675407,1111.53238026934491244901,1124.56506068557928301743,-88.6518354381224042981557,-438.117675102285147659131,547.78997343723881385813,-158.593253226217797191566,164.466698138660802896993
0.0400000000000000008326673,-0.35929173592053292862758,-1.57434422384246275328223,0.102069650591431221320349,-0.0637084411534758338069295,0.122639531027941006691151,0.0323696306840507361246573,-0.00548073930536901229165769,0.000112990234185335715680343,-0.0607453625132190686009004,0.998137820836201949958877,-0.16632089666871896493916,0.111404987355894921630117,9.98858370501204007041451,-0.0508514061790339561008878,-0.0465339562440884452199086,1.04847535500565580690591,7.33200201493444847500314,5.50115813198233993830399,0.20186445566156860365048,1125.8183028429471050913,1113.24918649462847497489,1112.98072821397204279492,1124.17210596518384591036,34.2808854759823304902966,-269.977662885412200921564,615.60274780817906048469,-157.96519661412261825717,164.460579516080258599686
0.0425000000000000030531133,-0.703856401393181285719436,-1.39684998485012767943658,0.00360367772050907905767581,-0.0656893059434214693359522,0.119454440975408721081763,0.0319434421169227794612411,-0.00560237505314254737032176,0.000252528166497884454678308,-0.0606705330426633993035068,0.998141693618050274139364,-0.166694827606802070674163,0.108616601562216696930108,9.97795798676576239927272,-0.0513082861652832192267404,-0.0464046268504592490655725,1.04895430221150043337275,7.33186197298213215844953,5.50108272057484359862656,0.204498816393209603692327,1126.02708021894659395912,1112.78168404096436461259,1114.61039400838581059361,1123.7752347025086692156,86.3556210065326439462297,-68.9591320203362840857153,537.705575738619018011377,-127.095901605662277233932,164.452978561362698428638
0.0449999999999999983346655,-0.990677459095008927647541,-1.26227271590787548660728,-0.0672677482365026807586972,-0.0677996140069275915474023,0.117156951588666888297574,0.0316120178764504600188445,-0.00573598554736194556763484,0.000393175533328048827045459,-0.0605990157321999040052063,0.998145252337996002900411,-0.167111228598756267338388,0.105403710433235237031724,9.96740485858851243960999,-0.0517570053863410858840943,-0.0462909642100976723155803,1.04938414453988260177653,7.33172201495260278392152,5.50100735026162102059288,0.207135704446128027234053,1126.25008094797976809787,1112.90439083452679369657,1115.66925609266513674811,1123.53662645715553480841,61.9105685945214929688518,147.123866470838123632348,322.07020521873363350096,-73.7113013503404062021218,164.446440565971926162092
0.0475000000000000005551115,-1.25332630732096994563562,-1.1467180227253201962867,-0.126728776768594897372822,-0.0706862810101349520186531,0.114662269798774058005009,0.0315014897766994761418857,-0.00587923486894420879722567,0.000537521661173163099733951,-0.0605312974252727453716716,0.998148477147496548944616,-0.167628922601913865619849,0.101783545225334420836205,9.95703860470444190866601,-0.0522048493398473978377439,-0.0461888437550657116048569,1.04976445319820821389101,7.33158253071822851865136,5.5009328458846482590161,0.209772503381269792566144,1126.33663306191920128185,1113.51730337331855480443,1116.22074503447947790846,1123.40667819575696739776,-23.7448130858410664245639,358.049617957930990996829,103.490191495893583351062,-32.5788108790220292121376,164.439704191465352778323
0.0500000000000000027755576,-1.51636729759262744998694,-1.02291672094119401315027,-0.1864922130114101961329,-0.0750812821399518826037678,0.111275082717162826506652,0.0315658422793594350963531,-0.00602631297548738079083996,0.00068098741078644639372619,-0.0604661044448809234519437,0.998151480080996411636818,-0.168164922836988112164747,0.0978544741177809762611162,9.94698010310886893137194,-0.0526447269633382591846882,-0.0460866487648774816876518,1.05009771596467849086309,7.33144404526895954177235,5.50085999503276124045215,0.212407027528563774332326,1126.13135688255056265916,1114.69463892431645035686,1116.18670705014460509119,1123.37373240276042452024,-135.576228181571480035927,478.969612980336250984692,-124.530520015969216274243,7.18414532025235885726033,164.431405706967836977128
0.0524999999999999980571097,-1.67830155615629972309932,-0.926119533854115051241251,-0.223820251849845441860509,-0.0791878416560528597401003,0.108445441154723168364349,0.0315669921334003969470849,-0.00616901545150529140304485,0.000820927756650503153736109,-0.060401295225419621148788,0.998154442055670498845643,-0.168674435558918589528332,0.0937647087843573867615987,9.93735243982867189060926,-0.0530738780223850431516652,-0.0459687278466884841066076,1.0503879408994325483917,7.33130673154462808582821,5.50078919072512917409767,0.215038818455478508706591,1125.65875192101134416589,1115.91215143822023492248,1115.59809243439963211131,1123.44259892235822917428,-246.520829731571325282857,498.943757507595591960126,-324.595731011868508630869,46.5706456639964230248552,164.424321332243209781154
0.0550000000000000002775558,-1.76982225868219211761811,-0.835149742776874148830757,-0.237090973991880255011822,-0.0832931682717579502384098,0.105851516488630559287287,0.0311653014300162130301164,-0.00630093944397340510743533,0.000962062267446589362319964,-0.0603394777528485498629962,0.998157240519992550176198,-0.169254331856221462704326,0.0896231433006584171652165,9.92827734981075238351877,-0.0535041148032870117479121,-0.0458253357396450899940987,1.05063917351705926606087,7.3311704299479876212331,5.50072065498620776935468,0.217668040427950321147321,1124.89875273389270660118,1117.18935771185442717979,1114.56372839508526340069,1123.60658563108040652878,-339.27378286089123093916,491.962343526437962282216,-455.374714020717476614664,82.1046923396351502333346,164.417072975348048657906
0.0575000000000000024980018,-1.79673676466267040474634,-0.754743204166248182751531,-0.217807258177648926933401,-0.0873323480880993791020117,0.103576856748072113068027,0.0304168459071939810411944,-0.00642148074907735420813193,0.00110647169691576526158461,-0.0602840099562189923876332,0.998159675867711371211044,-0.169939109969172191805242,0.0854342507379249466170634,9.91987406787345804559664,-0.0539404888013766403709326,-0.045659166227707374818845,1.05085575267147990352612,7.33103476581285029567425,5.50065442896759559943121,0.220296123110739344719278,1123.96238300670688659011,1118.37196315585242700763,1113.32121886429604273872,1123.85312238405640528072,-397.051726244126427900483,418.232629319209308960126,-502.78271534893997340987,122.197380921579735968407,164.409696728372040297472
0.059999999999999997779554,-1.736393363408418988314,-0.700682127867483850458541,-0.144362619206610198752117,-0.0914216441730414802746552,0.101928448242774610799088,0.0294309038653554795594847,-0.00653325782739638989682351,0.00125350891958076631794994,-0.0602368183071595869604309,0.998161621277115385098,-0.170702584009006702592259,0.0811507843337784390280731,9.91225670905758171613797,-0.0543814594050933269864245,-0.0454795158083008341232123,1.05104216975160502656195,7.33089916880387981734657,5.50059073810717258368186,0.222923499871229446878118,1122.91349410267207531433,1119.28052085845047258772,1112.04981481834056467051,1124.21757253568830492441,-460.928824718030455187545,304.300772572151061012846,-513.121803564536321573541,195.246955513494043543687,164.402175571593716085772
0.0625,-1.5476957107011926062512,-0.686206790322767656853387,0.0177529459472389322671759,-0.0964836562265196095999897,0.100556429663815616315503,0.028180756407736769209027,-0.00663887501602512895143571,0.0013989259363561289996325,-0.0601954210809445069974011,0.998163223011440892129542,-0.171444807038090341055891,0.0767398073877121056352024,9.90553232178932496765356,-0.0548176309820963478247613,-0.0452948449728102567335419,1.05120321204749367360876,7.33076281334827051239245,5.50052975895581575116466,0.225550415677527288371707,1121.65773888311673545104,1119.89346701871318146004,1110.75560984647336226772,1124.82935716162387507211,-442.866481247619560690509,132.008313377991612469486,-405.900637288095481380878,259.150601352029980262159,164.392994157860044879271
0.065000000000000002220446,-1.28328437227467073711296,-0.726622587548541587487705,0.212652323558065403652506,-0.100872237578155374282396,0.0996139221891299414535226,0.0273079417807329978551412,-0.00674292375379279083219553,0.00153891173538115355254319,-0.0601550620414028347493485,0.998164752453100545537268,-0.172070656392735776840652,0.0721378497564755666315861,9.89979888069920122006806,-0.0552398502232353538765608,-0.0451174725136938847835921,1.05134317704474700150286,7.33062450406481236342415,5.50047157058533286999591,0.228177473159810101366318,1120.69916169643397552136,1119.9405624253404312185,1110.0203116319000855583,1125.51332554244845596259,-351.057875019887148937414,-77.8705037148937861957165,-201.196531070172397903661,313.527564703963150805066,164.385221247157460311428
0.0675000000000000044408921,-0.905822926068279521416571,-0.823647407184436519678172,0.450617147662430606036565,-0.104865751630771691926824,0.0984300615296476305582374,0.0271088467215023602718826,-0.00684267315800336783926383,0.00166870260809540800137074,-0.0601158612134217035238848,0.998166233115337364623088,-0.172474886899196405698476,0.0674349619557752522069904,9.89514410886974182801623,-0.0556371201481037080949221,-0.0449443908934093333540361,1.05146671910245825820596,7.33048414355599753378101,5.50041633542945351820208,0.230805455357819683248621,1119.90244950801729828527,1119.50411450013871217379,1109.74962719112249942555,1126.39699498514369224722,-308.608117117728113498742,-284.615355918549312264076,-5.52828670547568812310146,432.419013300886547312984,164.377332190658336230626
0.0700000000000000066613381,-0.344948464914603680764316,-0.993297549407253455022726,0.741513283997459859975265,-0.107645915243405318473258,0.0962856856959825868624847,0.02843499928461214534825,-0.00693757732163345196968463,0.00178718954325369876190432,-0.0600769850587375212058738,0.998167723915726057271058,-0.17262097653590302570592,0.0626809022621807182540365,9.89164426707736232913248,-0.0560058126468859635016528,-0.0447769296840181824093108,1.05157755262020491393571,7.33034190026930776440395,5.50036364194924498605133,0.233435982223075877417529,1119.15612111084533353278,1118.51748564574768352031,1109.99267019837270709104,1127.67542060895289068867,-243.767739838768193294527,-414.190287331894865019422,177.455248513706806079426,498.2704444616966270587,164.367743461379689051682
0.0724999999999999950039964,0.180139832629228419103029,-1.16279023704676531814073,0.946539481234154655986401,-0.107758751077228820403064,0.0937681917085990135340978,0.0310509146081385974114131,-0.00702535216869579898224529,0.00188886542991034949573459,-0.0600390081928714250403267,0.998169218606132169213652,-0.17238699275928931475832,0.0579705468854726513328046,9.88936458322581835034271,-0.0563333720979653715388302,-0.0446115421187060212648845,1.05167991860698539774432,7.33019847943852997929071,5.5003128387021664735812,0.236068916465309253105431,1118.68361080882345959253,1117.43316306347924182774,1110.63690343369103175064,1128.88834720745217055082,-170.475210033964998501688,-450.930655612456519065745,333.665713189976202102116,503.532663728175123196706,164.359660768984525702763
0.0749999999999999972244424,0.72113800845759179480865,-1.33879085954687115922468,1.0655184070195156120775,-0.106129369158075220758164,0.0906144369109010278107164,0.0348278494473104396900176,-0.00710589434390457644341588,0.00196800016250715109622504,-0.0599968007834089170349223,0.998171039942139071143856,-0.171642297145553623938241,0.0533607519067197527684598,9.88835797973056429555072,-0.0566073408927952256841643,-0.044447626553094296553148,1.05177808090955160480462,7.3300540131649691844018,5.50026262632206996983086,0.238702764343947132497092,1118.30374506067551010347,1116.26283236768540518824,1111.66099876432258497516,1130.19308392759376147296,-146.485704025781018344787,-452.36635659180097945864,458.513374308267486867408,526.54950579835667667794,164.351494310965620115894
0.0774999999999999994448885,1.24628030050925020510988,-1.50390046335715799052934,1.08974005230410897482329,-0.103419631848019513697956,0.086986690759353113566732,0.0390287617565616765102909,-0.00718139543059992738194275,0.00202563493439187128353218,-0.0599467490258256130442049,0.998173391846932767101919,-0.170386108610046826949969,0.0488569962029875987097327,9.88866325174011073784186,-0.0568296510985192362963581,-0.0442894065683516607867531,1.05187568881452397917542,7.32990845304795701764533,5.50021233804873777017974,0.241336937166846371427553,1117.95118228869455379026,1115.17133128052023494092,1112.9294703052323711745,1131.52109473644395620795,-141.816125169816473317042,-383.185543492436067936069,550.209775611665008909767,523.565041093297168117715,164.343267628111874500973
0.0800000000000000016653345,1.7241684203256824048367,-1.63937541030872058200885,0.994020463574321277988588,-0.0994572933512608975403779,0.0828169303320031718884664,0.0429779734156288187318928,-0.00725449370384180676485375,0.00207338430321033547615306,-0.0598908704593123022985601,0.998176114264391234343066,-0.168824781105013699278317,0.044442958206810698196243,9.89030399603956489329448,-0.057024678035425380162593,-0.0441430870768643943136134,1.05197553561673440292168,7.3297623591233387330135,5.50016150488262578477361,0.243971869163798232849061,1117.59466443482642716845,1114.34690465022322314326,1114.41204764238091229345,1132.81090913306024958729,-157.77579887603664587914,-265.092942971341244629002,683.927030719177651008067,540.946246736711600533454,164.334980035222372407588
0.0825000000000000038857806,2.21429401553943616676179,-1.7529960194291140940237,0.763060432125785226276093,-0.0934856004283296099233169,0.0775912738516478933670228,0.0464339961363241238156974,-0.00732593100149778707341763,0.00212135521703343560978583,-0.059833973078806508560934,0.998178897719523727793955,-0.167135555776922462012379,0.0401396559295159535696307,9.89329035027306424865401,-0.0572144474956307463875405,-0.0440102900518821033015726,1.05208123747892767774204,7.3296168573869451279279,5.50010981946382138119134,0.246608409433833691837279,1117.16230329431436985033,1113.84586656566352758091,1116.34910545882826227171,1134.22582597012751648435,-152.28161726909078765857,-85.4741762099819624154406,724.738211607063249175553,483.325830125476841203636,164.324980231236679628637
0.0850000000000000061062266,2.53679920781286583064684,-1.80122710083988657459031,0.506037227890256624540655,-0.087655599313556264995384,0.0732782006959041415372624,0.0479033645800528706804045,-0.00739133183719925101334836,0.00216885793320165066663807,-0.0597827237708903752588796,0.998181376279967169651286,-0.16528680093699968378651,0.036078603996910652007557,9.89762050313315633331968,-0.0573995254477796326697536,-0.0438802391680902792447938,1.05219873127874885554434,7.32947349416455118387148,5.50005763728622110164679,0.249245518053691800242078,1116.83325634848097251961,1113.91953376917331297591,1118.03573870041623194993,1135.22753828368763606704,-110.949797636476333195787,138.922670411602553031116,674.636209158051656231692,349.00010480655481615031,164.31661278353840316413
0.0875000000000000083266727,2.75430108909954007856413,-1.79773177570692554994025,0.226011275854394899642585,-0.0809717977742683420183667,0.0688008031675300668617012,0.0480186603041745652120653,-0.00744939918169755608406968,0.00221335858688371427474562,-0.0597371131978198799394875,0.998183563328831846561684,-0.163204405363550186791599,0.0323290072568564040844663,9.90327918001733920050356,-0.0575771382266546880024372,-0.043747333289164011538297,1.05233463909721369766714,7.3293334873401994045139,5.50000508253061148877805,0.25188079694415488329895,1116.60755430613198768697,1114.5404799177215409145,1119.72228650461852339504,1135.97082649416029198619,-57.6209132287204894851129,394.043801992803139455646,721.059402668562597682467,255.013293877619190652695,164.308222055435123820644
0.0899999999999999966693309,2.88120479165428289292095,-1.73259744567723950048332,-0.0941644432056852609402853,-0.0722897076467447219361162,0.0631383619772488968724389,0.0471227060530353819567395,-0.00750162220579737425846245,0.00225556112770973005501873,-0.0596987490904940243385823,0.998185350300338281037682,-0.160874048348262577157186,0.0288954101098234245048602,9.91023732244950394942862,-0.0577508374417488729024583,-0.0436122120569175514281923,1.05249552398612711279213,7.32919658837586496247241,5.49995245550406774981411,0.254512541107274670171279,1116.54515178233737060509,1115.88975277913732497836,1121.64103571375903811713,1136.50260475307572960446,20.867938600258678860655,584.199488519426495258813,668.609183393119906213542,131.841809704247026502344,164.298138798849379327294
0.092499999999999998889777,2.8718102602048021232406,-1.63152710794322608478524,-0.328441217801281437616012,-0.0648921663631649991987871,0.0584006376636453453099485,0.0459927740007281052325716,-0.00755149593131418037095237,0.00230219118006917081858953,-0.0596686844552079612147288,0.99818663680579711172669,-0.158398294009290174777504,0.0257292143128020484033058,9.91845277546959813719241,-0.0579360948458164937147075,-0.0434802959525500271054099,1.05268716829755537567337,7.32906224604098266439678,5.49989986528748087124541,0.257140413398013689683097,1116.71189399913328088587,1117.46147736031866770645,1123.06533242158411667333,1136.63003554268152583973,113.610649355359683454481,702.890112313706936220115,513.829027980681985354749,-9.10861164993547411938835,164.289732119661067599736
0.095000000000000001110223,2.74732705337652882704447,-1.49674011294505060476467,-0.51906567447349849508953,-0.0576661334965064137358937,0.0543253983962592723599982,0.0447257310610769329151104,-0.00760575215451019751716766,0.00236323455284878115867375,-0.0596460370657863406251842,0.998187409322411123291374,-0.155942347744071951876066,0.0227070728551418757334979,9.92787224394372991298496,-0.0581539847149618732702336,-0.0433639399707012804241479,1.05291419382577688956815,7.32892925349374557697502,5.49984588930106088611183,0.259765335481784764848356,1117.11320502911416951974,1119.40420334070586250164,1124.21018085366245031764,1136.45706169482605218946,220.165839947548903410279,914.173224609702742782247,425.696201218624594275752,-126.990484968837222368165,164.281329600879928420909
0.0975000000000000033306691,2.48113719575554236840276,-1.32431085503659629054596,-0.695315616900683663992311,-0.0495134738092137260956349,0.0506039136379745971283661,0.0429051544070710930145474,-0.00766451431690514609768039,0.00244076246705172928905259,-0.0596287037367453295888531,0.998187795492299190236452,-0.153526306686790570132928,0.0198389307245097207266227,9.93843562155872994878791,-0.058408544088117290982165,-0.0432605874856903382941198,1.05318160688083706233442,7.32879561854791550246091,5.49979016104503948270121,0.262388651624067159584541,1117.81272319887102639768,1122.0323434833671853994,1125.19381342767724163423,1135.99508311783733915945,279.650143974731463458738,990.566577854769093391951,297.556305905572742176446,-191.671342256267791981372,164.271259405149578469718
0.100000000000000005551115,2.18125921767097041836792,-1.19294578943054108144395,-0.79899745114615028374061,-0.0432978459283798744472449,0.0483349996129829526103627,0.0409343617870164197536376,-0.00771750561997024304983217,0.002526897538738507101308,-0.0596134834112060918442921,0.998188084610662329509978,-0.150990450076927434919227,0.0173467357720079040639405,9.9500791468985188004126,-0.0586828240076027185523344,-0.0431448316048961832969155,1.05349490179785698629189,7.32866019065438223378806,5.49973350207409605872044,0.265011218251435864967647,1118.51145574898782797391,1124.35703622997971251607,1125.69796238319031544961,1135.4987049835447123769,286.871402657152202664292,926.377240754253875820723,155.92211719499559308133,-194.614098592273705889966,164.262883097045289559901
0.102500000000000007771561,1.83290597927635556807502,-1.09108744247785294234632,-0.860594159218818322010236,-0.0382118048756935613230468,0.0465980027240250893605378,0.0385111268404106504847917,-0.00776390646683012154022352,0.00261210136960267694239413,-0.0595975659169389535008143,0.998188470639766567416018,-0.148137208058089137052704,0.0152615347298888232030478,9.96273543927514459994654,-0.0589538039277050715525341,-0.0430116570539839856990305,1.05385719120626109024386,7.32852240425117429367674,5.49967746499411269667235,0.26763427567698955256148,1119.24708021215678854787,1126.66422968713845875754,1125.97342401365222031018,1135.02201262487596977735,290.759506965333116568218,893.721218469456175625965,98.8167153561791593574526,-169.450732804535022069103,164.254527555481786293967
0.104999999999999996114219,1.47479366617938900674289,-1.01552666550530101829963,-0.893121916045000685535626,-0.0343014373511287481988141,0.0449043358723842933599713,0.0359726445153682947153406,-0.00780976669880332173556692,0.00269184752035696306382562,-0.0595792457785411649906493,0.998189017951690016339228,-0.144868212808292901039309,0.0134668832989406836442292,9.97633547732026570997732,-0.0592069725168799937398134,-0.0428720790029756063099775,1.05426847745996932204093,7.32838199236947485104565,5.4996235729131370817413,0.270260492749396730172151,1119.96525328381449071458,1128.82564232232698486769,1126.19204595997121032269,1134.65145131952203882975,277.20705848728408682291,797.911123010818869261129,113.15608886498033314183,-108.638778765271325710273,164.24619215257021664911
0.107499999999999998334665,1.14359730970629303037356,-0.960372961994798046703181,-0.904200161006924241213767,-0.0317245148547711450226494,0.0427282092637018065528487,0.0336989649418753117737779,-0.0078595158290759338515219,0.00276975499687034942830621,-0.0595549915056083345454851,0.998189890756660092030472,-0.141258243447339726373002,0.0118646325517671319405011,9.99081164878077210289575,-0.0594445880365047432669634,-0.0427352947413864661663219,1.05472607270961526992892,7.32823822246946043890148,5.49957232638386717127332,0.27289151646400627848621,1120.63311550459320642403,1130.65378530219254571421,1126.53920445797712091007,1134.47881873104961414356,281.072992603003285694285,695.432876113590623390337,228.709065533121048474641,-24.2989419267359849641252,164.237884278833661255703
0.110000000000000000555112,0.820974129155370491162103,-0.894270409327077686612029,-0.9153587687821049811987,-0.0298618125312462116827117,0.0395694037632524850400806,0.0316319490645687734220459,-0.00791092625248197844900488,0.00284248228036871903451344,-0.0595243622409539346884699,0.998191138239335473691938,-0.137261337006940292715385,0.0104943223524444143035517,10.0061020524881296722697,-0.0596546490433192619362579,-0.0425965469714207206619605,1.05522728117029451766484,7.32809094170243202626125,5.49952412096994169843356,0.275528448611170428961259,1121.37061824682950827992,1132.30280670289494082681,1127.33559128763681655983,1134.52995660988835879834,261.867811528509037088952,502.993790892787274060538,376.106087988682361356041,58.2242960381335663555546,164.227950610276764109585
0.112500000000000002775558,0.637260661454930987801504,-0.823958399113247863532195,-0.937083251603041511579306,-0.0289464556329711193705112,0.0368714387981283406303668,0.0304255657906641746590637,-0.0079580379429644611255501,0.00290483160588363500953513,-0.0594884782519750424101268,0.998192753387984410551326,-0.132808060266485200573428,0.00947067446418424496723532,10.022150897708264949415,-0.0598219016647973667044624,-0.0424434713488543446935353,1.05576917861082475447176,7.32794084297339232136892,5.49947811869501190784604,0.278171516172062704974621,1121.94245456223575274635,1133.16875425665648435825,1128.41973489792053442216,1134.76994021124028222403,223.713645244833770675541,247.409841295802607419319,522.114911944526738807326,126.49029798135404689674,164.219705112302307270511
0.115000000000000004996004,0.555568625253342607273055,-0.728680860055992640766931,-0.976360960330244442850756,-0.0282266076733645558671792,0.0344239236073570348262152,0.0294002815185761753880023,-0.00799612924619269756221218,0.0029576203407126679285899,-0.0594484675179581534276707,0.998194703767697366636469,-0.127955998705210821642098,0.00887604774475110602782735,10.0389077203197647492061,-0.0599444213324355421046441,-0.0422671424469196407858185,1.05634795793958780052435,7.3277886163424117427212,5.49943356833451435505822,0.280819896511914524062092,1122.48918647305367812805,1133.53985590937395500077,1129.9461658473594525276,1135.16240809979512960126,238.313335244083447150842,79.431364183847037452324,744.763280990627436040086,192.918667647472659609775,164.211496551293294032803
0.11750000000000000721645,0.575337214222991666368046,-0.588064635299502702636687,-1.02532049825660198649757,-0.0272245143656457411207583,0.0320639443208689603470596,0.0275505672371151935640121,-0.00802376174499543244611477,0.00300014989005942082911371,-0.0594046868263686245192901,0.998196983663024006716569,-0.122735530145688040426499,0.00872870548406102370053716,10.0563274014780734688657,-0.0600179505696426598970739,-0.0420652301237454950832984,1.0569603753347984742561,7.32763515314824864788079,5.49939040908246745686938,0.283473152757837132398322,1123.13402123845617097686,1133.56591107757571990078,1132.14355130287367501296,1135.73453354947764637473,235.304174072189653088572,-28.6033368683547983835069,831.164544677132425931632,216.710765648804624561308,164.201692506942947602511
0.119999999999999995559108,0.681651949479635921314014,-0.457983568564611864815106,-1.03917600165629542274814,-0.0261903247041024959951283,0.030734447378836141084868,0.0249021214238125294937465,-0.00804435862795592655782873,0.00303128239382012077199335,-0.0593612970803358008797801,0.998199323977010721797853,-0.117167600097727392371993,0.00894950084821260344325466,10.0743685011083741187576,-0.0600379320350018300112005,-0.0418459226184732593911697,1.05760406436826270848428,7.3274824148707358162369,5.4993487475508420203596,0.286130395355404243407094,1123.66570734341462411976,1133.39683922503218127531,1134.10198857074510669918,1136.24596192803915073455,210.144347670757667856378,-67.9108356070629639589242,762.26354058722029094497,203.358716212415345125919,164.193563519476441570077
0.122499999999999997779554,0.863542351586845779998214,-0.329117871976422338153867,-0.985512387937629519285565,-0.0248870790073003646247773,0.0300145426342388228768687,0.0212064335050092742096517,-0.00805706157844685889879432,0.00305026642216500590634731,-0.0593237927016859109552449,0.998201408891457808714165,-0.111288846889217377111869,0.00954450983981585537874182,10.0929921629842009878075,-0.0600026457333611776268079,-0.0416083480364163593723248,1.05827857123538437988941,7.32733164529332459125044,5.49930840465944203998561,0.288789578964218751622184,1124.18474297680995732662,1133.22635689954040572047,1135.95486900580976907804,1136.75132713053972111084,203.764146129924313299853,-44.2652813208496382912926,692.38090727430915194418,198.085424318833076995361,164.185480142675942261121
0.125,1.08878861821511851992739,-0.211526075305943223048288,-0.854727222700190303328327,-0.0230926909792453192993289,0.0296672469220992211791366,0.0173977595785469556222136,-0.00806265371933281328742371,0.00305951202644537357741572,-0.0592914775312886957459035,0.998203265730968181124183,-0.105197923923792097111729,0.0104826857965784267512355,10.1121589630851964614067,-0.0599186880264709065269102,-0.0413544298841351798401433,1.05898475692683535775984,7.32718321818342577245176,5.49926865192732527987118,0.291448694480907655179891,1124.68452807406424653891,1133.17551281842793287069,1137.56389310711665530107,1137.23638904963331697218,194.12929414429510188711,25.5420116066033884294484,559.761745916784548171563,189.188594527877114614967,164.177436925489473651396
0.127500000000000002220446,1.33514654688372980118061,-0.116077541949875046034535,-0.62705901824106224928812,-0.0202722141420449072923837,0.0295995620179388442549939,0.0142317549029400899907039,-0.00805951018665518326145047,0.00306130067605233681382604,-0.0592648514710934493088246,0.99820487051199069394869,-0.0989926899818116545759494,0.0117810877519243725752851,10.131826955639116505381,-0.0597937686777066865206898,-0.0410806941893474622529148,1.05972540733474507312906,7.32703761266557496156793,5.49922864730683524925325,0.294106426134235210412271,1125.15538944753143368871,1133.3540669575734227692,1138.75367773539369409264,1137.69727010317910753656,202.356022799494724040414,135.530070970662450235977,414.181277966599395767844,200.409525150052843400772,164.169445316985559202294
0.130000000000000004440892,1.60976204708085290917552,-0.0321107521171561105521874,-0.266103531942154913902954,-0.0155283195302701928358635,0.0296697272001924181039634,0.0116669846985837065422853,-0.00804859026163158748634618,0.00306268232812277520910049,-0.0592435716042172405559896,0.998206214561358717851647,-0.0928615790155580267395408,0.0133979677744633790537065,10.1519485916653362522766,-0.0596462265581637271494309,-0.0407892263845705607683279,1.06050389175206061231904,7.3268955968378195464652,5.4991877383623064545759,0.296762759100317297100702,1125.69630818806172101176,1133.8531631732812456903,1139.63479949694965398521,1138.23843667538358204183,198.711253728924759798247,222.104307948347724277482,236.309655934519270203964,199.221075284458322585124,164.159919751399513643264
0.132500000000000006661338,1.79046572546225690736321,0.0125722024802749996613693,0.0725834553176141067387661,-0.0106085903336130618623834,0.0297726685070226794460613,0.0109606177946411365020651,-0.00803224280540933664729319,0.00307402967283551325702873,-0.0592241560518393453382835,0.998207455089715200990952,-0.0870551601369316946366084,0.0152577410935890792065273,10.1724689822841369846174,-0.0595018497056960735114295,-0.0404848448942166372344076,1.06132397422610069703808,7.32675705506466812266808,5.49914564333784472438538,0.299418669707639972799029,1126.14894571617605834035,1134.46458849731516238535,1139.93522601506629143842,1138.69337547960140000214,190.102340767543694255437,267.748812412764664259157,47.4471099160382010495596,183.98881186481031591029,164.152039301663677406395
0.135000000000000008881784,1.89579405091609798361674,0.0342150030413062786194267,0.396146121951345131506628,-0.0053050106643680282336728,0.0298694142648354525604315,0.0121605720358198485242518,-0.00801102424936359601426172,0.00310017904328435765087812,-0.0592028165723127788866442,0.998208798776317518530732,-0.0817097742657294234813747,0.0173259485124275317002862,10.1933246190810233855473,-0.059374845138062813665325,-0.0401677771174030751044626,1.06219071911333218238838,7.32662103850318846554046,5.4991025259836696648108,0.302075428276848967357182,1126.64681989189944033569,1135.19190723534507014847,1139.87203504652984520362,1139.15838073470763447403,242.244448373275872654631,326.927821429171387990209,-82.0229270181697955877098,202.872075409959336411703,164.144223767750787601472
0.13750000000000001110223,1.92426392704740689687526,0.0389936273742481007142935,0.705705351748241116460747,0.0008955722150308780557873,0.029957089296373105857807,0.015250378550811682920596,-0.00798871716108605182948832,0.00314120512732461373839321,-0.0591799582312214911272719,0.998210191522054035573319,-0.0768562562732859055891765,0.0195067046787419234865624,10.2144416302224616543981,-0.0592681230088727833971163,-0.03984510664030133791913,1.06310971485738248176744,7.32648662679494044880357,5.49905965705599708570617,0.304733125666362458794367,1127.36016795804243884049,1136.09922760446102074638,1139.52511137997544210521,1139.70773585665119753685,289.664395039789894781279,329.894757041438140277023,-148.424627608619488228214,192.516208539882256900455,164.134926990711761618513
0.140000000000000013322676,1.8689539658243472519672,0.0293870842100090491622044,0.866619774827621536239519,0.00589453791502665257889815,0.0300056722707895580370963,0.0183999248312439155073061,-0.00796606032595903977566731,0.00319021254054290817267492,-0.0591558070722344730985043,0.998211635542196273895854,-0.0723813006602612163398192,0.0217727063917561650119303,10.2357358848817199259429,-0.0591693832464775318347172,-0.0395168212239479024749933,1.06408757493869265964292,7.32635294599010222782454,5.49901825885324235798635,0.307390808073008059420061,1128.09514186709839123068,1136.84138102055226227094,1139.12991190848674705194,1140.12096177740704661119,329.14969002858896374164,294.400996284821019344236,-154.268492045548413216238,142.867314639261053343944,164.127253407727408784922
0.142500000000000015543122,1.74348921795642919363445,0.0100439446413036256172679,0.910717004912598104837684,0.0106171222379080158748632,0.030034764967640147081962,0.0215876089747056437717632,-0.0079450448145153701462462,0.00323683437464059682239781,-0.05912936687687083553433,0.998213207297991567124029,-0.0680928974422260191445844,0.0240737191377194681418672,10.2571130881321170846832,-0.059057914814219070187562,-0.0391852094468231326729324,1.06513089755058287799727,7.32621942000056503019323,5.49897854989471746023355,0.310048289671483623397563,1129.00591640818538508029,1137.57123258588512726419,1138.75376891974769932858,1140.422072429847503372,438.56617044298423024884,330.806706776594808161462,-139.176127474366438718789,90.6326210580122904048039,164.119663597816185074407
0.144999999999999990007993,1.53485073815863737323184,-0.019934761553182474280721,0.834719469356010379534894,0.0153727909077418910949175,0.0300537322990877091288819,0.0250819221645711930290812,-0.00792755739631817619994525,0.00327779944274316382274437,-0.0590990474611261390469608,0.998214996998821546547731,-0.0639388758982246951934059,0.0263515411338750282776999,10.2784708289104607104036,-0.0589272173114594663423382,-0.0388532581028717752258395,1.06624468689387441600047,7.32608519604092034427367,5.49894023961566702496384,0.312705792209512833945695,1130.28797271931330215011,1138.49541455443522863789,1138.43403127111491812684,1140.57412488269710593158,492.525028769389336957829,359.872828994322730977728,-85.36713177954919729018,12.8242170424983363830052,164.11066180713567064231
0.147499999999999992228439,1.33263253732077857627303,-0.0472283512458931201138945,0.681605336688395513355943,0.0183934916357287731036863,0.0300571500680997701071551,0.0273675018519943073769252,-0.00791633980295730795007092,0.00331546495965719806298111,-0.059061740494865164197158,0.998217161387633722391399,-0.0599778461890662986655265,0.0285221274101929225808227,10.2997009472871869917299,-0.058782030807483967582705,-0.0385263044823908815117441,1.06743207445111609743549,7.32594944404557057993088,5.49890281106622236251269,0.31536468566411901548463,1131.46854155203232039639,1139.37059673085673239257,1138.32693326084995533165,1140.48619351505999475194,479.10884575667256513043,385.312152265441568488313,-3.52021801509181075928723,-81.8378844683592632236468,164.103255623969829457565
0.149999999999999994448885,1.12166311731088774727993,-0.0720511980521604950000736,0.466837263447581363173811,0.0208113120083933678117205,0.030041832643090182752843,0.0287233383343141884802563,-0.00791118672365686941005958,0.0033572234241091821263514,-0.0590195727093710195698684,0.998219553203301024346672,-0.0563742703599047628726382,0.0305555907505164897619565,10.3206928654498106823212,-0.0586374810857213379922115,-0.0382045880602146226134863,1.06869436400564454814344,7.32581205461007023416187,5.49886531634269282164951,0.318027295576086332928867,1132.68351694809666696528,1140.42197531576243818563,1138.4164301810394590575,1140.16493546035530926019,478.989742072689807628194,454.796739986840805158863,70.5984771026577959673887,-162.47293118617548657312,164.095957061886338124168
0.152499999999999996669331,0.913167712368462169969519,-0.0898962158306196856827341,0.227616566860958130513737,0.0230362510900311671935281,0.0300010983046956614117562,0.0293417462916454041543801,-0.00790286054329741166624146,0.00340592767208476544446571,-0.0589751897738662253511954,0.998222078026909986903092,-0.0532095507050838606444287,0.032614064375909641857465,10.3413367148356201141723,-0.058500079093855468503893,-0.037868568954932804726532,1.07003253632551431628883,7.32567364568268519775529,5.49882724230126118669659,0.320694180650883287064801,1133.86349026239577142405,1141.64458043079093840788,1138.6799256463632445957,1139.67382885912911660853,453.595452239732878751965,528.846036485992499365238,149.167685022712106501785,-224.309277769861893148118,164.088754522936284274692
0.154999999999999998889777,0.71398947794568190516884,-0.0912045125143832735581384,-0.0106235887736496788236185,0.0248688945609845807327432,0.0299131495456948295896815,0.0292600318086401744999137,-0.00788439817912236183550245,0.00345771757987068132852992,-0.0589307517581983270060775,0.998224675030618402438165,-0.0504227396287048046374935,0.0348226432881501984928363,10.361525748480051589695,-0.0583619273882769254435665,-0.0375027950149234082233285,1.07144680092390554015935,7.32553568794240295147802,5.49878878593235231875269,0.323365168209411579791634,1134.95149420929533334856,1143.06620549819240295619,1139.16226860615302030055,1139.04338907150599879969,458.019278595883918114851,661.495802889475612573733,266.396645821168704060256,-285.070136885815145433298,164.081676348875419080287
0.157500000000000001110223,0.491112838092022219171895,-0.0604102371982293134822228,-0.261690408907199745236483,0.0265221069439111473142745,0.0297337395055892808604092,0.0284501014486176831419506,-0.00784989127631709020238571,0.00350406643549164070403079,-0.0588896895252727647918078,0.998227218148215467152795,-0.0478535467114328816329305,0.0372924441138368506498679,10.3811602326965850551233,-0.0582051967957277829879281,-0.0370939517113711703100165,1.07293654137821858896018,7.3253989521875420010133,5.49875095495863863703789,0.326039997488673571890416,1136.15358665537519300415,1144.95205944523831931292,1140.01190887546908925287,1138.24847817470003974449,435.93331176857606124031,709.964944465308917642687,361.245767531181286358333,-276.956991035285454927362,164.073337907372462041167
0.160000000000000003330669,0.321671969642975008607522,0.00311048026023458745389916,-0.421977966529786752136744,0.0275992846805755941141935,0.0295204967580763623369311,0.0271536475988788973678911,-0.00779844189682361941390321,0.00353921670232413415613237,-0.0588528241559164652652036,0.998229687121846898101296,-0.0453907380507127949931245,0.040029055116317012463778,10.400151597015881321795,-0.0580177163965928180400233,-0.0366399502632313578409651,1.0744992133974544668007,7.32526389579607251079096,5.49871507202271292413798,0.328718027047711192079049,1137.13116076813821564429,1146.61603022051895095501,1140.96849744380892843765,1137.65860411632957038819,414.619521643180291903263,668.459108311480463271437,441.619800297621225126932,-196.930855992968474765803,164.066527529690546316488
0.162500000000000005551115,0.172783931492326597867404,0.118116903565441300205663,-0.514782394582800395532729,0.028251141281867307719633,0.0292743382858240940025407,0.0253570658020598541093626,-0.00773811137601770806376811,0.00356556116102907123127652,-0.0588214490579686694049499,0.998231931047262821543598,-0.0430801445485967035575747,0.0428437113255255158650314,10.4184265586348949739204,-0.0578037995181749503226243,-0.0361594258691328579446989,1.07612943815060813079754,7.32513067098734715898445,5.49868188330715756961808,0.331399312431585102434184,1138.22668426359109616897,1148.29435498679572447145,1142.22000787695719736803,1137.26382389473519651801,553.109401956452984450152,722.766754378152882054565,625.60574864473835532408,-107.437282977525583760325,164.059871760322494083084
0.165000000000000007771561,0.0238737023911974877155018,0.324109665029633120525432,-0.541017543446568605070013,0.0283703288162129134419853,0.0290629812107747707849992,0.0231009712234978431544263,-0.0076765989851148939276948,0.00358613948643437098831588,-0.0587966002512510313438021,0.998233815593477347150042,-0.0409810499210659651136979,0.0455553994073637849582248,10.4359304245925343934687,-0.0575693342617581566011964,-0.0356705785001024122671254,1.07782047709200545781982,7.32499864978796288994545,5.49865111665195183121568,0.334084432924283858401537,1139.89670777792048284027,1150.22986399240971877589,1144.09652618703262305644,1137.12141770144194197201,701.9366427880862602251,684.847241288888994859008,750.058758744989290789817,12.1973026843079317416141,164.052076536120949867836
0.167500000000000009992007,-0.0713910605965196870537071,0.550908015776825354947732,-0.495710555079035664061138,0.0279792643248343401995992,0.0291290905251800312514288,0.0215038236024864930218126,-0.00762224195160929231945834,0.00360575564087522136558217,-0.0587783279812777587070016,0.998235254622706680294186,-0.0391881096645574147907531,0.0479689692191422878408957,10.4526298502730323747301,-0.0573240470486175851538846,-0.0351931308758751462684167,1.07956398306674583587039,7.32486742583212180335295,5.4986226676160399051696,0.336774754333236892023251,1141.73636747753153031226,1151.71859119324017228791,1145.97030167068214723258,1137.32481040815673623001,850.207666844698110253375,561.469025525593224301701,802.479977565553099339013,152.111963915694872184758,164.045749303795361129232
0.170000000000000012212453,-0.135876135014166621317599,0.819333243104634401099418,-0.393167876776661651128109,0.0273049785631372526895078,0.0297724402089538896232224,0.0204037113208310402767687,-0.00757505559855474984443102,0.00362848277207227648544219,-0.058765047059787751948523,0.998236324123214391335068,-0.0377901329010734143842853,0.0500655417028791210887206,10.468514829942737520696,-0.0570773186747241881300319,-0.0347283878443338037134147,1.08135092928631526554284,7.32473669747730049550682,5.49859598145400685353934,0.339471717639168890645607,1144.14774611214397737058,1153.03720912003768717113,1148.10892607486039196374,1137.88197752102041704347,1185.54065704424715477217,543.486823948023356933845,971.856151284463521733414,324.491268175870288814622,164.039607379444390744538
0.172500000000000014432899,-0.184651464368318973807703,1.15071192578959968777497,-0.222542468164392909235616,0.0264375565901686961078898,0.0317168434020734801848107,0.0196355543222791334434518,-0.00753002165685359541036359,0.00365756141340597756492214,-0.0587531595935291139909395,0.998237261167178702159219,-0.0368634417232619679416494,0.0519352143573094254813682,10.4835993898119621547949,-0.0568376058113047519237959,-0.0342659965397759114225096,1.08317163322161480465411,7.32460648935943936521653,5.49856987281973896841691,0.342177032919318391268604,1147.66407076275277177047,1154.43602531298029134632,1150.82958242710446938872,1138.94726674903608909517,1362.49799702372797582939,493.971491138608598703286,990.094669048175092029851,451.483437211299644786777,164.032462212237135190662
0.175000000000000016653345,-0.21188689030754426223524,1.39385104089944467098405,-0.0538096157126485216681822,0.0259259245601113873236354,0.0346827151109345976909282,0.0193911517372054552355021,-0.00748189974164666093958687,0.00369034192785604436143343,-0.0587393541765133114784803,0.99823830978084371334802,-0.0363597908498089969486777,0.0536836669429577167944601,10.4979207140511228146806,-0.0566007993369474007860909,-0.0337938696723401321708735,1.0850165076600000180207,7.32447659299087483475432,5.49854278966800968930784,0.344892271115272708303934,1150.96023609726262293407,1155.50706657573073243839,1153.05939942010127197136,1140.13939470707691725693,1333.58436726339891720272,431.384683066609966317628,836.956192641359166373149,530.605755952549543508212,164.026702962711937061613
0.177499999999999991118216,-0.24084518076581173939843,1.54773016421565223765811,0.128705083389896085543924,0.0256339376318839504143021,0.0392419702460153271839083,0.0195185122820078459093818,-0.00742270667663240575617767,0.00372152815698449787248925,-0.0587215943418818234200707,0.998239669989595679311378,-0.0361765282703312152090547,0.0554813663657509059667916,10.5115382631047662442825,-0.056357487407324810546605,-0.0332934028253416142151266,1.08687651357452663702929,7.32434734046269930729522,5.49851373171043622534171,0.347617674387750597020386,1154.33199259906973566103,1156.59294872831333123031,1155.01436339031124589383,1141.60029552879882430716,1306.81433346977132714528,454.731937850103633991239,702.04541729067716460122,619.979812500471894054499,164.021154461680822578273
0.179999999999999993338662,-0.281782377581897336416006,1.5918770571127891511054,0.313271892222745040879062,0.0252579136928568759312697,0.0448052070910958596949847,0.0199793878374370688366657,-0.00734905085953477775484455,0.00374787665388292071111387,-0.0586963097102122799419988,0.998241590195648287320296,-0.0362452599301622130356648,0.0574036504060745356170514,10.5245315758425164176515,-0.0561023585462179785743331,-0.0327560308950261558358363,1.08874298067020669478211,7.32421880797677538055268,5.49848284011578769536754,0.350352647186213672636512,1157.49430776461144887435,1157.78072626498124009231,1156.56962650655464130978,1143.23929376957926251634,1153.54012248098911186389,512.85932835980884192395,494.834796360646123503102,686.148488765138040434977,164.015786492258314410719
0.182499999999999995559108,-0.346231366999474599044362,1.4820799098918153724469,0.4888440639923130603961,0.0247447667257590687983626,0.0505848708428209489773586,0.0209255684243288692103491,-0.00726449395945824930032053,0.00376476829134826185621621,-0.0586633093405016514676475,0.998244072569000051586841,-0.0364574980362654885168716,0.0593858491386898001973549,10.5369961820550166464727,-0.0558262145673845272542124,-0.0321889593190748321549499,1.09060868665287591383617,7.32409169101476820173957,5.49845179903831837719963,0.353096313029835184860161,1160.09969321147468690469,1159.15724537011237771367,1157.48853737211447878508,1145.03103797262451735151,964.291888161232236598153,645.176536814641963246686,241.010543537686089621275,806.971837724858460205724,164.010642676251734428661
0.184999999999999997779554,-0.457682523617281677985602,1.18320756159797757511853,0.673639160527819913504288,0.0241231839348261117850214,0.056499683402034261980873,0.0227092150349902585637629,-0.00717763494599493560854864,0.003774201623364347585321,-0.0586247993405382972209594,0.998246915338982687693203,-0.0368348634707639371876908,0.0612531089546737711470925,10.5490398579318078731148,-0.0555336363918857087162984,-0.0316123030241031166553967,1.09246776696229175307451,7.32396645797004630651372,5.49842221430225919220902,0.355846970170597631799581,1162.31576720541761460481,1161.00660894905445275072,1157.77467922424307289475,1147.27415295820355822798,648.429147233263734051434,690.835357259401803275978,-22.1377420591579507913593,826.648554266511609966983,164.004736459278944948892
0.1875,-0.579208658749886695638054,0.829934728837452007077502,0.795220387835368414108927,0.0234602116107749392170945,0.0597222100052606022502211,0.0246756357493218732301887,-0.00710007764314141576883488,0.00378246819382869114631318,-0.0585802532816690132988491,0.998250040572136176919571,-0.0374824656522153368265471,0.062764973521251474219973,10.5607768731201385747909,-0.0552384339554992734311334,-0.0310539526694857404010008,1.09431661930470869315002,7.32384316595816553530085,5.49839507377475733562733,0.358601494121054353847455,1163.34183894764100841712,1162.61142215640938957222,1157.37784866181868892454,1149.16428074395707881195,258.612141844514326294302,616.979506142205877949891,-255.737903224644242072827,750.347849425133290424128,164.0000405484653356325
0.190000000000000002220446,-0.722364295810588030732902,0.43109557143696786152276,0.872865327920765543545656,0.0224029577158736080411128,0.0604797987289412419809054,0.0268212098230902057371949,-0.00704230954782996809021567,0.00379820746117380276390962,-0.0585292096977864592655116,0.998253368248536387952186,-0.038553793125573679323459,0.0637052101017375888014627,10.5723217825359849797451,-0.0549597337205867883525023,-0.0305404907648965107114236,1.09615450193702823611375,7.32372186643126799054926,5.49837113392109166909449,0.361357786262839264512792,1163.60882791464018737315,1164.09150647976548498264,1156.49598970811985054752,1151.0258922053292280907,-3.62344836039482887102281,576.853865399879737196898,-437.601221846079681654373,807.708314761020346850273,163.995582166485490915875
0.192500000000000004440892,-0.898459217405575438775145,-0.0272009710358919187811466,0.907075905641250845867773,0.0205705858135109727335976,0.0589243858269371881264398,0.0293381536977282524059074,-0.0070124601862796365550623,0.00382639027789498853068806,-0.058471375446872177195079,0.998256841810940542814024,-0.0401254875562478408035361,0.0639156152126674481639412,10.5837826395584730931887,-0.0547088702590451739227184,-0.0300933862133800078542123,1.09798402668085826050515,7.32360199347110008005757,5.49835019700452765079035,0.364114821557022849685126,1163.32372170583903425722,1165.49569148340879110037,1155.18984255258828852675,1153.2028223177621839568,-155.272394900748480495167,429.695153650345275764266,-469.066979837452493029559,789.954716223473269565147,163.990508054736238818805
0.195000000000000006661338,-1.02720962870561072222131,-0.356726521659450124257518,0.881159113548120043191147,0.0184837383133319675676542,0.05667908627830000461989,0.0314742912283767009573587,-0.00701325969567702118406816,0.00386832119685558356927957,-0.0584081689236968445988474,0.998260358398331493212652,-0.0422011939709518169028257,0.0633604639837021949011486,10.5952553325896818847696,-0.0544895771161071837407341,-0.029722077540568360431994,1.09981079217625477006948,7.32348301166360826641721,5.49833201986008290873542,0.366872110711163490481823,1162.83246594013644426013,1166.23998224801721335098,1154.15065480893258609285,1154.97566578644659784914,-193.096288240394471813488,200.932251190488216252561,-351.292234336869739763642,706.397523220356788442587,163.986509153363527957481
0.197500000000000008881784,-1.10651253989207942751705,-0.620058359795133240410792,0.792081500139556582418265,0.015654849017793900228801,0.054623394873460962006817,0.0338610964588325763502397,-0.00703689456006316698538638,0.00392140814194463956099401,-0.0583400297126764263988541,0.998263960508563030771256,-0.0447125331671567177727056,0.0622350215719068150521665,10.606818797270815224465,-0.0542982017553642684615234,-0.0294119314598390128867589,1.10164301382604201684501,7.32336418928358412472335,5.49831647382183330563521,0.369628817368889361905104,1162.35824026463706104551,1166.50035273936123303429,1153.43338138090393840685,1156.73480993386397130962,-157.710509990329086349448,32.7895145852835128152947,-206.901221677298792656075,707.279919552365072377142,163.982746329328733736475
0.20000000000000001110223,-1.12192874299029843321307,-0.837258123094119621754317,0.647784057526370804502847,0.0122397078636128087136825,0.0530026872867696910440749,0.0364750376673039153341271,-0.00706774178570140129002075,0.00397336473521012548126841,-0.0582666963248107960815503,0.998267819321955407474434,-0.0473927671610946885105697,0.0609148370620456042212609,10.6185309027161594030986,-0.0541105692339694868686628,-0.0291290812484565030116013,1.10349127269652447225212,7.32324625809666418518873,5.49830333969787599102119,0.372385806061626078999893,1162.04391339018479811784,1166.40392982094363105716,1153.11614870054609127692,1158.51206538420842662163,-74.5333665307497739149767,-98.9870172536938355278835,-20.9628234899355270215437,720.611983650359661623952,163.979176439724227520855
0.202500000000000013322676,-1.04045985902807336387355,-1.01524502501106406171516,0.443161155880393398120987,0.00852403293397563724398402,0.0516607102567568435280698,0.0389163645119559933882591,-0.00709290890040786999037881,0.00401480902144569010148167,-0.0581860255704664958154027,0.998272185290921876266168,-0.0500302339046594310434379,0.0597157009962674539815808,10.6304272447714183158496,-0.0539083637511399219044428,-0.0288447892181370318942513,1.10536583588989256732305,7.32313009131243219940188,5.49829183553350642199575,0.375144216335086211344674,1161.98557343198331182066,1166.00541765309276343032,1153.32856726345426068292,1160.33786985211577302834,22.317874127702431508169,-201.139821500282607757981,201.791647293066318979982,812.88733119272296789859,163.975834321081606503867
0.205000000000000015543122,-0.82402729573212984970354,-1.19394631142357798836429,0.156061669667472507905259,0.0044256271108111611481406,0.0496028516206680758493519,0.0406016287209576970385072,-0.00710275646631005914272139,0.00404296711230320033464425,-0.0580986345882340965429691,0.99827710016150794647416,-0.0525478266596388632336811,0.0588767805006772948495097,10.6425199832584933545832,-0.0536870621693984750866235,-0.0285374042331075841727461,1.10727563759544800348067,7.32301537140623182153831,5.4982808346414628886123,0.377904029487397929987225,1162.15550276082331038197,1165.39823071344221716572,1154.12510693701142372447,1162.57650204017204487172,80.640345443362022592737,-209.917924249202570763373,359.604531075092040737218,817.807523261671349246171,163.972079499273604596965
0.207500000000000017763568,-0.556244019624950625235726,-1.30844339477473758925896,-0.0842563723496101979471007,0.00183993827813879232656313,0.0469710363103317263266945,0.0405471490898092756793858,-0.00709058777844194521033927,0.00406478662267135970598275,-0.0580061404353560614022278,0.998282486481319897286824,-0.0550705709986665722932564,0.058560947747013772368696,10.6547976599477340897693,-0.0534629756124578581211182,-0.0281918935184201913113355,1.10922746713941111629254,7.32290135142174758442479,5.49826925939985766689233,0.380666580525074182972389,1162.38877515920012228889,1164.95582803184674958175,1155.12658991882972259191,1164.42690746842413318518,81.6943845747122594502798,-127.267463871294836508241,439.118396538926617722609,711.08226292526853740128,163.969158157276893916787
0.209999999999999992228439,-0.228834669802177481656713,-1.3699948464618934007575,-0.28143097931638383357722,0.000484860977149176558109039,0.0433523852077954963135653,0.0389884872004567784031792,-0.00705535976015725374566046,0.00408634335408109613391181,-0.057913407603425066938474,0.998288041659113223325051,-0.0576986641540778513737031,0.0588084726161352822071393,10.6672250387386746695029,-0.0532494441387229427986583,-0.0278048747710781599118413,1.11122661591270199821224,7.32278771449639798163389,5.49825707148572195848146,0.383433053427245595923267,1162.56397468369686976075,1164.76189339408574596746,1156.32069891970604658127,1166.13191335479837107414,35.6174090387414068459293,1.59894517455541818051756,538.419636968503937168862,674.422840071295922825811,163.966446831542498330236
0.212499999999999994448885,0.182639852727551621480728,-1.36335032750938767165394,-0.430293195392267402432651,0.000380200753016723274908123,0.0383024486576518663483171,0.0360301985694803511561801,-0.00700264103985107858735271,0.00411443940413229805597162,-0.0578244093194784508638051,0.998293466524247663507197,-0.0605401670570857447506441,0.0595117767313865370093495,10.6797450988656414949673,-0.053060441650838473248708,-0.0273868478793401412541009,1.1132764325348258882542,7.32267386838818445937704,5.49824389664753887529969,0.386204976306691649678982,1162.566862204393828506,1164.9638227577195266349,1157.8186881036722297722,1167.79902166878059688315,-42.3801734545122243957849,155.651679127413302694549,545.237247740396469453117,515.568489104088712338125,163.963430863591867137075
0.214999999999999996669331,0.500914784434507764920852,-1.2861233646339409464332,-0.472811256265165236190029,0.00156049860492486476386265,0.0340590526681965946598218,0.0335664589059096671319615,-0.00694274335452989624362097,0.00415333939546411960025418,-0.0577440066565887630267717,0.998298388805801018008879,-0.0636444378327041260234864,0.0604576591010442115914358,10.6922815646114930387967,-0.0529035741785368052170213,-0.0269581800379351151086826,1.11537872751367039825254,7.3225598830090294910633,5.49822966413330416202143,0.388982473831553987597687,1162.35207381642430846114,1165.54015178972281319147,1159.04688515840803120227,1168.70975580031881690957,-124.932900935755128557503,310.043408471119334990362,481.785848636945502221351,233.904652553291981575967,163.961112642038614239937
0.217499999999999998889777,0.749033229437561898222953,-1.14580077717667472292362,-0.445890445001011048731243,0.00398288376039782933413225,0.0307195518862225375178454,0.0318840446911649380568043,-0.00688891427323567572676977,0.00420934313740424850824873,-0.0576735537708810280799199,0.998302610819640001693642,-0.0671014691991491385447688,0.0613583637127158992852216,10.7047425137171092757171,-0.0527907475089188504835391,-0.0265456227707845417163046,1.11753341889925872365552,7.32244555182442002916332,5.49821444418855342917141,0.391765695711785322252751,1161.94219769971505229478,1166.51403980007512473094,1160.22761734685695955704,1168.96854493154705778579,-200.448976309917100024904,497.037426379301450651838,517.864491684167205676204,-51.5834812379579972230204,163.958994423540332263656
0.220000000000000001110223,0.927818923749022417268861,-0.933341413801881292222618,-0.371617453538214570496478,0.0079392817358152276141503,0.028233760804392483284575,0.031035802528910982206467,-0.00685058821645974282826819,0.00428368490717177460846976,-0.0576130308605230651020079,0.998306061972406122428936,-0.0708990291941281602916547,0.0620046199562935551607978,10.7170235770269144381928,-0.0527232409610827248980236,-0.0261668939880130013708737,1.11973969538644935184379,7.32233090667121810923845,5.49819797066101845217645,0.394555936167234444500451,1161.34982893487472210836,1168.02533892161932271847,1161.63620761682886950439,1168.45183839412902671029,-209.053901728793590564237,586.817543397909844316018,529.360996021750452200649,-319.477063403564613963681,163.956682184182682249229
0.222500000000000003330669,0.965504970463479827991193,-0.740747121679664055626802,-0.3048442322456522135532,0.0115488132747079350060027,0.0270620102040361708295446,0.031104346121855971224468,-0.00683287365901872213030943,0.00437300746840380352709055,-0.0575564342516140733940766,0.998309066182251902965561,-0.074932234440719058810032,0.0622764051040978483531063,10.72901168533960536422,-0.0526930067902347393227203,-0.0258293848247869196887994,1.12199613235071904426832,7.32221691666209739679516,5.49817993834306140144008,0.397354704603740727097971,1160.8969281910710833472,1169.44812751706467679469,1162.87442232696571409178,1167.37115961452923329489,-142.837358400129119218036,570.96937091528116070549,527.525402193395620997762,-535.866682059940558247035,163.954946357793318156837
0.225000000000000005551115,0.895211780882352980981409,-0.546522357293738769712377,-0.25902392887469061211192,0.0147561195237051884232571,0.0261058240032883345782544,0.0313954435813825205592309,-0.0068352381956136073343222,0.00447027862214185479905471,-0.0574989549276823247447865,0.998311933624042358026429,-0.0790254166805466062850627,0.0621724882543660262168572,10.7405887794347663088956,-0.0526845725415784615908166,-0.0255282602468273472906546,1.12430096096859943877178,7.32210387762872993988594,5.49816145550335200198333,0.400162130242192937146228,1160.63564214287407594384,1170.88018577619573079573,1164.27383462779584988311,1165.77250498382932164532,-54.7892480063637279386057,551.716023893686269730097,595.572675624952694306558,-689.174429618469162051042,163.953409295371983489531
0.227500000000000007771561,0.755930344397399145428551,-0.352711221348137982101179,-0.238444138291459412082318,0.0171557503623706031348206,0.025032354753074321368489,0.0316200166674244428910434,-0.00685207948700913144213231,0.00456769079674555419923188,-0.0574347162247525536149517,0.998315075603427026784686,-0.0829930325967538212728059,0.0617962961547381117721756,10.7516353426497879297585,-0.0526814553837793714263782,-0.0252480237032728094259681,1.12665214231404742228904,7.32199228347951613926625,5.49814380140826575171786,0.402977421978352179365857,1160.62298195103926445881,1172.20670763653311041708,1165.85228570509048040549,1163.92528746643688464246,68.3636082528664132951235,482.118443573971944715595,672.313002478494468050485,-748.36711268690055476327,163.952037732036558281834
0.230000000000000009992007,0.568767625507213048230426,-0.157151534616273597100289,-0.244178194218512056856696,0.0183824169968575465428096,0.0239372735891876207980911,0.0317243899777644305926216,-0.00687746900607905890107086,0.00465966491356102369830738,-0.0573613836570686999594137,0.998318693855498207057053,-0.0866991520526070313934497,0.0612528968813518814862107,10.7620335163349292173507,-0.0526720554300214652276857,-0.024974016830543614708926,1.12904719469321390690197,7.32188235529423980807451,5.49812753847453627997766,0.405799466889638804634188,1160.97746018413840829453,1173.29077799406559279305,1167.63539964018832506554,1162.0306694203948154609,248.113117608545280745602,397.49369776645801266568,809.655804142220631547389,-783.841085884341055134428,163.950866740372276808557
0.232500000000000012212453,0.333974174427732029002414,0.0770614745134726858433183,-0.26167421297109794142699,0.0186960030735014784419867,0.0232403026013937134830467,0.0314687471513496186403813,-0.00690506593824750068699725,0.00474237449641865330129953,-0.0572818331787628698403836,0.998322686238707901473788,-0.0900480675517672246588319,0.0606531967864653714928025,10.7716697728461330285654,-0.0526484803771908663194701,-0.024692262695459744892279,1.13148347991503084308818,7.32177367947961510452615,5.49811304143692414214684,0.408628003457448374380334,1161.86354753908199199941,1174.19417612536540218571,1169.90056472580158697383,1160.00608203701517595618,401.308039053537527252047,252.186321776161776142544,823.886669407192357539316,-666.543050348217889222724,163.949694954129739699056
0.235000000000000014432899,0.154497759451260291418961,0.2629982837554872276975,-0.263033927862953043064209,0.0183324155390505970364412,0.023545006658700629031955,0.0305904428237059322626124,-0.00693337952517501972249381,0.00481391438615306511972225,-0.0571987294021231093554825,0.99832692050946136852474,-0.0929811207578743886825734,0.0600014938751525228610717,10.7804372929793199631376,-0.0526063821318911925550843,-0.0244007486627155975589254,1.13395805188962039977696,7.32166565334671037845737,5.49810049643732678958941,0.411461133418977442754993,1162.98400037940609763609,1174.55170960294640281063,1171.75483298722429026384,1158.69795416865372317261,522.046712330620266584447,51.4344885853460738189824,694.880295987376825905812,-420.548563946476463115687,163.948914251489526350269
0.237500000000000016653345,0.00618326019090341752471041,0.423969604387317178240124,-0.223231433629545839014696,0.0178995555189811611507267,0.0247791000063001323749923,0.0289524140595982804047281,-0.00695767745991255053689128,0.00487001631235360957217218,-0.0571173174450109039090862,0.998331151215307355251127,-0.0953953547088081943439164,0.0593764558664734848347777,10.7882382411459971649492,-0.0525362085374258547254556,-0.0240907316200358496971479,1.13646838450967346823006,7.32155836427569362001577,5.4980902915008114106854,0.414298448468394697741246,1164.47378110073509560607,1174.45134856829213276797,1173.37496620573847394553,1157.90333921728279165109,727.777603499365568495705,-151.124472675974885760297,613.872694485965553212736,-226.170436872372334846659,163.948338507409800968162
0.239999999999999991118216,-0.135609604665209715346208,0.573664343521522401836421,-0.109871269781159755507538,0.0178240966282631752015675,0.02683238256213972550146,0.0271750945370258234490279,-0.00697248282434384959033169,0.00490556434299943121962739,-0.0570448929418296765692098,0.998335026133130964964835,-0.0971732733653749014557377,0.0588769014909450438821636,10.7949858863062235769803,-0.0524262976406314890054361,-0.0237522747010955083413197,1.13901184120884146899755,7.32145218932986008297803,5.49808282031066930528596,0.417140232792731380229156,1166.62288839690290842555,1173.79608723956653193454,1174.82419645965410381905,1157.56710198429186675639,832.382846818658663323731,-322.165655544405694854504,423.762139987640864546847,-30.4503118019512442060659,163.94788684887691943004
0.242499999999999993338662,-0.22702996363153551961922,0.657958930953225995530431,0.0372942047362069400984197,0.0179297356692166807989874,0.0286452193610234988330188,0.026508421945917685219607,-0.00697729177385865949323485,0.00492146855056657585997248,-0.0569848987751816679625527,0.998338348689647325784335,-0.0983236524197643457778639,0.058490498191288958773626,10.8006064014094764758056,-0.0522779503295977832078023,-0.0233873303858933394294706,1.14158440997129995153614,7.32134745777838968905371,5.49807844217535635067406,0.419986815875689034616158,1168.63569533482836959593,1172.84052029057011168334,1175.49377690567666832067,1157.7510876582730361406,823.072079879329294271884,-449.086022597429803226987,140.270580574133305162832,147.461111345000830397112,163.947711665868183672501
0.244999999999999995559108,-0.289398183593785107703411,0.702533827369331231871286,0.223007085800726034818808,0.0176263690144659833369811,0.0304585176164038490265185,0.0267079967834542471305515,-0.00697532751219360341865539,0.00492717674090907466893929,-0.0569387984046049386299693,0.998340965881240771651051,-0.0990384059413882689160147,0.0581181268700665387694215,10.805040535706302406993,-0.0521113544252339508378036,-0.0230072263135227758623635,1.14418025468371520325661,7.3212440187987244399892,5.49807642391276907289921,0.422839146593007253471797,1170.73824879629955830751,1171.55065712657938092889,1175.5255493625247709133,1158.30440754101687161892,828.452739113708275908721,-551.488843488868496933719,-93.4127966793766120190412,262.521741724094454184524,163.94774753448950832535
0.247499999999999997779554,-0.321188555797842334449399,0.719338796733531959937125,0.423949722379648841208422,0.0166958894081345211868328,0.0323444045757624379366924,0.027456032188960022982771,-0.00696585990201340279903697,0.00493415638446733240823905,-0.0569055001603761059780773,0.99834288839441331919744,-0.0995619894348199196976168,0.0577478018239624413254774,10.8082453382122753993144,-0.0519518119555757926231188,-0.0226140041021058307846303,1.14679257990187544180571,7.32114170724155055580695,5.49807639086230715008696,0.425698394720998407603219,1172.77795903039691438607,1170.08307607312576692493,1175.02671292227978483425,1159.06369636689350954839,762.822023441912506314111,-599.375848770795869313588,-315.396981004596170805598,330.08546696305501200186,163.947959773063331567755
0.25,-0.307499582942687810227511,0.711834861199106883056231,0.621937546830363174876766,0.0149684196550242051837465,0.0343466947968775818123,0.0287358389013290388414035,-0.00694832134200216132435823,0.00495475369962991747663228,-0.0568834613899109678425425,0.998344148782999041280561,-0.10016221594882329659626,0.0573675054306439224927061,10.8101954234292207956969,-0.0518265052882251331389796,-0.022209621672066873210305,1.1494135759522865480875,7.3210402417333604319083,5.49807790150280251140202,0.428566368508622119737339,1174.55235891350912424969,1168.55377788272539874015,1173.94856445750178863818,1159.95483487583214810002,671.115859516975774567982,-641.513966612819217516517,-580.416088449555331862939,396.659808752974299750349,163.948385763448669649733
0.252500000000000002220446,-0.239900204994119070622816,0.691354844048952310586742,0.82878131755799389068784,0.0124826559933080543512984,0.0365892033418305714920216,0.0308921018725455132081237,-0.00692176355656963070844823,0.00499817878263021479756656,-0.056872476944179128910406,0.998344721511208899045187,-0.10104452832307656007238,0.0569816345167839938268273,10.810883821417988315261,-0.0517552732982734797761992,-0.0217942301548181630033163,1.15203506305546810040141,7.32093871983925481572442,5.498080382834531931735,0.431443890484511705096793,1176.13353832798179610108,1166.87550624006166799518,1172.12463248003200533276,1161.04699541065838275244,459.481284692537485625508,-553.67693342932352607022,-730.244841200828204819118,388.111087583274297685421,163.949144719725950380962
0.255000000000000004440892,-0.15891702126664788985444,0.680336066240898929002867,0.956092976380631398569676,0.0109278021463344778702043,0.037976572781649911569879,0.033321987868465789695005,-0.00688997989255085360738029,0.00507178377741294549724271,-0.0568663473405823863271458,0.99834489598558506795456,-0.102372113168704079178006,0.0564976981943065142965921,10.8103220679252789437896,-0.0517530455498199579156271,-0.021377425594950885678891,1.15464855205462035847574,7.32083653401434997221031,5.49808306833018356485354,0.434331758083721708452174,1176.84976533697181366733,1165.78539321557877883606,1170.29734025149764420348,1161.89539031374852129375,143.198209660567840728618,-332.005719743801535059902,-756.516236673814319146913,308.864120728230489021371,163.949983601469398308836
0.257500000000000006661338,-0.0947090118070539332961744,0.693677245295230227029037,1.01662351717175836185447,0.0107716658697111031944837,0.0386949700058605502994702,0.0364309936834159714402759,-0.00685710621567534994030835,0.00517456106513864994705942,-0.0568591235797169872179246,0.998344984530873502670545,-0.104131663835567989107034,0.0558292687582228469578283,10.8085398950589688382706,-0.05181529331133265248166,-0.0209680032753689557512011,1.15724660482165075947592,7.32073351768853708421148,5.49808605212049172905608,0.437229029383622902482642,1176.84952937628463587316,1165.21547764134265889879,1168.34205129666293032642,1162.59131601429953661864,-158.105947124749803833765,-96.1305960608114276055858,-839.99135361818764522468,251.580063331266273962683,163.951036044231642563318
0.260000000000000008881784,-0.0958677125549104863777572,0.746491997495197456835569,1.00006965416521786949033,0.0119141133622672808906051,0.0396594170881136923179078,0.0404443822880834399913219,-0.00682778060787594086311625,0.00530248578433570837142863,-0.0568427695077575595439257,0.998345430796840682674542,-0.106247942637996278802959,0.0548853131730699383972194,10.8055840551795281356817,-0.051930420267989219063054,-0.0205749354323963434820755,1.15982276966288866404398,7.32062934257279085414893,5.49808880999346438755992,0.44013540698870534662035,1176.05923560134806393762,1165.30474023527472127171,1166.09738348340670199832,1163.15329063040485380043,-395.535033464875255049265,172.871864558555756730129,-769.698688711331897138734,148.459078489758979912949,163.95254426515185741664
0.26250000000000001110223,-0.19568339095684270101394,0.814459857450667956690893,0.915049918868813705330467,0.0134223873849885488862554,0.0413093171824064422925638,0.0433594837739760471939654,-0.0068043029725733637780305,0.00544494668462757337029645,-0.0568153180541610958176335,0.99834638231877936842551,-0.108511034127585254127624,0.0536361428131585105116841,10.8015167927492683475066,-0.0520718045601459983418025,-0.0202012363663915395228798,1.16237248912710722237307,7.32052432422153742663795,5.49809132807770772899403,0.443050047622724818552342,1174.87185420896025789261,1166.07983696413543839299,1164.49355785310626743012,1163.33361140674833222874,-536.158977349350152508123,448.527740185363256841811,-549.527389553667944710469,4.23187251712988299345852,163.954003817755079808194
0.265000000000000013322676,-0.412903938116047419804033,0.889825245599703107401979,0.772724964499116429017533,0.0147518071787303278741277,0.0437041759458714762498488,0.0453015815962948126260912,-0.00678489942600084359330959,0.00558867574691358781624473,-0.0567788850214282492245843,0.998347798008543674264104,-0.110662473063333988143597,0.0521454368466407885973624,10.7964136833272714710574,-0.0522073046544719102102228,-0.019840385568738506255615,1.16489306422902050286439,7.32041898813320024430595,5.4980935132037043189257,0.445970798173864590996374,1173.37844071460131090134,1167.54737893620153954544,1163.34974653563836000103,1163.17444999299050323316,-664.11312193031278638955,771.853523365143018963863,-369.386100283372456942743,-144.21916292762929856508,163.955671138596699165646
0.267500000000000015543122,-0.785197913873452280064669,0.969925128817489712318434,0.560751704073154555452163,0.0149155452671009009640857,0.0465726075802140246362448,0.0467261200024234393812783,-0.00676910163776994061590742,0.00572165542561635896701144,-0.0567372782097926298128243,0.998349528262814422951976,-0.112471779877605870812118,0.0504489757493906884611157,10.790360892214456711713,-0.0523078336054111220354557,-0.0194892549416647506421718,1.16738316230942751339228,7.32031418025649038838765,5.49809579953153804154908,0.448896119242294111550962,1171.55128859930869111849,1169.93910458096115689841,1162.6466273516894034401,1162.61251559211018502538,-634.951583363317126895708,943.479666802158249083732,-137.510132803617921126715,-253.331635051517650936148,163.957908561271636926904
0.270000000000000017763568,-1.14526891430407440353179,1.017931788658401837111,0.364656117125276235668707,0.0131349105733493676240187,0.0487113690407812716109959,0.0474919066382096799472379,-0.00675725702907782350276067,0.00583642259866453978062184,-0.0566936265077794057654081,0.99835143437515372344393,-0.11380681477610365970321,0.0485610862665651690783797,10.7834522640857368713796,-0.0523553048884851449096267,-0.0191473728130946360681541,1.16984233892226874296227,7.32021069862492623769867,5.49809817494148589389624,0.451825009739779848150221,1170.20368279778472242469,1172.26477727021233476989,1162.66219587162026982696,1161.90779181773291384161,-470.105845988200201190921,944.651547812372086809773,128.160973692092625242367,-301.35425658145294391943,163.959967471724212373374
0.272500000000000019984014,-1.48862619644711458022357,1.03394917966738253412018,0.159502207802790979540575,0.00918259605215037202907702,0.0507791600289779765375897,0.0480092945696654685439064,-0.00675008677840564785821442,0.00592920669109672868885008,-0.0566492550245781892326313,0.998353459999900105792392,-0.114614187427875074964945,0.0464854641674034702036877,10.7757865979486506802232,-0.052340766887544382113262,-0.0188158088497451490839207,1.17227081397715160449025,7.3201088730067640497623,5.49810059074588863836652,0.454757264800678018268343,1169.20075936936768812302,1174.6623623200230213115,1163.28743222014986713475,1161.10574430920291888469,-335.030927415936901070381,930.801853699039497769263,338.611195781322464881669,-309.353972118742319707962,163.962224573607670663478
0.27500000000000002220446,-1.76795769289490567466316,1.01034640427576882792948,-0.0479241207325044257792079,0.00390188233642696892869428,0.0530785654735501585821389,0.0482319396935386515701261,-0.00674753108485813893335781,0.00599914330886765472666822,-0.0566038347186847493053286,0.998355633476915027557652,-0.114902301726729938469163,0.0442414150034797504229545,10.7674652217364226203244,-0.0522626752547858952624438,-0.0184944847445627086335307,1.17466917258395131540283,7.32000826791484371369734,5.49810325960287471502852,0.457692390464338794142662,1168.52852816070503649826,1176.91878653870753623778,1164.35525185052688357246,1160.36102195713920082198,-196.903979061334950984019,830.172757126910482838866,503.995598041819448553724,-251.088731737081388928345,163.96464317296081958375
0.277500000000000024424907,-1.92605162256550022092938,0.919309593734785712726421,-0.251997986047026778511082,-0.00220460127718054808843018,0.0559064476665879148131744,0.0480032217655067608430564,-0.00675310089971629078087201,0.00605187878553828037531126,-0.0565529754172763576836047,0.998358149839458142160709,-0.114811835594527872350668,0.0417661697446266438893403,10.7585895309416947895897,-0.0521347885602535185411988,-0.0181927328872208242394048,1.17703738943498548152888,7.31990821992553897246125,5.49810637405164381874556,0.460630431626657566024363,1168.21623947406101251545,1178.8132261056575771363,1165.80741021035896665126,1159.85030065051751080318,-81.7806887118876346676188,720.432641590331741099362,669.907911736117398504575,-137.327903561253947373189,163.967252834762177826633
0.280000000000000026645353,-1.94950610786354494585737,0.711349685203400139421603,-0.482821119077174121247964,-0.00976892938565702279030134,0.0596999500820636561093657,0.0473527158451773899638937,-0.00676799548768706495105452,0.00609268851226254549990902,-0.0564939406323216042338231,0.998361129861464746682032,-0.114474245397769264220855,0.0390507319474963573990856,10.7492597333828125982791,-0.0519707371385263322549619,-0.0179152001797483750866746,1.17937528914866707197007,7.31980868849662247299648,5.49811036491096771783305,0.463572667911483993208321,1168.11962471714559796965,1180.52094974665919835388,1167.70479140920747340715,1159.67438243933293051668,-14.607516034448041253313,523.964082541987863805844,669.631901168076524299977,21.4719774884542680126742,163.970600251591292817466
0.282500000000000028865799,-1.8350626115911945479553,0.452923111287721058548783,-0.652552413210375270580244,-0.0155559182166371736538713,0.0624521346865543267035115,0.0466237398339914357880964,-0.00679168374458090015610701,0.00612455893055455485168848,-0.0564247938685442720907481,0.998364676920355798017681,-0.11396893543205000032259,0.0361297478153129042466318,10.7395735158918110840887,-0.0517794480330065684525742,-0.0176628418580183702002451,1.1816823801360332168997,7.31971033191402042916707,5.49811584710763412431334,0.466520753852873337752527,1168.14320189388877224701,1181.43304651836751872906,1169.15556971619935211493,1159.95766053795978223206,4.44011441627480607508005,258.508093369755215462646,492.323682482992353470763,201.944418141328981164406,163.973565695035404132796
0.285000000000000031086245,-1.61129996516299223152657,0.123998608279184491243186,-0.777834197641238622722426,-0.0198982823228638222579079,0.063807776562560217237241,0.0454454727013731754614589,-0.00682075138105970972535186,0.00614662116982884598054282,-0.0563513173403185699261719,0.998368497089774820096864,-0.113291316344857756481801,0.0331085378852434414342909,10.7296249550875923972626,-0.0515614046790047603208151,-0.0174304820055873541106983,1.18395791702296659941851,7.31961443822897717126352,5.49812433131235511751811,0.469476038376685222974771,1168.14182528922697201779,1181.81349021350797556806,1170.16640982162243744824,1160.68410453003957627516,-23.8120612636521187255312,46.4271675326926498428293,292.850311429537839558179,401.648572152043584537751,163.976708785402138346399
0.287500000000000033306691,-1.26644251933640927809677,-0.31023059032291877556986,-0.840397144950825847331544,-0.0231739998734934830870724,0.0636605324635215324979853,0.0428708746479519037242412,-0.00685503074642058052995397,0.00616536775998208046167814,-0.0562813841635175574062977,0.998372105719726787853574,-0.112584900614468047530536,0.0300173160001525399231959,10.7195024849816533674129,-0.0513343023216577473699651,-0.0172219949298461245945635,1.18619966177640945304006,7.31952168534663449861455,5.49813625697923225033037,0.472439702585057352823839,1168.0241415875705115468,1181.66518235603098219144,1170.6198212733470427338,1161.96590339872000186006,-65.0654383674015974747817,-156.102724061158141921624,26.7984390171480306719332,513.748906762207980136736,163.980679738780622756167
0.289999999999999980015986,-0.948454996131202321407727,-0.668887558113076430288402,-0.790332194960442824260838,-0.0247564971775614539595267,0.0623608170334376613053173,0.0396380220248141526551144,-0.00689325368240193119689918,0.00618281859400654932451546,-0.0562212966319876952803192,0.998375140212201639400291,-0.111892529134460183559696,0.0269178765212279777485627,10.7092883207301845516213,-0.0511055268318959393658574,-0.0170377603535592225814099,1.18840559171123594239816,7.31943199030944846583679,5.49815179952943289265477,0.475412242127331130525647,1167.81649809738996736996,1181.03297659320219281653,1170.30040201670817623381,1163.25284906385059002787,-99.6383452376913965053973,-362.196691651983257997927,-255.459552790673910749319,524.92291459998875780002,163.984150170758681497318
0.292499999999999982236432,-0.622556682181061749048467,-0.98197662179894806833147,-0.611870454306184807791169,-0.0258005276458764636060561,0.0599614510462534999746254,0.036001607265095755816553,-0.00693699087108185213218503,0.00620107660322301735417172,-0.0561734505790594598750864,0.99837743829308622789398,-0.11124978718268091482102,0.0238125066014739511510712,10.6990564678222845884648,-0.0508821017577936740572397,-0.016883958030442240000335,1.19057377948085929553201,7.31934498976374037226833,5.49817004889650284837899,0.478393912848740721077689,1167.52594986138205968018,1179.85419889777108437556,1169.34252350939368625404,1164.59051797171991893265,-134.718353478274252665869,-646.165950201702230515366,-514.589817000068705965532,557.470920238392409373773,163.987782062647852399095
0.294999999999999984456878,-0.229983033842185380368761,-1.26206649188143993356448,-0.257583676667218652855951,-0.0267951284797072267207518,0.055947355474006740805315,0.0325076275535101100189195,-0.0069814787507256944459888,0.00622295833870370723034382,-0.056137955540936049225742,0.998379005588036161356058,-0.110710595238653369820625,0.0208380074536473683388671,10.6888716437970519024248,-0.0506731207695950147673614,-0.0167506069030503093597595,1.19270314082427475455006,7.31925969072894844202892,5.49819061862678903906954,0.481385116664217516113666,1167.1429063299985955382,1177.80214684219367882179,1167.72745293170783043024,1166.04020366504255434847,-139.057198089585540401458,-851.077226725282457664434,-616.291112259022497710248,475.366711155447376313532,163.992319643944881590869
0.297499999999999986677324,0.0998469137889089891624295,-1.39181382791862873204991,0.121378825981270546674473,-0.0274771898874139781920878,0.0516174871868753659676088,0.0309218399797989429433898,-0.00701832952343955842472445,0.00624657010471508806342955,-0.0561090766856733938472424,0.99838023061879876962621,-0.110229182273408082837207,0.0182117635951685244433129,10.6787875112595447291142,-0.0504763390967808214804258,-0.016616577067875414053244,1.19479450001089237964891,7.319175112272004568581,5.49821171041436329574026,0.484383629084865707792318,1166.83066387093413140974,1175.5988127641446681082,1166.26106794809857092332,1166.96735152749715780374,-122.543422215448913448199,-958.666808134102325311687,-545.522784233662150654709,279.687142888496737214155,163.996244727442700650499
0.29999999999999998889777,0.431618810674280595218733,-1.40053233719485437092089,0.520778003981524739707254,-0.0277586913079539907012183,0.0469180833571830741002273,0.0312357790003841909176607,-0.00703779951379798329041959,0.00626870551849289907309082,-0.0560808825633877031102692,0.998381532630316481657928,-0.109732057829640267110349,0.0161776817546704781980438,10.6688444097742998195599,-0.0502857468654333561453029,-0.0164557825890702461024695,1.1968506104419154301155,7.31909026755757174953487,5.49823166661387663367577,0.487386641484847171756911,1166.53018921892135040252,1173.00881280152316321619,1164.99983901053951740323,1167.43863937948503917141,-124.877707097993948082149,-1068.21832505925067380304,-429.203010335731562463479,93.0833916960181397826091,164.000311915040498433882
0.302499999999999991118216,0.755611563042701384063093,-1.3146228452880974746364,0.875008038515968089576802,-0.0272261425971141446389368,0.042917043613597438689311,0.0336425239331944112008976,-0.00703274033485328659009994,0.00628732559774023303661439,-0.0560469161841292973225137,0.998383336999234982656048,-0.109167609209245175527769,0.0149173124729778810992897,10.6590670116696859537342,-0.0500970249737704015347006,-0.0162470598019850073767678,1.1988758922871545209432,7.3190041478093492699486,5.49824934829695521898429,0.490391865897030487797537,1166.2062753354441611009,1170.25772113884841019171,1164.11505289641991112148,1167.43276848597724892898,-150.509500041380164248039,-1087.79093131347417511279,-232.365392704377683230632,-130.864434458044229359075,164.004491340614691807787
0.304999999999999993338662,1.0453445185892089597246,-1.1371299446172182801007,1.10217648008332469444781,-0.0252523673341419861715362,0.0402622023802289771832186,0.0383828871137833968485431,-0.00699842891321644441915417,0.00629897816568184259339302,-0.0560027680349670722859123,0.998385947117792049709806,-0.108452865893387678797311,0.0145556860811184921034034,10.6494629054687912628197,-0.0499015421751297025276806,-0.0159740399688185069626556,1.20087642933457305893796,7.31891673106598972253778,5.4982645880173137697966,0.493397765921767039731805,1165.77764171871444887074,1167.56985814495578779315,1163.83801204701762799232,1166.78431720719481745618,-235.262294310632370297753,-1094.55192176678701798664,30.1187477132770879961754,-430.825996832617931886489,164.008799107200729849865
0.307499999999999995559108,1.31173796394261277242776,-0.850884622916488697619286,1.16666264772476191424744,-0.0211099755017834025960788,0.0377699100728881020927474,0.0449469967808419634813788,-0.00693656181232393635738287,0.00630638797432703842454904,-0.0559454425957355491738632,0.998389502033041775774791,-0.107631384026504905992994,0.0150666213795037987055458,10.6400211292851434308204,-0.0497042697084121923301048,-0.015636200834245821134072,1.2028585381896472750185,7.31882823507886559610824,5.49827778373222386676389,0.496403381323705983341199,1165.02996386389099825465,1164.78496153001447055431,1164.26564663498629670357,1165.27863850181415728002,-325.778812224052387591655,-897.593135767237185973499,273.520019650459062177106,-653.731774202105384574679,164.01410819050158806931
0.309999999999999997779554,1.43852962099399062090299,-0.570986286592811032036821,1.03828445733435881237483,-0.0165159352320144968417903,0.0356664836885471556171545,0.0496843487645797984852969,-0.00685680995316815308088243,0.00631188525468856509448301,-0.0558752782807886705374045,0.998393900539914724845403,-0.10673263081589567935481,0.0162479618110546245035586,10.630712477269021576376,-0.0495080777387428769276134,-0.0152524548898555298986901,1.20482866971759761121064,7.31873960192847494710122,5.49828887108928743288061,0.499407891051574737151242,1164.1487476575941855117,1163.08189246611959788424,1165.20561214526992444007,1163.51565833618428769114,-410.772980896217291046923,-508.948087109228708868613,468.889744806210330807517,-769.202944303742015108583,164.018643266094585442261
0.3125,1.45020162653055706414307,-0.271940853303298091248053,0.750968093877390607815414,-0.0114317403133960271421898,0.0339809072562597541677931,0.0526883496855497304722782,-0.00677021807404347506637032,0.00631554782369756709942132,-0.0557958263698745751679731,0.998398868291762386917298,-0.105741545756144639245377,0.0178646274475267319292726,10.6214915061080024116791,-0.0493102786652861446725638,-0.0148455262039827780989887,1.20679292236997270926224,7.31865216811064023261224,5.49829830251811024766084,0.502412157979105766791861,1162.97609895940991009411,1162.24022109446832473623,1166.61009535901735034713,1161.43262378029544379388,-571.206563194982209097361,-152.016126843454770778408,678.443628095555482104828,-931.241361966794215732079,164.023287481207006521799
0.315000000000000002220446,1.3432486646831285348469,0.0703468810714212300361226,0.288682076860913683358234,-0.00593197174417691309306067,0.0333691715507493519288218,0.054193530617843682639645,-0.00668968086048574508972742,0.00632335507167788857252333,-0.0557103202182817197618547,0.998404100838898966863155,-0.104771669064216338407292,0.0196292685639144690035174,10.6122985356728118944147,-0.0491222254670689792432903,-0.0144442663494692494219329,1.20875539617290739258237,7.31856701619334515385162,5.49830624674161860809818,0.505418948176359017487869,1161.29271484161927219247,1162.32181183190232331981,1168.59783028574770469277,1158.85945152635031263344,-642.60686875832050191093,199.946082583482905192795,738.62319798454268493515,-915.554539219191724441771,164.028980854820645163272
0.317500000000000004440892,1.18243131871964002321818,0.306645446551961187164892,-0.14003195928642583889534,-0.00250887303901327482144601,0.0343400761427525291757945,0.0539969320287106355205076,-0.00662565637030701742177241,0.00634495834784743438505838,-0.0556235596333686937997598,0.998409202125007166905846,-0.104023266893661286980333,0.021297208141572446238321,10.6030632293343884953174,-0.0489644099426936943442179,-0.0140734779292937626365978,1.21071796028242539833286,7.31848358075439175962629,5.4983132308050342018646,0.508430430795595245108132,1159.76306461561830474238,1163.23995150738574011484,1170.30321134894006718241,1156.85485108419948119263,-602.856550284195122912934,499.15281855114653808414,640.378389984334148721246,-739.157933631940295526874,164.033821960478917389992
0.320000000000000006661338,0.995479574625217966676871,0.452575652202100831011933,-0.552901362384778827241405,-0.000375920245484907323586798,0.0367241402373393935332224,0.0524836649039659916549105,-0.00658916483420253842884229,0.00639038678725926956314396,-0.0555340594096756859365804,0.998414120148418904321375,-0.103709704923021117650705,0.022607334901696210516242,10.5937080142920247993743,-0.0488580366745349839452395,-0.0137602635258849276267412,1.21268029004924682290323,7.31840053780405064287606,5.49832066896157822810665,0.51144797498437355454115,1158.27843209019829373574,1164.81757592465805828397,1171.79972223566937827854,1155.1636618581906077452,-556.579248192746945278486,689.313375972459994045494,527.095176264901510876371,-613.481860632782058928569,164.038759763808940306262
0.322500000000000008881784,0.823156330481240039453894,0.505884447084688493312399,-0.913730701371121001308495,0.000923541985795015875349012,0.0397341432610404041159136,0.050008103467646426720794,-0.00658072946494909355452663,0.00645993533047937041474684,-0.0554401859282916686932907,0.998418938620458162880311,-0.10385719459011408249971,0.0235300290651643956296724,10.584153036285851356979,-0.0488018525198543537402252,-0.0135064611210203334989988,1.214641147322434111544,7.31831658684030550432453,5.498331040617823184391,0.514472413631570035796869,1156.98016837465456774225,1166.68651838724804292724,1172.93868723026457701053,1153.78744178103556805581,-441.49322979660570354099,746.167424128452012155321,334.02988517659622402789,-476.928879799015305707144,164.043775603788532180261
0.32500000000000001110223,0.702220353356033610836562,0.451139106038002002385667,-1.17557447168279338711727,0.00156656845096919553408932,0.0423103073712657803961967,0.0466387411817058630814081,-0.00659212484890707613172101,0.00654560045936002869032544,-0.0553400615359448885821614,0.998423866658210479307911,-0.104333695999024256284571,0.0242290137855269427369365,10.5743197322445041663741,-0.0487753612994811514003146,-0.0132927167541608565876077,1.21659840061335478011983,7.31823160831262775616324,5.49834539901979635345697,0.517504764413015183599498,1156.07096594121526322851,1168.54841304530032175535,1173.46987166155236081977,1152.77901745919552922715,-278.965514815263077252894,730.443286856324675682117,66.7567867199977058589866,-374.328006260065762944578,164.048883541782714701185
0.327500000000000013322676,0.639556560624526926339684,0.296801078484555058700778,-1.34435803698848710396874,0.00191058507485721701391057,0.0438232642810033809488424,0.041928238740922788019283,-0.00660720013044193994061759,0.00663483302851370672359455,-0.0552379974888354552398084,0.998428850339186602091957,-0.10492779840538249414017,0.0250406480474244796941008,10.5641343393513604809186,-0.0487479037481190966007993,-0.0130809551456241637823474,1.21854900336592542053893,7.31814646418648795389572,5.49836461288085054377461,0.520545261059908948020336,1155.58534080057825121912,1170.33873482152966971626,1173.27247116386456582404,1151.91580174973523753579,-65.4492111456419820569863,533.867858977236664941302,-213.885166134786942393475,-273.297008911140210329904,164.0551173101272297572
0.330000000000000015543122,0.655453086050409972074249,0.133291639096700054167854,-1.35347971461288563155279,0.0021370894689978136779529,0.0437787139993332310994312,0.0376546303945199181684167,-0.00661453468751166655942297,0.00671595180031942830256586,-0.0551374764071014267230453,0.998433846855055207036855,-0.105447205604795618549829,0.0262001376066149510579706,10.5535299797029633595002,-0.0486903933278453257549323,-0.0128446774910935986035998,1.22048866522357135622201,7.31806207581436307663125,5.49838807678384089427936,0.523593113704543422493032,1155.74371988548705303401,1171.21775234018650735379,1172.40044583087842511304,1151.41253241463982703863,178.733316265697624203312,195.869779523900263029645,-477.43267845385122427615,-172.020315640747725183246,164.060397274597477235147
0.332500000000000017763568,0.719432691270192714583231,-0.021913652481800278970514,-1.23002321908732614730297,0.00295848116211976010919704,0.043156035776968144912491,0.033316211519789820649784,-0.00660686674467390704090786,0.00677965977821427898813988,-0.0550449087173484202795137,0.998438612024160287994334,-0.10575050181289530337736,0.0278530984875467318984121,10.542449188343761434794,-0.0485792279930680470645399,-0.0125676026196584311039883,1.22241216212472103563869,7.31797881528442850651572,5.49841449043844043842455,0.526647792505096190573965,1156.47900738190674019279,1171.31808371914917188406,1170.88530777159530771314,1151.05570017153149819933,433.425870739938147835346,-123.060115809084777538374,-770.599256706690766804968,-135.648708233020329316787,164.065763364540913471501
0.335000000000000019984014,0.803206734721292892054123,-0.16067357485994715471378,-0.957387120254064694080398,0.0052238640179831990692505,0.0423897371735017722271799,0.029197528983424928666901,-0.00658299889518106518676577,0.00682006401369776669302292,-0.0549620612505217973065008,0.998443095662705504267365,-0.105764267269408879235115,0.0300139255773021890183472,10.5308454993073716821073,-0.0483986887297051457390573,-0.0122474791475271418961235,1.22431355460948521063358,7.31789633460527255692796,5.4984422016258784893239,0.529708131950571869950295,1157.91084923918674576271,1170.60245176114108289767,1168.54744954734496786841,1150.73428887347472482361,585.562547101289396778157,-363.407568594993449551112,-900.178659160791653448541,-104.824359902704500768778,164.072299298852072979571
0.33750000000000002220446,0.838143533536316986953807,-0.217117188063800981012719,-0.661996309674594107796963,0.00824485917821413810679942,0.0413517929068428768957233,0.0273698500315417876660451,-0.00654703595318466800845325,0.00684456212220748826807748,-0.0548889273295877500036255,0.998447215481024330507864,-0.105689803301791590550707,0.0325710874680292944427507,10.5186842618877545163514,-0.0481653114559594947019505,-0.0118956738779878272438406,1.22618547876674277574693,7.31781379360990058557945,5.49846976884056193313199,0.53277372938745803931937,1159.40682011741319001885,1169.501045876174202931,1166.38441447579134546686,1150.5315783720179751981,613.133729386981372044829,-478.326128772777849462727,-853.441330890381436802272,-67.785219200095468750078,164.077824057308163219204
0.340000000000000024424907,0.798015455721942879030451,-0.197144122908020358320158,-0.343684673804238893790597,0.0118974099710090121945205,0.0395916259207328563585193,0.0270407521995902171141335,-0.00650337759629941551675625,0.006863930110775788573374,-0.0548247588180929279477738,0.998450907455671665680086,-0.105797419506680839829116,0.0354040472521332874600297,10.5059435503729936556283,-0.0479045651197191682535426,-0.0115237603352304762704961,1.2280203788645847051697,7.31773085256746114168891,5.4984959264901807074466,0.535845003824630849997845,1160.9765178861216554651,1168.21082111727719166083,1164.28024289289305670536,1150.39536277747424719564,649.51719103378252384573,-531.709542001317004178418,-854.725831235281589215447,-38.8664067204444663161667,164.083426800480651763792
0.342500000000000026645353,0.647235324870911732375589,-0.0872363994167836137583194,0.019607090481039389506801,0.0158913774868686373531457,0.0374508345095626096754593,0.0275620568971434859451008,-0.00645991014925116104061775,0.00689261507056139997862143,-0.0547707498744942969381988,0.998453955733895837099112,-0.10642639345683668761211,0.0383158933455086322950045,10.4926134149282024310423,-0.0476513186459125992477937,-0.0111518434877045432424003,1.22981058643258300833168,7.31764760407768477534773,5.49852033238866955144886,0.538923322065697929517114,1162.65440607258210548025,1166.84249816616761563637,1162.11078531961493354174,1150.33724633841575268889,544.614491514721066778293,-428.817072040646564801136,-707.240635353627340009552,1.56009646302663762540419,164.090236216688907688876
0.345000000000000028865799,0.447815675481727792917042,0.0550905023626587775353869,0.285566178885074406501587,0.0182630343897704529310122,0.0365869307787953859656405,0.0283548120074351844843719,-0.00642294654500513619715951,0.00694634275184209237091748,-0.0547281516268523990365047,0.998456145721802745818252,-0.107937682084221442391225,0.0411418347962808281237379,10.4786948241484232369203,-0.0474448700762416242238118,-0.010796045183386789034774,1.23154893680288557433755,7.31756392904038666102906,5.49854319072108843613478,0.542009499325567190020081,1163.69959034369526307273,1166.06673575707395684731,1160.74403971612491659471,1150.40316325978938039043,314.159562236590943484771,-214.343098264498422622637,-441.166489980650624147529,52.2038214697658489171772,164.095979333236783759276
0.347500000000000031086245,0.20796842951927702047854,0.206406689801441112219749,0.4988123739350831531425,0.0193702616250354675564438,0.0373610000707753631132846,0.0293653613680506901661982,-0.00639827943385500204354077,0.00703296949777765766087523,-0.054695875827306228433855,0.998457449852159673042706,-0.11051865317238590558091,0.043736951572573762314633,10.464197635143465348051,-0.047306446932049536768794,-0.0104700206702161031230291,1.23323006270543333862122,7.31748113895976892706585,5.4985648455949851509672,0.545103833550713456901349,1164.22520388376506161876,1165.7707826748451225285,1159.90495286971167843149,1150.59826544576458218216,110.97385487159944261748,-48.9027179171443577843092,-253.652178305082770748413,94.3250318319768723540619,164.101790107045587774337
0.350000000000000033306691,-0.0291229938186446275782959,0.329411650151460289048799,0.660979231837869551924314,0.0194403901620765762192633,0.0393524364880336111061077,0.0306119247157860437102972,-0.00638535384381850971979855,0.00715002014215380954365031,-0.0546711683366696982178112,0.998458043657853289154502,-0.11413725848688829889177,0.0461005051418767949900079,10.4491382274924564654839,-0.0472338437602796146208561,-0.0101706157788637851363545,1.23485122555168702618289,7.31740007968573014096592,5.49858605916907272614935,0.548204880008630102139477,1164.2544596180532607832,1165.82222216748823484522,1159.4757788245995016041,1150.87478841894926517853,-114.718778018324229606151,67.1755933370611728605581,-96.3132967087413618401115,114.105288558131434228926,164.107654895649176296502
0.352499999999999980015986,-0.217658715369740241030172,0.388679735856056696174932,0.752131690656115958759642,0.018372847629900573851458,0.0418182337722745253727474,0.0322835255400679560500166,-0.00638036830383278442957451,0.00728272075456406434851298,-0.0546510067159321627494606,0.998458221537518064714334,-0.11849728113337701373986,0.0483128316938377933009718,10.4335366878895428044416,-0.0471959085108046988432662,-0.00988548234423715886654005,1.23641288646914238036345,7.31732187718304949441972,5.49860759819791589109172,0.551310001266918425777419,1163.65160999367344629718,1166.10666064153042498219,1159.42338638616797652503,1151.16879188855523352686,-412.584326434766467173176,114.108685190104807816169,19.7433964518952258515583,102.411532203633356630235,164.113583060952151981837
0.354999999999999982236432,-0.339196683775931706605888,0.377142174974492205841159,0.765768973039337330632748,0.0160509240828904248266085,0.0439079549285990924922807,0.0348344211195004693770727,-0.0063749334637259597036163,0.00741678233639515762515293,-0.054633449580631703035305,0.998458245298717184113002,-0.123306602374697843460538,0.0505484512117276713061287,10.4174136026773940244539,-0.047163939840288195137763,-0.00959162243401615044469111,1.23791769002471019334166,7.31724761102878584750897,5.49863018783659640575934,0.554416473637021400833191,1162.1915379858794494794,1166.39276559343875305785,1159.57449580685897672083,1151.38684607996742670366,-655.366980302141541869787,48.4228847845769934110649,56.0255535267969619894757,31.247790109910027922524,164.120768808763045853993
0.357499999999999984456878,-0.331968343542601906914769,0.30909893240911689993311,0.689216773464412901795129,0.0136572497681239999473002,0.0445617797007279159426929,0.0372006468534126708003207,-0.00636417815124727757197798,0.00753726313961118870449196,-0.0546189264056793494228614,0.998458231129298434680663,-0.128243825787192289311633,0.0529086207623611776140748,10.4007872187673431341182,-0.047107438860029798854967,-0.00927530104949135514313951,1.23937027347781714148311,7.31717819115112888539443,5.49865387116443660175946,0.557521740297009960052321,1160.37477509216273574566,1166.34877506545331016241,1159.70351415380196158367,1151.32503083910478380858,-843.630605716815921368834,-116.571907204615754949373,17.3089816632909645477412,-105.373860160852828471434,164.126816590894122782629
0.359999999999999986677324,-0.210627861008168271172991,0.19820102885069779130589,0.51934655151317221655205,0.0115490568255662388874594,0.0445086303140638933628637,0.039421076135179596022784,-0.0063469519886565602465045,0.00763676920429854320937491,-0.0546063240729715501653452,0.998458300823049094141481,-0.133127908137136929944688,0.0554083012830319313057892,10.3836706976778909705672,-0.0470139105592349906825866,-0.00893330190554538113023586,1.24077594840424931810219,7.31711369653196896933878,5.49867827514226448215595,0.560624871278337932878344,1157.97338495729536589351,1165.80990605741567378573,1159.66104071517543161463,1150.85997677916316206392,-1174.57236504810566657397,-362.23500992327865333209,-80.5975905226659250502053,-324.811576722276811324264,164.132926701223766485782
0.36249999999999998889777,0.0364614330829603969230668,0.0278136176964360881669336,0.22006565256119692275405,0.0101470158759856977220837,0.0447306673303154433973816,0.0416955870827414309953696,-0.00632611294305861215914177,0.0077141552936707061260968,-0.0545941430422003104450113,0.998458526978619698155626,-0.137890591792802552628672,0.0579727457917435795575756,10.3660704794103502024427,-0.0468851332642134660533273,-0.00857350704422739015586608,1.24214005003536920312968,7.31705276442285779125996,5.49870375845545478199483,0.563726003710024348158925,1154.50191326692220172845,1164.53760001583691519045,1159.30052620118863160315,1149.70097295549339833087,-1350.87475515406254089612,-550.541662307932256226195,-185.147360190648953448544,-536.244801698694118385902,164.140332284239150339999
0.364999999999999991118216,0.287695037874556358570288,-0.141628662151455614326423,-0.0871930068639271277364244,0.0104488054949066263427104,0.0453629251798042185117588,0.0429196542714259735018523,-0.00630805453474725212614782,0.00777670014104825304407376,-0.0545837354917428144163161,0.998458738725365724242522,-0.142622674470094856769009,0.0604458970221841418446473,10.3479853175227276551595,-0.0467422270810642775940025,-0.00821421248024222470929256,1.24346692739841579999904,7.31699307942265608772914,5.49873114041482402569727,0.566826673006559422773876,1151.21901118152504750469,1163.05719774587601023086,1158.73530391422218599473,1148.17875277066968919826,-1359.63673722626367634803,-627.860441139500267127005,-267.104347198710229349672,-725.168632033727817542967,164.146566372625329677248
0.367499999999999993338662,0.530841064207206114744508,-0.329845104696738333771577,-0.411811965010642100359917,0.0122567837947339108861655,0.045608538192261419141893,0.0425302514700979031325723,-0.00629492566286788367280192,0.00783093621191228300704168,-0.0545769293112230782782923,0.998458773047252834409448,-0.147393800623931703341896,0.0627617032421561860111581,10.329407364226366183857,-0.0466038061025389541147668,-0.00786324908326863428187359,1.24476020677605103692542,7.31693303757960489264178,5.4987612075940219824588,0.569927611581497628456816,1147.70372958079087766237,1161.39829781013941101264,1157.96500446519507931953,1146.07512979532475583255,-1412.04222843611978532863,-644.516578813681348947284,-324.685173483703408692236,-928.576532517808232114476,164.152867740345016045467
0.369999999999999995559108,0.730269652500487809199115,-0.516620670965225126103348,-0.710450549923275165298264,0.0146626593632450605286799,0.044928821470036572893747,0.0404323375701560808193058,-0.00628678445534766594526843,0.00787849389122206346380839,-0.05457239153246470214631,0.998458692264903913127227,-0.152166387474534231527556,0.0649032726192531050912748,10.3103239156078867466704,-0.0464753754534837359990718,-0.00752222182711033849483728,1.24602261007791081937057,7.31687307611662340889325,5.49879383786034647840779,0.573029797918597205708124,1144.15880003934444175684,1159.83461485180760064395,1157.11187804680366753018,1143.53587010808064405865,-1380.55022974353846620943,-548.153841853217727475567,-339.86726202933795093486,-1098.29751747997670463519,164.159226398615373909706
0.372499999999999997779554,0.845165447528160251877694,-0.672689672284190853801533,-0.933298878386491503889033,0.0172726017456550709483487,0.0429457847016260357841944,0.0367387307704656121409847,-0.00628106123950777830294845,0.00792104861969897787454808,-0.0545701200704712813260855,0.998458504111170874750769,-0.156902004341188061609103,0.0669077342781291412032729,10.2907190083362376498144,-0.046361809966650027736712,-0.00718589296366261773285622,1.24725509669238943111225,7.31681355140365941025493,5.49882824108096990300965,0.576133905257230405361213,1140.80097843207317964698,1158.65752860087332010153,1156.26566815504838814377,1140.5836422079248677619,-1376.64445246923492049973,-381.136896771567649011558,-352.185739533706168913341,-1354.2136832648782274191,164.165655745682926180962
0.375,0.86006408526685440563142,-0.79043540720429539270242,-1.08122208746079606633828,0.0206490408684399037730905,0.0395797942576370451184253,0.0318623839605968114940815,-0.00627148528797429657272167,0.00795784789604416821495736,-0.0545675249080870838902513,0.998458401560395558682615,-0.161513995703725071750867,0.0688897841142578348794245,10.2705762447210968701938,-0.0462614296158163837424659,-0.00683864965606982566637129,1.24845686273792289000539,7.31675441362405720724382,5.49886337118354884268001,0.579241612548435313989614,1137.27557777699826147,1157.92893036794976069359,1155.35094934913513498032,1136.76480169175624723721,-1172.09516278085061458114,-140.146210954617231436714,-314.963315121439961785654,-1412.11222013466658609104,164.173454455817363850656
0.377500000000000002220446,0.761967755681773106779531,-0.817096432768551594882922,-1.10532118579151705795027,0.023567312303191065986363,0.0366269444370508831521072,0.0282843540588736501451006,-0.00625424584225990100316839,0.00798965334801452972679492,-0.0545610648817592414072664,0.998458603415744994080683,-0.165944643665065560966809,0.070909832550141368989749,10.2498811664530808940299,-0.0461750273780061615269688,-0.00647043802083706320882328,1.24962488350704137296532,7.3166951652523142257678,5.49889814407914201410676,0.582355328234787861241273,1134.94050261816892088973,1157.95679754610023337591,1154.69085157944118691375,1133.52308110725152801024,-778.658882787748780174297,133.808410932488072830893,-249.274806765288076348952,-1267.56445606279044113762,164.18002401173524162914
0.380000000000000004440892,0.553964901537778553475277,-0.771078014600474537232344,-1.04882452698003292290707,0.026035672496595545222231,0.0340490665287676852468479,0.0257824134964169740524831,-0.00622837704359491782513114,0.00801506017868100321954739,-0.0545517767853065799199541,0.998459075334822365732634,-0.170092658115716555133901,0.0729701741388205787908205,10.2286244982726177710219,-0.0460967359062013082304787,-0.00607774660003978541011893,1.25075454141192721202458,7.31663537003850095175039,5.4989333140285632239852,0.585476914106702772677693,1133.38228336305951415852,1158.59797242261220162618,1154.1045753153086934617,1130.42697941144228934718,-494.838363054395358631155,388.120533670325698949455,-255.082945254752985420055,-1285.31508581536286328628,164.186667824005525062603
0.382500000000000006661338,0.202542119805728837445002,-0.651667956434548778510418,-0.923149756051143133284143,0.0278804067480145391366708,0.0317031230919932738299138,0.0238710536109431117890445,-0.00619998980691348171301325,0.00804018408170713294591536,-0.0545367952094025984499659,0.998459883111703860869568,-0.174007432063291167523289,0.0749178837646061468458214,10.2068031994082115687661,-0.0460377495634365779819674,-0.00567505143512878756917317,1.25183931551292526584973,7.31657444844161197750054,5.4989686767647603105047,0.588606811037328037095051,1132.46631080289694182284,1159.89740021445186357596,1153.41543685316742084979,1127.09650567817470800946,-187.109057978068278771389,526.562349205596092360793,-260.398533529860060298233,-1131.59121436428813467501,164.194726908365140616297
