t,ang acc x,ang acc y,ang acc z,ang vel x,ang vel y,ang vel z,quat x,quat y,quat z,quat w,acc x,acc y,acc z,vel x,vel y,vel z,pos x,pos y,pos z,mot 1,mot 2,mot 3,mot 4,dmot 1,dmot 2,dmot 3,dmot 4,vbat
2.41999999999999992894573,0.706235697048910204820515,2.86325832192871354564545,0.0922262990962588458110361,-0.0100048587952569507236733,0.000540653757994197670805336,0.00966200827109398377445793,-0.00647619191970280529829784,0.00325699404934739989922465,-0.843173483702549741991561,-0.537592533902707003790056,0.111658788509784126508073,0.0704571273425992766759052,9.8497154179250081540431,0.00842058837880738965397942,-0.0102946450940441108778955,0.00647508685635914561090631,6.3565097440308298004652,1.95599968826889525352897,1.11522570014187261122629,1129.82658043357218957681,1101.44080333206193245132,1117.72646009796699217986,1128.62103283664987429802,-304.193583266948849086475,207.236546434710220410125,-911.682041683817601551709,-35.6503052804335638370503,155.740750471734457960338
2.42249999999999987565502,0.607263152045964149650104,2.7340423735027767904171,-0.130320136666504299283176,-0.00844459630116694767720809,0.00742049260825869937130417,0.00829029908072522261908155,-0.00643692984173282675697259,0.00321088560921453831931149,-0.843182513494901364481393,-0.537579105059368567154365,0.111743749851246493287604,0.0756989111395829639139521,9.84780820572961701486747,0.00837506260356173787284817,-0.0102660552956527588441826,0.00658637789340878274796376,6.35653255071271772180808,1.9560310648223913077004,1.11525168187548517906293,1129.04682702651984982367,1102.12477405206004732463,1115.35048636916963005206,1128.59648794886948053318,-333.711644011441649126937,381.88607044910139620697,-1056.93727698637439971208,28.5402758500803273022939,155.738885262381870688841
2.42500000000000026645353,0.419377423538981275452642,2.4916313220371826275823,-0.34462072286241257623729,-0.00632258918688476632963269,0.0156584647678863556063966,0.00651706193936752321144157,-0.00639976096045285092889232,0.00315478511859528399502439,-0.843186789742844222672602,-0.537573155977249528270079,0.111623363219562607429047,0.0812535593221701823996028,9.84575243937688604489722,0.00833373128730694086307995,-0.0102035888930803800289659,0.00667173246025459104613375,6.35655255797852003496473,1.95606309490568652798004,1.11527837335373547489326,1128.1580222135148687812,1103.3502336843075681827,1112.44177371303476320463,1128.76373421590028556238,-313.044969805538812579471,515.034192331733493119827,-1051.23110025235473585781,91.3479861374919153149676,155.736660029151920525692
2.42750000000000021316282,0.198049280270614302956744,2.21305037585525621324223,-0.477115188578542237518576,-0.00433356395331125927167237,0.0220070901999439398621927,0.0050435984958806592826086,-0.00636327004114382865918031,0.00309664899505080479583108,-0.843186657042073184342712,-0.537574118226613495430399,0.111353416602712113059326,0.0868665973152851211835923,9.84364054950953715206197,0.00829446556940895661502733,-0.0101087231520154106900744,0.00673082479198879903015129,6.35656990387663256569795,1.95609570125269471851936,1.11530477289276297447884,1127.48160217749205003201,1104.69994501371888873109,1110.09433086790750166983,1129.05322787955697094731,-258.025627429338840101991,595.165530318185119540431,-893.509851414110926270951,135.126587413881821930772,155.734820202633187591346
2.43000000000000015987212,-0.0844156590258644951019207,1.8617261134201736894056,-0.571008872333810035826218,-0.0027963448790778331828899,0.0273695588045896297246795,0.00351903566418034809137882,-0.00632594552147420184640136,0.00304496617470041003317149,-0.843185294403666629747818,-0.537576974414684105596507,0.110996654095962404840137,0.0922748464637941356869533,9.84156202088190923404909,0.00825517036612304251630423,-0.00998383233645224431318521,0.00676480396324260265655814,6.35658572086646866949877,1.95612855370814187061512,1.11533035833662652613896,1126.86789407636820214975,1106.32606133589843011578,1107.97422445596430407022,1129.43936715296968031907,-260.997938986662234128744,749.240687128410627337871,-848.212613519644833104394,173.684757579580093533878,155.732999808751287673658
2.43250000000000010658141,-0.459243777298335320580236,1.37698335342173638906615,-0.657889158973048893130908,-0.00260374901336273608526417,0.0324960829401321066312036,0.00196852358608997192804257,-0.00628521040257585313776323,0.00300604043821610421652335,-0.843184536303938414469883,-0.537578841336232238212745,0.110577217891648385550418,0.0972449088639303071968101,9.83960059516440566085294,0.00821411693378076325500192,-0.00983180677769932530318808,0.00677625707987361981105012,6.35660102080231403931521,1.95616139112929654508832,1.11535401430470315631283,1126.17661248255876671465,1108.44614844936086228699,1105.85326780030936788535,1129.92165166745485294086,-251.254725416225369372114,776.696915377822961090715,-687.985634442671766919375,167.076798111433078020127,155.730842652467600828459
2.43500000000000005329071,-0.760370455078209439570003,0.942336107652783527832696,-0.723081792608001094890824,-0.00423547040964109867966503,0.0356127136556811732526207,0.000957126451532883115724815,-0.0062366453635759391826987,0.00298127530900190980747699,-0.843185296531707373368647,-0.537578329486677830573171,0.110038580609321465231254,0.101612430635777892251603,9.83783155370470119294168,0.00816999312462080712338164,-0.00965593571516938815879616,0.00676905135131661457592589,6.35661600112463975875698,1.95619348650762514552071,1.11537510254073346516179,1125.6116204492871020193,1110.20954591278746192984,1104.53429628375101856363,1130.27475114352682794561,-230.889342243931793063894,670.019694588987249517231,-420.769366478780170837126,119.520883705766024718287,155.729071196997580273091
2.4375,-0.995815756025019815922406,0.507767461377397255617439,-0.790980885036129288678808,-0.00739915447029246969856686,0.0371984810633869955598385,1.39132398655435521837853e-05,-0.00618091151314701520158579,0.00296946099689148184513909,-0.843186410800584873470598,-0.537577263420067730237406,0.109381678401787529875122,0.105319648081754549395761,9.8363172486301273522713,0.0081220382964161969702177,-0.00945980486294507698363798,0.00674789873288098637077459,6.35662974622929421997242,1.95622511230277629223906,1.11539302666249717788105,1125.02216577133913233411,1111.79624692230572691187,1103.74942096791551193746,1130.51925608598367034574,-245.920498964420175980194,584.480227995858285794384,-224.150355077067843012628,75.0766120400856067362838,155.727330836725570861745
2.43999999999999994670929,-1.14364776779544841112113,0.0987251154645576306512211,-0.859473329606444735873083,-0.0114456477651422930397196,0.0372000412194311846914019,-0.00114491530949681276536911,-0.00612165200684831357913485,0.00296903197520144738683068,-0.843185325942723440384441,-0.537579615735861326974998,0.108653216259810336818958,0.108357260559650392384157,9.83510565700479943984647,0.00806999430915525568785984,-0.00924727759575029797933787,0.00671786848520383381155874,6.35664177622987658367038,1.95625640478941065225627,1.11540814711893787603003,1124.38201795446502728737,1113.13194705276669083105,1103.41354450836570322281,1130.65013420372724795016,-276.539644955443236540304,458.982645046272182298708,-35.8322825530202280219783,24.3966194129375892885037,155.725619093499943801362
2.44249999999999989341859,-1.16512185410777835414819,-0.255371137515553403574131,-0.914055961224311874779858,-0.0160597499024327655670064,0.0357859980582436384977107,-0.00288925579160746476975463,-0.00606484022313115867658384,0.00297646103987524645803631,-0.843181243086559284449777,-0.537586593980649563029317,0.107917799779597492482175,0.110784874472325878258516,9.83422938388780387697352,0.00801401532976410077568907,-0.00902243185632093692982725,0.00668399104073815614190934,6.35665237218374112870833,1.95628720540042699838068,1.11542182385838239966347,1123.63946754656194570998,1114.09116014753703893803,1103.57025955515041459876,1130.6412391830483556987,-360.510657842777106907306,331.88346824550330893544,159.646388865807011825382,-31.8025716730523946296216,155.723945167651919518903
2.44499999999999984012788,-1.0511356543753791470408,-0.605044176742151940118219,-0.933643185982791723454,-0.0209827456673910665851945,0.0335825063924127809045217,-0.00586328428786658546051358,-0.00601419076193030616162005,0.00298878108668760092414551,-0.843174674813651381377611,-0.537597373056335925411986,0.107207789513159387762009,0.112641569043960693141671,9.83370640891021174923026,0.00795471347728266865717561,-0.00878944799127728652876623,0.00665089774260115961651563,6.35666157316361957185791,1.95631761863262476630609,1.11543514907422602888687,1122.57946466525118012214,1114.79136439399417213281,1104.21177645269472122891,1130.49112134536198936985,-421.206294511119949675049,190.55709718185048018313,290.327081951253092029219,-73.5393841012815272506487,155.721984312973063424579
2.44750000000000023092639,-0.867520859813381228775597,-0.83909375662033747200752,-0.889164069826891889647413,-0.0238018124690006736832171,0.0317116480485302582037477,-0.00891104401666256706882052,-0.0059650385758306199296408,0.00300285433501017813215372,-0.84316473550487291976907,-0.537613412456079742263171,0.106412831120737516599206,0.113894188241600052835523,9.8335419358277214030295,0.00789322439881197206179575,-0.00855241528198540622296431,0.00662271908994340081922036,6.35666942732622253231511,1.95634690289091195403159,1.11544818198781592322177,1121.53343607400620385306,1115.04394563344635571411,1105.0218949649067781138,1130.27354226254192326451,-449.824817376353735198791,53.098985230686650993448,357.396482858278886851622,-101.749618331489230627085,155.720393071082213509726
2.45000000000000017763568,-0.641305532635537134389381,-1.02809964520270846755068,-0.764267511537388033460161,-0.0250358552704143012823668,0.0297671226572603572768649,-0.01206104716636941312502,-0.00591353774627711211570036,0.00301801949916252624031565,-0.843152603716249782195291,-0.537632911541563451862658,0.105460834882885864938196,0.114490050359680656244521,9.83372661894120447811929,0.00783120295501520818914898,-0.00831524507610651580913341,0.00660293541638464365900463,6.35667661231037151026158,1.95637389059878730179776,1.11546051153481884377072,1120.33034057836925967422,1115.05685932014762329345,1105.99875886698623617121,1129.9823732537045088975,-550.335659567793186397466,-21.0162863951159053499396,444.054458286800979749387,-142.298806684269351308103,155.718849642176706993268
2.45250000000000012434498,-0.377390837985447258340344,-1.21826997138557446831442,-0.522953782816257151111472,-0.0251194803400143044924686,0.027014654535555251979595,-0.0152285006668966774873164,-0.00585786806236497301081378,0.00303249143212880453365776,-0.84314229623528036405844,-0.537649605603622515737072,0.104299959604110772937169,0.114428856755520613752708,9.83423731230020869986674,0.00777063701770586232747684,-0.00808149130898104181564001,0.00659439442923961255393905,6.35668433964712509265382,1.95639780432374910112969,1.11547245631896418949225,1118.78175777616729646979,1114.93886420147077842557,1107.24216725634073554829,1129.56204822912059171358,-566.654661182304380417918,-48.0705420633067888047663,451.676552902300102232402,-163.579667257503245991757,155.717056607156678182946
2.45500000000000007105427,-0.193177454167582807187387,-1.35252595959576193962448,-0.26285247999917521477542,-0.0245464359032323657661134,0.0241765569452446586751204,-0.0168592621360501467020487,-0.00579929411221821039523761,0.00304401660083341261964218,-0.843138736030102808882702,-0.537655778611027868052474,0.102922740068894166820535,0.11376262384248062020653,9.83503824687849892427494,0.00771359045848690229318922,-0.00785420981670511587913186,0.00659922661320640029092299,6.35669365981334166804118,1.95641866026465249817079,1.11548449485806799863497,1117.49706727245779802615,1114.81650660983109446533,1108.25714163149768864969,1129.16447491741701014689,-485.772852955198118252156,-43.277375530261465996773,382.868209464740175462794,-162.325124310567673546757,155.715614343890280224514
2.45750000000000001776357,-0.0607658300150489411040056,-1.46399822920344302445983,0.0233350801146685604692266,-0.0239136866074547982385923,0.0208554294812746468523734,-0.0171163435058476372241376,-0.00574278176249762382227226,0.00304840802403552341842685,-0.843141352026677171060953,-0.53765229200315256541387,0.101359653964367468770291,0.112626564669309869870517,9.83608262936957444821928,0.00766193128532695073157344,-0.007635787411608671408636,0.00661885639451424701018567,6.35670428214729454907683,1.95643742347985827301216,1.11549699428847537419074,1116.35289351139135760604,1114.72247732381947571412,1109.15650830366439549834,1128.75042260756777068309,-439.02731142817202680817,-37.6213802512674035938289,348.897750944987080856663,-171.677379235465224383006,155.714229123729353432282
2.45999999999999996447286,0.044263405784045549429262,-1.57122455934668403543242,0.349225723725830550225879,-0.0234751074955479380190759,0.0166299851369620457774978,-0.0159856553879849060118001,-0.00569421062875754332294198,0.00304858480262110544470322,-0.84314766996302714652245,-0.537642938426201144608285,0.0997304170907711146076835,0.111057815656930444769834,9.83731541237111173359153,0.00761682419925872704336012,-0.00742827204253679318490811,0.00665386541766253142293763,6.35671514033373075136524,1.95645479919666476220641,1.1155100477213069076754,1115.30193071531698478793,1114.62839970857476146193,1110.00163038622258682153,1128.30608802123970235698,-309.976944792749463886139,-42.0747533783478360192021,260.536719708585337684781,-139.958660201685489710144,155.71263635185800922045
2.46249999999999991118216,0.100398705069307273007873,-1.63720711209174063505145,0.574932773240549033211266,-0.0232698342769172387967114,0.0131185058517631486507682,-0.0141647755658891993241211,-0.00565842779886410740530778,0.00304999514957843449736163,-0.843154395371852993790185,-0.537632797316484167815531,0.0981648702194023586864446,0.109049163009501251520028,9.83867569653595097634025,0.00757837470841963775636252,-0.0072334348059414754067431,0.00670418084175711768979422,6.35672492646885878286867,1.95647190997689879310428,1.1155237291870867544219,1114.8030087874276432558,1114.51210355692774101044,1110.45919190220729433349,1128.05062930655935815594,-98.775781707856651792099,-73.2602327205329117987276,130.219917502566261191532,-59.9263025810627425471466,155.711369480255797270729
2.46499999999999985789145,0.143416882022933983575896,-1.67405833244543811311189,0.726271504702548198473266,-0.0230500279802098514969622,0.00956111796343785298735174,-0.0116828451314439189789862,-0.00563763011625741886773122,0.00305710372137875429146558,-0.843158070532111114658846,-0.537627242166669572220883,0.0967405351523559636772731,0.10658861607370051505228,9.84009896572653808277664,0.00754550666407941428986961,-0.00705273334452370236763441,0.0067692382036885490048661,6.35673268662884627389076,1.95649022252939319699294,1.11553814238013226933788,1114.808051806777712045,1114.26209854497210471891,1110.65272997373540420085,1128.00645650833439503913,98.8261138645090539966986,-136.589031334815331319987,43.1205775172627880920118,29.0100918251917825330111,155.710168293403228290117
2.46750000000000024868996,0.189949415913151647972157,-1.67872467617764264957714,0.806189113341273966284461,-0.0229428648740172096143208,0.00566954925614193087218817,-0.0087977725425484112897756,-0.0056324480660259025957548,0.00307265913712845501262749,-0.843156735363652876102947,-0.537629327281101909719041,0.0954945321811564162839403,0.103681303718930126200881,9.84151856954347081796186,0.00751610984424782614665705,-0.00688723582742774807774477,0.00684806795845158741004033,6.35673764034224308971943,1.95651088159039110436765,1.11555290713259580570593,1115.29713935675022185023,1113.82915840025361831067,1110.67479478979362284008,1128.19567976568532685633,321.77838441682627035334,-228.436102539520135223938,-9.53974903582028765924861,138.645600046938596960899,155.70902367779029873418
2.47000000000000019539925,0.255209565323943399217654,-1.63119043558061660448288,0.803184598420504047844304,-0.0230201318719925225597667,0.00139693597361165372863767,-0.00589143113059139612863735,-0.00564004508734165972694274,0.00309765507700783581171433,-0.843151552539067483671431,-0.537637256181097589191609,0.0943929709513427195322066,0.100328351160909073902516,9.84286782617281019724942,0.00748738622566051149898048,-0.00673753819480609177777763,0.00693935913827536596243384,6.35674048076440278975952,1.95653441376480152769091,1.11556814876276200187988,1116.4169437288619519677,1113.11991803227442687785,1110.60503122855629953847,1128.69968450856913477764,638.028841095742791367229,-375.353254385034972528956,-16.7837137988048148429243,288.91598547275566488679,155.707949334677152819495
2.47250000000000014210855,0.364681378543039724782204,-1.49917327575525960448033,0.72761471080566897384756,-0.0229530386319393431282521,-0.0036863834623480666238815,-0.00301033877634503815867717,-0.00565348425235564534807597,0.00312682297459741537909439,-0.843145431896125008286447,-0.537646568045093919963051,0.0932729686722588852143545,0.0965938381813855606594643,9.84408165848872229730659,0.00745635414985321588049461,-0.00660358791877839208100953,0.00704158175896197301157908,6.35674329236839064094511,1.95656007575955559474323,1.11558392821339968925543,1118.48728356222886759497,1111.95239212832848352264,1110.59087622079960055999,1129.64025969304907448532,867.277082115533971773402,-468.286210389224834216293,28.0009077735036555623083,385.433272616827764522895,155.706743027214656649448
2.47500000000000008881784,0.479637824744325147463542,-1.32175426432127340881095,0.633010032771271768936572,-0.0223870053515318780112953,-0.00753120812170415387248879,-0.0013927300061533783807205,-0.00566823152955251916007562,0.00315508719695382650743953,-0.843140887771494318414511,-0.53765339587427296574873,0.0920187609792936095365334,0.0925655358777351111587706,9.84509642009489915892573,0.00742042719662632313526451,-0.00648472234631711740016069,0.00715286684750182297221066,6.35674779687013469242629,1.95658619373380848749377,1.11560083391998721147331,1120.7533291394395291718,1110.77848698032835272898,1110.745035767423814832,1130.62685087165323238878,985.29888709424369608314,-485.524489325336048750614,108.693897734067419946768,406.901128119952375072899,155.70580733087356861688
2.47750000000000003552714,0.607226355432607722839577,-1.07655049443278283405334,0.5438913499554157704452,-0.0212275421936950550727552,-0.0108302974866443038615138,-0.000560963326693414443026298,-0.0056827907793593210664107,0.00317938801529910747278862,-0.843137576298218283099573,-0.537658310591369703601572,0.0905912472633539078703535,0.0883305871213096172045454,9.84585088358145199549654,0.00737764381787943662044382,-0.00637984701502436468700807,0.00727106460953337585539913,6.35675399127929185993935,1.95661178523840328935535,1.11561957121207355747572,1123.41377799769998091506,1109.52476968170185500639,1111.13434570946992607787,1131.67476533364879287547,1202.31500266093303253001,-535.794201569535744056338,218.050378501816453535866,432.49329607820993714995,155.704943527404481073972
2.47999999999999998223643,0.75492572108371913675029,-0.71632780088570557897043,0.481572177778470500442154,-0.0192215096232389547059594,-0.0142625910415293717659058,-0.000173276054021808604936605,-0.00569704752900872506832242,0.00319916090083529822130082,-0.843134772552897704400721,-0.537662452469428453483147,0.0890060080988010482450079,0.0839488285036734949162707,9.84628745197450427895092,0.00732651115772680813775786,-0.00628778389735819027289709,0.00739392729958958556946147,6.3567613093847370464573,1.95663583680924468843898,1.1156400873805338846978,1126.76490415274406586832,1108.09951597248073085211,1111.83528765993287379388,1132.78931735204423603136,1203.93738202640474810323,-487.934539368699404349172,275.313824509709263566037,354.28314476972292368373,155.703988623672159974376
2.48249999999999992894573,0.8581606845168806563251,-0.378551277381502793151213,0.484481100138660913945188,-0.0170206937827380097583152,-0.0163706166091562264897075,-7.32092437465562876188277e-05,-0.00571209049685706370114158,0.00321739273433107372118789,-0.843130661002405967785478,-0.537668638350310867934922,0.0873410664117070523193576,0.0794328634859375048993257,9.8463527369706955738593,0.00726582789558327755280454,-0.00620744137522787498700838,0.00751931687870563414399783,6.35676920917670873478755,1.95665849293673033137964,1.1156619295989174123207,1129.43346490783187618945,1107.08509698485840999638,1112.51091483201844312134,1133.44618105749736969301,982.496666777727114094887,-353.841155343532875576784,250.469303722917061350017,178.386231130120165744302,155.703259137323726690738
2.48499999999999987565502,0.925276573589707274081206,-0.0348558048303677509016651,0.549054986644555320651762,-0.0145715762507633381922512,-0.0171142495906058331178734,0.000164262735036891548623048,-0.00573027351844519142881618,0.00323492618715385529468143,-0.843124347274041396893551,-0.537678240228126491651039,0.0856773386920263446686619,0.0748427677786257794512181,9.84599808416965949220412,0.00719438212390057472978011,-0.00613787437270771514541412,0.00764550212631328121593022,6.35677741285178932173494,1.95668117183608791798122,1.11568450202391811210134,1131.6773874866325968469,1106.3303101957631042751,1113.08763417854743238422,1133.68124850769481781754,792.717290989177058690984,-255.535985857960469047612,180.279578278201938701386,13.6446690009952256161796,155.702595455282505554351
2.48750000000000026645353,0.954620231147180198227886,0.282110590643379011144276,0.655431785654920662231859,-0.0124069770329525846941365,-0.016558881545918852778998,0.000796465835008600673596002,-0.00575358856040011565347037,0.0032500958153877674422505,-0.843117119216667654235664,-0.537689226694330835165658,0.0840670299291061823288018,0.0702747500853118239882988,9.84518024169285332902746,0.00711080895981075749440192,-0.00607838155297269616683664,0.00777129021308688855418367,6.35678580591367303753714,1.95670496903868174065622,1.11570768312322021742489,1133.39705136277802921541,1105.80741705556852139125,1113.41231272340951363731,1133.51440440250235042186,540.438348254847255702771,-158.463655173307643053704,32.056045668284802729886,-162.189152144663211174702,155.70198354480328362115
2.49000000000000021316282,0.930599343347047636143543,0.528694249515973324626827,0.787450260190818429606452,-0.0105676804465351485695646,-0.014610185964909970859904,0.00221497415363724244746768,-0.00578046533302964144623859,0.00325986776708911971459082,-0.843109585519830284638942,-0.537700677288105888251835,0.0824911669329926044991197,0.0658087372941141557358691,9.84386211130066435259778,0.00701369918005925220561014,-0.00602856252944683305983187,0.00789607745437626018514266,6.35679432872324312597812,1.95672994955932044724989,1.11573099113814233618314,1134.37957922790701559279,1105.53799191989651262702,1113.24791440688886723365,1132.87030274697144704987,266.387479665633009062731,-74.4124898519219186709961,-214.242458905532686230799,-377.03042293688559993825,155.701430357944445859175
2.49250000000000015987212,0.824894233910755669825221,0.706968301967505041716322,0.933530667801655722470855,-0.00800649227859826298492329,-0.0111953349203428344227351,0.00506430273159061070109566,-0.00580795416471298862892692,0.00326347197888609457175346,-0.843101594769354756309099,-0.537712865579461185561172,0.0809332168301102328200614,0.0614713715865617821298983,9.84201229579281644532784,0.00690182395766115661106532,-0.00598845614498960763377733,0.00801976649291460605417647,6.35680246095500489644792,1.9567555037820081320632,1.11575344651079699787033,1134.72898876110616583901,1105.43535460630891975597,1112.34110042888187308563,1131.62925228781796249677,14.2262720659803871825488,-14.0013754851227787412427,-451.176475220709619406989,-513.057142034051139489748,155.700829600585194611995
2.49500000000000010658141,0.658949004172823538105774,0.74727588211770523685118,1.01444779414328167810311,-0.0054763490556263257416636,-0.00795405016940427082861031,0.00829374555632773034774541,-0.00583301384193218083046295,0.00326418067918762301593549,-0.843093162159355480334,-0.537725781671077540657677,0.0794180481314077368892868,0.0572203280788320250982437,9.83960501279214660996786,0.00677431907099609442041155,-0.00595862612392004508538035,0.00814261452170332925004637,6.35680907426840935414702,1.95678134384073532103798,1.11577398155050921957354,1134.45071058823691600992,1105.46798504247090022545,1110.9920320307853671693,1130.30501703680124592211,-184.152544240991403512453,22.2787498570146667020708,-635.879099189300973193895,-558.927156248649339431722,155.700378012149855067037
2.49750000000000005329071,0.402126658211606535786586,0.686975040614005827421806,1.02705101770740969691076,-0.00306902404221995198443929,-0.00507014401264492889365165,0.0119029702730036705815575,-0.00585393765585846565652206,0.00326847111998615448211214,-0.843084769257322785840358,-0.537738652290750351880888,0.0780251402893002571348191,0.0529735906253718663583285,9.83662038173091701764861,0.00663086688726279016581344,-0.00594005740478760740214126,0.00826498225596196747777533,6.35681344580408946853822,1.95680747154259027098533,1.11579205816425952590976,1133.80822603990122843243,1105.54674835559399070917,1109.16170493293543586333,1128.83461650657477548521,-309.628800816023840525304,32.1852731407041190436757,-856.62102249077190663229,-638.525655844946413708385,155.699973146929494305368
2.5,-0.0029043214683135004650083,0.540020273393898131431001,0.95501128524612544090644,-0.00105768729248646915254428,-0.00275179413831035720588991,0.015798936122740345200377,-0.00586913723597160853773236,0.00328420272480477865029158,-0.843076718301604355332302,-0.537750977862289203379476,0.0768473077899331363793678,0.0486270646089342548079593,9.83304553027325667358127,0.0064718867602890015056083,-0.00593390625855853837133935,0.00838699047045878692818732,6.35681567590106944010131,1.95683381458884975145907,1.11580732463173748492125,1132.90256658415682977648,1105.62891140817441737454,1106.70892691833159915404,1127.11238875757658206567,-320.043739243380969128339,23.6073231891173733743017,-888.129731176942073034297,-593.772088082154255062051,155.699536488547863655185
2.50249999999999994670929,-0.398565752830601471856653,0.39730807783474331174034,0.830800932346543619111401,-0.000727341001340713077562283,-0.00201224677524309463264029,0.0182037658951143474506118,-0.00587930248918647115757841,0.0033151237789003510161856,-0.843070108399504913876399,-0.537761010545937390148197,0.0759666472916176588325854,0.044168407500460249437424,9.82887577250678390328176,0.00629871599919037353926266,-0.00594115325789931411626377,0.00850815047845005639759464,6.3568163888845852227405,1.95686013310545958709952,1.11581993132622225850525,1132.20800734368435769284,1105.66478497153957505361,1104.72105627705082042667,1125.86575606616406730609,-240.922965982104557269849,7.82505446345583877132412,-720.230865817863445954572,-431.312183116333585530811,155.699210072351519329459
2.50499999999999989341859,-0.811470615870630851418355,0.283909709764239015505893,0.659489271974877500070988,-0.0023847219869580346326976,-0.00240415250047247997661204,0.0196802817680529068544715,-0.00588339464137420907474674,0.00335908004153665559060604,-0.843068327075565004946611,-0.537763469463210297405453,0.0753674559530918414251843,0.0396638465736930193039633,9.82411681158545846415109,0.00611367203076459801713849,-0.00596240086653334645794278,0.00862695918269251738053072,6.35681721440552394142287,1.95688536560483372639396,1.11583162765648635783577,1131.69795175424633271177,1105.66803668049169573351,1103.10777258924235866289,1124.95582784199496018118,-176.170133737336186641187,-3.46726907996533650901938,-566.517984562154424565961,-309.077809087382092911866,155.698918363066297843034
2.50749999999999984012788,-1.27096557992921832536126,0.223202245720964587150092,0.421816858830268925917295,-0.00665405068153280578047148,-0.00367361656925819244148834,0.0206569214831056231773676,-0.00587937737739994883273686,0.00340912879889714937400869,-0.843073188403497097986872,-0.537755579460179600204128,0.0749587780415399695943535,0.0352469753394717838501649,9.81878607862790353522087,0.00592016145578110747349498,-0.00599765535931563037452818,0.00874057077129710563445641,6.35682012925939510239459,1.95690802878690606192436,1.11584465184644110458123,1131.32715667499769551796,1105.64744862613974873966,1101.88846635424010855786,1124.32036702072718981071,-103.374380989900899407985,-10.8307114242954369842664,-304.88418542616034301318,-161.78211064929018903058,155.698603606303635160657
2.51000000000000023092639,-1.59200194446909981671467,0.245567077661759253226492,0.207855965790974844820127,-0.0114200858084658671276479,-0.00473636075959262686785323,0.0210502868657652143780101,-0.00587033418561165500765275,0.00345860007014859834398313,-0.843081177657200697694861,-0.537742852262091064474703,0.0747284567940600386037886,0.0310988548825241982453971,9.81291286914838778443482,0.00572264816194971610852082,-0.00604627884932981522758677,0.00884468722232022164231324,6.35682542033838426931425,1.95692713050062594426493,1.11586135765073390935243,1131.18107984929679332708,1105.61388312337021488929,1101.58335166211145406123,1124.14691728874845466635,-41.8932738933534807301839,-17.0147787527173370847322,26.1240804271420188342745,-15.0132024586117811537633,155.698367211992746206306
2.51250000000000017763568,-1.83152962354790305177232,0.32844595544652221974502,-0.0169924243967145421896348,-0.0164493791526998528462755,-0.00470576090731506403025408,0.0212199223777469782314942,-0.00586010798114905070987923,0.00350226249513919517947214,-0.843090177916697935955881,-0.537728589251304289753364,0.0746825509785647018157206,0.0273814573566981342422899,9.80653976479303146618349,0.00552598480664387957383976,-0.00610727621978406683828089,0.00893390132280226512140331,6.35683220833113971082184,1.95694231735721646536774,1.11588266767351540487141,1131.11769030553091397451,1105.5623747323761563166,1102.01908675637582746276,1124.24530100843412583345,-27.2648047915942157715108,-23.1522124747703337277471,278.196964664545248524519,64.9969930936563429213493,155.698153536722088574606
2.51500000000000012434498,-2.00534582920596049504525,0.435178902330917605212335,-0.249599206988279559427113,-0.0211084219388828348007436,-0.00338564515179854081186606,0.0212625456123675254938021,-0.00585075245652188612871525,0.00353958730951751043489195,-0.84309948918048949195736,-0.537713861739735010658592,0.0748374244400863836146343,0.0241561331991751032655102,9.79972285437624002213397,0.00533486395541539915737816,-0.006179383419312689702807,0.00900223994873269872663002,6.35684029800192451631347,1.95695485048404016481527,1.11590865450639964429058,1131.04475582533882516145,1105.49812206099636568979,1102.97433648543415074528,1124.47190225421672948869,-49.488039863400587137221,-26.9887093006678995266157,466.53038571513292254167,100.468426642148514815744,155.697955604115577443736
2.51750000000000007105427,-2.10965282679373000718215,0.537015019232863322073968,-0.487713299651475584717275,-0.0249561985648899080370011,-0.0012457439376556578725791,0.0210749592337010523135366,-0.00584243270666932185131159,0.00357249762835528924045936,-0.843109148301448341200626,-0.537698593876730246421403,0.0751948985148580550941233,0.0214193615537531037440466,9.79253147172871862835564,0.00515334846058461675671891,-0.00626100124688767651487398,0.00904387836797797446675151,6.35685004648045826058933,1.95696574739118300811924,1.11593874680010496369675,1130.87025010621391629684,1105.42743118587281969667,1104.35173868495144233748,1124.74764314164485767833,-116.952898687443607173009,-30.7123446718385082476743,640.578907818430707266089,117.259561480161892177421,155.69777292715377825516
2.52000000000000001776357,-2.15585856603943160081371,0.624566307025029465727073,-0.764056606755067369007861,-0.0290784716682013291699782,0.00144096448240422841599595,0.0202937343103633191510049,-0.00583363440724609522147759,0.00360304068398963062147544,-0.843121046137094709571613,-0.537679823283859326110701,0.0757222920516973097004865,0.019142891482665989194567,9.78504729909395187803511,0.00498450113703248400692791,-0.00635022215606187087622025,0.00905381945465686191476529,6.35686174947251458888786,1.95697602748891807955545,1.11597146673250136039712,1130.45999133190161956009,1105.34456033763717641705,1106.17723102452623606951,1125.05820006161752644402,-188.834041460863261363556,-30.7670175610389584619497,654.280720035208446461183,111.089833234748411427972,155.697566560759412368498
2.52249999999999996447286,-2.11004259059111598517688,0.660283597520462062213653,-0.963939038563456640495986,-0.0328771575999751639041158,0.00366064053755513598223392,0.0188568842587373101948867,-0.00582243411706595201393633,0.00363338941626969134934821,-0.843137286648728334625957,-0.537654260579185083734899,0.0763752242495283617529367,0.0172867171788517459685153,9.77736247930587154542081,0.00483023984658394450047991,-0.00644492521218364543961199,0.00902838716201733934574314,6.35687518746193092056274,1.95698650124794903959469,1.11600509417235249642886,1129.92607989890962016943,1105.27359609806762819062,1107.62314228512741465238,1125.30309230781858786941,-250.731408977668138504669,-33.0509428071771012014324,523.631742996724142358289,109.880780378582656453545,155.697401817249556188472
2.52499999999999991118216,-1.92960446268482899156993,0.66028884529723830265624,-1.09320133262499563642223,-0.0378410424896398200900194,0.00562839732638486297394698,0.0161893169758231952881644,-0.00580589206010484817910289,0.00366331340103422369719466,-0.843158550866003553281303,-0.537620877382786188647401,0.0770632094953005719606409,0.0158341297537369467274271,9.76957773451883326742973,0.00469125929517606472113345,-0.00654291774144649066619062,0.00896553981907522411221034,6.35689009439862751094097,1.95699768330479395572752,1.11603805026897862084923,1129.20633428701330558397,1105.17930562360129442823,1108.79538973950980107475,1125.60760396351042800234,-349.320393431806394346495,-55.1484057686605311232597,431.38508579178062518622,176.966468237155055476251,155.69724045218339369967
2.52749999999999985789145,-1.49107289287235000863063,0.633776696992016441711826,-1.11733481496429409851601,-0.0453621890305151084787916,0.00728307686861882387641121,0.0113266070903969943983736,-0.00578168707098194491200704,0.00369219680403275792718309,-0.843184450387617800970474,-0.53758031920673265968702,0.0777000695911929384340766,0.0147753616514711624829737,9.76179931923762289613933,0.00456708175598524983990201,-0.0066421739588443913862581,0.00886486828820871701484219,6.35690605965886668116127,1.95700962578967474492231,1.11606889158210309531682,1128.17947793175062543014,1104.99785406922433139698,1109.78006771408627173514,1126.18792464900434424635,-394.180948990807110021706,-84.5127020166216738061848,292.005633066699658684229,271.380619195297072110407,155.697045965401429157282
2.53000000000000024868996,-0.908456360248018679470761,0.601883942310444397527647,-1.00351963209021288747635,-0.0522848147199669668894195,0.00833230199471305353620121,0.00619800578039752039782861,-0.00575326284667718266391256,0.0037197366222550109354783,-0.843209916508001477986056,-0.537540498864312876747817,0.0782983239180156387337917,0.0141502176426297025801926,9.75413553856816584186618,0.00445631490806905859736187,-0.00674090692603502260327186,0.00872739719238832360737046,6.35692086750397677974433,1.95702277148237757664617,1.11609653579590251126774,1127.23542954205913702026,1104.75674211351815756643,1110.2554179048433979915,1126.96450705948700488079,-383.662355898260557296453,-120.959306076375483485208,135.7656819035946114127,391.013400557468230545055,155.696879737814526833972
2.53250000000000019539925,-0.113537653508897801168942,0.569383746410390134684576,-0.754438193868461004498727,-0.0578401139594944616040273,0.00952113352638135276850839,0.00142335221289073120959356,-0.00572322882282849578622352,0.00374489798579970929390259,-0.843231230713300194956616,-0.537507223940949740992323,0.0788507432318703710416585,0.013995602777701107721775,9.74669485853376116324398,0.00435658914220534484312841,-0.00683773023956833325004423,0.0085552528736384456098385,6.35693301374522246049992,1.95703736225176427865335,1.11612106841117930677854,1126.26116615225919304066,1104.39305753884241312335,1110.45889612360429055116,1128.14299165179181727581,-419.627212648865508981544,-188.865578692552332995547,57.570325255529816388389,613.643897343094408824982,155.696705108580147225439
2.53500000000000014210855,0.982807494469177145290928,0.534175691831596743952559,-0.358496132404870881948966,-0.059322362637720144062925,0.010998331845192971245595,-0.00122393822753370210172641,-0.00569261603620951038562392,0.00376453056711445422852225,-0.843246994049387299519083,-0.537482696772256240969057,0.0793051575141598547036281,0.0143604927952227685861164,9.73958358349060659975294,0.00426484043341241597646629,-0.00693146762324777648833773,0.0083512708204656199706406,6.35694300175850024459123,1.95705366270291558628003,1.11614372951508178388735,1125.13729347881485409744,1103.81241422005541608087,1110.54326953112104092725,1130.03272654620241155499,-391.989430896509645663173,-231.416439429136005401233,27.4007086769876337939422,756.146478368753150789416,155.696481129261428577593
2.53750000000000008881784,1.89298817055023094191313,0.509251889545255909119703,-0.0160269346272248931761784,-0.0546930860550739472714099,0.0119967534885493023327774,-0.000215104576015034639792367,-0.00566438292303156516738216,0.00377938313624144681807104,-0.843256468158350647179589,-0.537468037211358051763455,0.0796863808177021293310816,0.0152440574175846839388715,9.73290234355084749040543,0.00417786241583199824400907,-0.00702092507885467703721005,0.00811857502816767072351123,6.35695096889991440036738,1.95707212854680778768568,1.11616502841277132063169,1124.30121899777668659226,1103.23597534169675782323,1110.5958996669892258069,1131.9237240436355023121,-300.480855706343447764084,-236.690487399487722086633,39.0694146672111983775721,783.678379901465063994692,155.696279044471708630226
2.54000000000000003552714,2.64600607263988685247114,0.487735556566764039132522,0.263175758319204478041797,-0.0453534616556855660340908,0.0128252086239274039336511,0.0024343402510083045342526,-0.00564123777438532182648689,0.00379254753176888137825018,-0.843260006905385717246304,-0.537462640223041687725924,0.0800446210611692049452515,0.016598697081682611126352,9.72674457925497293331318,0.00409268206553171053074802,-0.00710469376755767413611498,0.00786041382339603550422069,6.35695814125812130868098,1.95709295015897999370225,1.11618542312081725498274,1123.63488920028316897515,1102.62896178305800276576,1110.73861660445709276246,1133.95111844570965331513,-232.874624395622475958589,-235.436473074201359168001,81.2658939894407978954405,795.350493709037095868553,155.696056891067257765826
2.54249999999999998223643,3.18433846823973221162873,0.464416329682112216659107,0.456227763347135606419869,-0.03435553009140186048187,0.0137031833050372132271066,0.00504877605160258900035553,-0.00562084964993151640216817,0.00380616955283375390725609,-0.843258746529633396171732,-0.537464734172186320293463,0.080342844261786075521492,0.0183342768160877946093112,9.72119594242991169608104,0.00400689019841292230761365,-0.00718106334459154074800757,0.0075801063856718690903147,6.35696649537898039739048,1.95711501777493390719087,1.11620464188598433885602,1123.13684587579859908146,1102.0587929763257761806,1111.00222913693642112776,1135.90047651218060309475,-160.072819076780206160038,-204.894612197317485424719,136.765746662106920439328,711.771404523612204684468,155.695815094215845419967
2.54499999999999992894573,3.4214911371920280203085,0.428688769339093667110063,0.535579151837258571333678,-0.0231282222836133206922415,0.0146371711073223637056273,0.00736489052088025973608065,-0.00559982360658266373892866,0.00382100480091473191160412,-0.843254091499557989486391,-0.537472149606630589246947,0.0805174931505867330638893,0.0203673457191438748992152,9.71633260235898532641841,0.00391896200504853430002239,-0.007248075611686305430581,0.00728097654735570740114348,6.35697737985004618366247,1.95713661075025435742702,1.11622252518973752444253,1122.83452510489928499737,1101.60448872207143722335,1111.42244533776761272748,1137.50997546832763873681,-100.700338595336106095601,-159.446339754280188572011,213.920664096262953535188,574.33760271202436342719,155.695546005770381725597
2.54749999999999987565502,3.37451717830355457650171,0.354685207102743316198712,0.514048257646119832742215,-0.0105539151724530905207544,0.0159251351712345751154842,0.00982187699189024550350258,-0.00557583179168299851446999,0.00383209392341379287069691,-0.843249213658333385268406,-0.537479971460427696783313,0.0804678600996146797807995,0.0227145063183280711271994,9.71222045993056326551596,0.00382818952856832199482806,-0.0073037178485408577391369,0.0069663404275769865228729,6.35699101857821347039135,1.95715677861666836889754,1.11623880998319879864766,1122.63334418282192928018,1101.26156127755439229077,1112.07183245741771315807,1138.77216452574066352099,-62.6509603479420107419173,-86.7635904514314120206109,251.061015177384774688107,324.597753359444993748184,155.69518690808268956971
2.55000000000000026645353,3.11096185138412684167974,0.254793424270999657732517,0.42300196286200808515332,-0.00140018956269877671398649,0.0172786474476682612444467,0.0114908193683654399203098,-0.0055514390872272141932986,0.00383479667704667145575192,-0.843246433115514726353013,-0.537484565617541987236905,0.0801814418841815396143957,0.0254341546313434987980351,9.7089130273453463360056,0.00373460187356253756410518,-0.00734621137088815878701809,0.0066393153958929935348765,6.35700653639236001879453,1.95717569448802342080285,1.11625414809409284622177,1122.52127030315955380502,1101.17067076981425088888,1112.67775041365462129761,1139.13296423512497312913,-55.8758657636607054541855,4.35048630279168424550562,236.679843670419757017953,-6.71871453951052988173842,155.694854016932197282586
2.55250000000000021316282,2.70691733049207616801368,0.106777818093005572031018,0.295727265861108090660991,0.00538561533051837813823592,0.018543675217513939934566,0.0124409701483750422673635,-0.00552723089501230748638028,0.00382739406982578233076819,-0.843246277805074107014605,-0.537485108706355241281472,0.0796479122653765275741122,0.0285130672069363218235072,9.70645137154744475083135,0.00363862915091693562771868,-0.00737429315734688256567253,0.00630270999086363949148737,6.35702313907972804685187,1.95719316675640553349069,1.11626928150206250478504,1122.353964854003606888,1101.28331370906835218193,1113.25523167576989180816,1138.73857095304310860229,-111.432766210148301411209,90.6462087932160329728504,220.177581985904140537968,-322.052453249814391256223,155.694481721736707413584
2.55500000000000015987212,2.17957655266174921138145,-0.12094804156933022798448,0.153521124768544320327024,0.0102232047734152967088939,0.0194026360439578798855464,0.012154075721613886995609,-0.00550678762209883768813379,0.00381028519638175813821768,-0.843248271309415819985134,-0.537482307330058528549444,0.0789316403570295976876992,0.0319324918677543409528674,9.70486316047051644773092,0.00354086866540631508420978,-0.00738728172562455858568553,0.00595908607787651485587777,6.35704008943296638989295,1.9572089792292193255463,1.11628485426318801998491,1121.96410647210882416402,1101.62390181378032139037,1113.77863832358411855239,1137.52270196887593556312,-187.876915376459152184907,152.690045208422446876284,142.22663752493949118616,-529.75611201064782562753,155.693983726145773971439
2.55750000000000010658141,1.77836299846708634220249,-0.337380939529646539654095,0.0771588044266690725736524,0.0124049157741208861821525,0.0193161283326742545807253,0.0109280425371549999580267,-0.00549218332717906713297262,0.00378580766334262819663992,-0.843252616747345196124286,-0.537475804362503306599308,0.0780957522080821670007467,0.0356250639824241752129375,9.70416297049947296216033,0.00344175707059407066934487,-0.00738512193461959582513332,0.00561090801196626690755531,6.35705709841474764232316,1.95722349687557017894335,1.11630155953494547560467,1121.41458027712133116438,1102.04676393511044807383,1113.96636486339457405847,1136.08979039298992574913,-271.964522841386838081235,189.58800200071385688716,-0.654674980933137140581835,-596.999816319988894974813,155.693521558606136068192
2.56000000000000005329071,1.46769467692002852921007,-0.553819966915483963276756,0.0651512610686252047198508,0.0143383443189766084102654,0.0181965626294401071338935,0.00964671286441619833806893,-0.00548162000125422283619558,0.00375370887964144878817807,-0.843257687356709917381181,-0.537468171181480935949537,0.0771160698894576557282932,0.0395254773484877558464845,9.70435281405687888423017,0.0033414146987846716357895,-0.00736824940712925684910273,0.00526084835801828715196038,6.35707373802191533229689,1.95723699687744168151937,1.11631845707328092309751,1120.60428385790191896376,1102.57184182378387049539,1113.77536494867945293663,1134.53770288727605475287,-405.584739458262902189745,243.212062266416694455984,-193.175164389553657429133,-632.791659890531150267634,155.69300471606874225472
2.5625,1.21152098353307580147487,-0.777372358728870782584863,0.118102945615932930500946,0.0171350558331279413659676,0.0155823256595198703089444,0.00901471819045802230663256,-0.00547290717236113832822042,0.00371549713506059585063634,-0.843260556364037405785439,-0.537464011564201538107,0.075983274214543053415305,0.043536454008031702511694,9.7054210283219557453549,0.0032395886451524642801747,-0.00733751827182463692289538,0.00491193552551170368319911,6.35708937357721826089119,1.95725015230352661355084,1.11633401292421452488668,1119.38665657983005985443,1103.26282424644250568235,1113.00048904144682637707,1132.92583209353733764146,-466.495269164498438385635,253.375938894720036387298,-383.425217078510286228266,-500.300555664954799794941,155.692314192324317900784
2.56499999999999994670929,1.08471838051859315044112,-0.911527484321940195677314,0.197876195551895978086421,0.0196706268302113788937202,0.012520149637159310937462,0.00947809695370027682770342,-0.0054616137849603403620069,0.00367410569698030506011199,-0.843260582531273339412792,-0.537464356888588401517381,0.0746691259042106120213944,0.0475155159226191767252168,9.70734251408730486332388,0.00313552345155877765225938,-0.0072941109216286851776867,0.00456760302382275881066809,6.35710364944559636057875,1.95726337951835627215758,1.11634719189731357325002,1118.27180751207947650983,1103.8387215182574436767,1111.85823886328694243275,1132.03620010895133418671,-429.783731580446385578398,217.705598705792993996511,-557.990567061609112897713,-222.752449753629861106674,155.69167466690251444561
2.56749999999999989341859,1.02671032361741687566337,-0.97921693926495922966069,0.284960666821729990960677,0.0220534338769031168503432,0.00909399201211384157483852,0.0106940680466228732470313,-0.00544671991047524731849316,0.00363174159764001382860732,-0.843258709360259817167105,-0.53746772282760668648649,0.0731965686245082680638774,0.0513698739867687464988322,9.71007816152873104442733,0.00302810647735337820640744,-0.00723931772758492318720069,0.00423159470078865798670087,6.35711643527052494562213,1.95727732122249054036445,1.11635731267444637815345,1117.23773792192787368549,1104.35135223997144748864,1110.21053620613884049817,1131.81206984476921206806,-368.729417949960975420254,186.687961437750686854997,-731.240293790476357571606,30.5059893860295368028801,155.690961774700781461434
2.56999999999999984012788,1.00785119536805378714917,-0.99644415548478371125185,0.360137233843410342615243,0.0242351919618389692601124,0.00592549808187296800365829,0.0120194408035724578653891,-0.00543033315591733012350772,0.00358706130333937304663361,-0.84325404503389445043382,-0.537475496504839167499767,0.0716053549259894894785106,0.0551004966603082166343164,9.71357524861596566267963,0.00291611883022116838426463,-0.0071743288258450587865922,0.00390773822811681971478581,6.35712753146696041284258,1.95729203683231633981165,1.11636500917962533385719,1116.42816042232971085468,1104.77216132544617721578,1108.20203739433463852038,1132.18873005588147861999,-235.80595810584100036067,140.249515596260238226023,-865.103211447363491970464,281.508564710592622759577,155.690183150995522964877
2.57250000000000023092639,1.01194973108058139388277,-0.973241520508936641675746,0.408206619760332123370006,0.0264741028301302520897575,0.00357172524634014184816144,0.0132771604029688020803812,-0.00541922101013130735891465,0.00354063690821388365667644,-0.843247102894541855633292,-0.53748679973048751890019,0.0700341165713479069099279,0.0587288955647170124452217,9.71776732997317260753789,0.00279840962413853205567604,-0.0071001648265929355463566,0.00359959357680777374335901,6.35713758736722933662122,1.95730751105389355615216,1.1163716851381324524084,1116.0587081313985891029,1105.05259981795279600192,1105.88502014890173086314,1133.21961266832227011037,-32.8508096985365796172118,87.8105094011911972984308,-1049.8946642355094809318,554.981164739828045640024,155.689320380358054762837
2.57500000000000017763568,1.00839929725384203074157,-0.931948194870110713239342,0.426701517266428020924707,0.0295420898883112792443484,0.00157882302910569943636687,0.0149039869661846229031976,-0.0054185438114008428397983,0.00349651278084631362066959,-0.843239770144710854005154,-0.537498591292742577962827,0.0686337325314625990024808,0.0622064931980668631150699,9.72257597455654298812533,0.00267408660510807518959076,-0.00701760347407698586302827,0.00331027564326247161069494,6.35714768039450994763229,1.95732374740024961390361,1.11637831930420361459255,1116.26390637383701687213,1105.21121387245216283191,1102.95256407315673641278,1134.96363587958080643148,187.582268901318826692659,29.3170248699886428767059,-1070.55369853085267095594,667.909658367685210578202,155.688183004674129961131
2.57750000000000012434498,0.972836485056018496209163,-0.906284181980856806681857,0.40863616308641076413366,0.0323843963284288979820325,0.0001646266900546184731597,0.0162864117155216078791646,-0.00543337632303679193834789,0.00345370545478161867017364,-0.843232564501587456007314,-0.537510011660564224200698,0.0675026759913971152737844,0.0655701744578353895587242,9.7279120025560956719346,0.00254275381007338426714304,-0.00692709448528898950880883,0.00304260076301379397967217,6.35715833987570810847956,1.95734038243739383311492,1.11638474011698374255275,1116.99661947590516319906,1105.19918494230273608991,1100.5322516562475811952,1136.55916096016062510898,393.390128895643329087761,-29.092186323396784786155,-934.226047715330309983983,586.392387727950108455843,155.687147781698314474852
2.58000000000000007105427,0.878305001393269835219257,-0.901664707829896272528458,0.360975443461241329856648,0.0353792235357008461038575,-0.0013325644020612857978958,0.0173163660304656574773219,-0.00546434226945166894723327,0.00340925923844050777697379,-0.843226729719577461352742,-0.537519121864704518820588,0.0666466536021321914740057,0.0688467700167387924858886,9.73367716374889013764005,0.00240455629248377848392049,-0.00682891829098474824333298,0.0027991002196456320899598,6.35716996604260131675801,1.95735633006834630620574,1.1163907698461765782838,1118.23085701831519145344,1105.0657529408351820166,1098.28143383458018433885,1137.895597818220494446,616.145870489721801277483,-72.3266617541882510522555,-930.402011862562858368619,434.898552025524793407385,155.686020326795016899268
2.58250000000000001776357,0.681009468755600089195923,-0.919131489071664420364982,0.28068337023663936236062,0.0386659592241692731673375,-0.00330654944077948560049451,0.018097794704194484355364,-0.00550700493311044418642819,0.00336297337404001641172901,-0.843223953193319664123351,-0.537523322560388816526711,0.0660170863038750110884934,0.0719692497983961398944075,9.73976560422188697430101,0.00226018589674046015830511,-0.00672333253478371844352734,0.0025820008372838083518519,6.3571831013160515766458,1.95737078563406630138388,1.11639590060984805752753,1120.07734882835370626708,1104.83755163353180250851,1095.88024159693486581091,1138.73365372028820274863,696.317852644384743143746,-79.1853065362846422203802,-822.711186184250664155115,127.920440220989803492557,155.684560683757524657267
2.58499999999999996447286,0.447037379041316518257787,-0.943505387401595618790395,0.202566476942717371700908,0.0406982956639506676665974,-0.00541305265274463764946233,0.018603387188932226509186,-0.00555625167382321500514353,0.00331759485602555782846057,-0.843227426485525066723881,-0.537517645183335002201375,0.0655844776214223879051701,0.0748194500940342621664314,9.74606500646664031251021,0.00211070665594323240987773,-0.00661069831823638074524974,0.00239323277050469424703794,6.35719777813891884221675,1.95738337375079707314285,1.11639967905394743574732,1121.71244628153704070428,1104.66982640815376726096,1094.16787790365901855694,1138.53520001932542982104,621.824039908246618324483,-39.9787174146248958095384,-619.609783470027196017327,-292.40233161054391075595,155.68325646296790409906
2.58749999999999991118216,0.154002756970951282244897,-0.961647525579764517189574,0.120662861025692555450028,0.0416546276911561041966792,-0.00817524660804633956923126,0.0190710091316885835266426,-0.00560406361797477752667573,0.00327539045314829144542323,-0.84323822687777549855781,-0.537500471681930047651576,0.0652648205588005070332258,0.0772613536958385443975672,9.75245895756347458416258,0.0019573499917845903726954,-0.0064915866275846965949281,0.00223439099466266229143674,6.35721441562570088734674,1.95739389476564729086761,1.11640215953514410074376,1123.1864690278948728519,1104.63765804645868229272,1092.78219267958479576919,1137.27164206223551445873,561.085093245913526516233,41.7615418055456544266235,-526.923009044560217262188,-779.578941910875300891348,155.681863636625905655819
2.58999999999999985789145,-0.240987872507235800778602,-0.961184941590441432879288,0.0271856069411068289320976,0.0415130838572466687175222,-0.01165141971291169982472,0.0193747208270693346832125,-0.00564587793792290047051319,0.00324075742090109081630644,-0.843253573562636304927764,-0.537476184598004502745994,0.0650507740058192535093085,0.0791652388312280852478153,9.75882798141973495376078,0.00180126222883852352314726,-0.00636692310360554170750591,0.00210660465248346459588014,6.35723182508368900300866,1.95740304120480135274818,1.11640357504790377340953,1124.51787174776654865127,1104.8786341171814910922,1091.53326285843627374561,1134.63730530977113630797,393.556679381727747113473,147.416356238854007187911,-381.407414208862689974922,-1101.34404395109254437557,155.680094218846647891041
2.59250000000000024868996,-0.586421640557655221570599,-0.939112992516759059746789,-0.0388392145216840331545249,0.0403745030792383649553834,-0.0141276206776426247607725,0.0193091011093407573240288,-0.00568306797070079923461794,0.00321747658409790972602882,-0.843272184915668576721259,-0.537446754340501042790379,0.0650243532542992275224947,0.0804792621953721309946417,9.7650513700622205703894,0.00164311366269863693388709,-0.00623813432930463152015221,0.00201047217926751198638358,6.35724870478214310054454,1.9574118383620842109849,1.11640414084939054717438,1125.15425242480364431685,1105.37473982765300206665,1090.87515560854035356897,1131.7649218424796799809,154.312251735781103434419,263.695936719550843463367,-173.054878492927997513107,-1199.34628801384951657383,155.678541806872971164921
2.59500000000000019539925,-0.927045647111127246731144,-0.897736984803398363474969,-0.0830017123922943689251497,0.0381006102448169306495807,-0.01626940524222053596759,0.0188808639992247458139207,-0.00571577809448250203500086,0.00320267752768702094329223,-0.843292678413403828940886,-0.537414362633880315911483,0.0651754133319899647824869,0.0812543690129684803569177,9.7710107096100653478743,0.00148302412987370629479655,-0.00610715011025461749355481,0.00194600314495673581971502,6.35726431550164239325795,1.95742088901360689057185,1.11640363459528502154683,1125.28943300644550618017,1106.19711380077933426946,1090.66798846597157535143,1128.64057386970148399996,-12.4587212380904865938192,376.471039169799780665926,-0.310249441463390451811932,-1216.13532774142959169694,155.676913561449197231923
2.59750000000000014210855,-1.25128721406981835428951,-0.843983697281403544288025,-0.103841143808867664155571,0.0350222817055319407542058,-0.0184372909341431918950338,0.0182034178894080050925552,-0.00574442865650777890335066,0.00319031548160171119291051,-0.84331230305575255457029,-0.537383356406240575431355,0.0654624181213740580220772,0.081603422851042273222788,9.77659210779615506226037,0.00132070190203581222694595,-0.0059763402461923331374094,0.00191246756116601095490393,6.35727864009427090508098,1.95743048692995458281985,1.11640304052145156177289,1125.09195881861319321615,1107.25709502350196089537,1090.87360436133303664974,1125.68424520377266162541,-122.548859327710374600429,462.57273180918747357282,188.503996832836861585747,-1063.49746832486289349617,155.675226551537633667976
2.60000000000000008881784,-1.54793461847365576566915,-0.78010177204467068268201,-0.0958338049586492379816605,0.0314370939387041969936831,-0.0204298951657737280773741,0.0174304361236338918594857,-0.00577290048981708107250777,0.00317872045178261035044964,-0.843329640766627419701251,-0.537355928251097902936806,0.0659444772194393014075331,0.0816103063528249850211438,9.7816882300251446480388,0.00115559677275676271276939,-0.00584844161330708503521159,0.00190826617846243801190909,6.3572911480409501905342,1.95744044499428859751333,1.11640316025365349261733,1124.67668870980696738116,1108.50997745982522246777,1091.61050845013573962206,1123.32308652807728321932,-175.699403408001785464876,561.792135062717647997488,448.383487709007113153348,-838.426540863401555725432,155.673474121821584503778
2.60250000000000003552714,-1.86866642438049446184323,-0.699275109840879149913917,-0.0615902917013245038146962,0.0268463643788597015882313,-0.0222116040050193627730657,0.016917307866553450007574,-0.00580516200865489363780458,0.00317316761119140408609063,-0.843343099517186112201728,-0.537334501164413946838749,0.0667523961148655531339102,0.0812517371049898268209333,9.78620137608322337996469,0.000987155319415937036395259,-0.00572640504724875650660598,0.00193094771292290682228321,6.35730074156827829057193,1.95745018296897965726089,1.11640414298588153130254,1124.21346180157320304716,1110.06605569881548944977,1093.11552179987802446703,1121.49211249945574309095,-123.283920107180975378469,550.538680555712630848575,647.705381843402506092389,-491.490323384197381528793,155.671303197020733932732
2.60499999999999998223643,-2.1038515883527080241322,-0.63239479322674807537652,-0.0243474429763275886096086,0.0227930520790727390856301,-0.0232246710464877985369281,0.0171173700824479614601703,-0.00584206056027484869896949,0.00317868380601702251245233,-0.843352054996451938606583,-0.537320015376127169126619,0.0679597392735251382145378,0.0804815148860107548722809,9.79004639696178813323968,0.000815004820747230085582757,-0.00561310884038739282136943,0.00197739558169699770895367,6.35730741761045514692796,1.95745955507532976014318,1.116406084288460442977,1124.0602691092710756493,1111.26267086260372707329,1094.84903535935268337198,1120.86563491115634860762,23.5115702379066995320045,422.663882157084913160361,770.185592437535888166167,-82.6669082170628257699718,155.669443410911640057748
2.60749999999999992894573,-2.29483475692859872907547,-0.563534285403798240743356,0.00837773019408346447667313,0.0182241396991547448258597,-0.0242700300722205747350202,0.017607550753715384833642,-0.00588583260980303675513614,0.00319800004742755309208868,-0.843357616647186003611125,-0.537310690291067150070603,0.0696350159303985027925421,0.0793109574758214808110068,9.79315211077326175370672,0.000639169246913676766114198,-0.00551098871484121798774991,0.00204399343770998807162664,6.35731226410045380248448,1.9574689031476091294337,1.11640877576698827056134,1124.33101965276273404015,1112.17937510960086910927,1096.96644976206562205334,1121.07877795837043777283,233.945773680039081909854,301.878566595184622656234,976.197309457550431943673,238.829788812432155964416,155.667538681177006765211
2.60999999999999987565502,-2.44614336024626055632325,-0.46587758951320135114571,0.0351533842624568784729355,0.0114939244631770479121435,-0.0259231777273719668497343,0.018041559567589505325147,-0.00593546877662907632067224,0.00323234623367627937201574,-0.843362067896667899624674,-0.537302948549823300439243,0.0717724922438907342314707,0.077745969266124065333301,9.7954640077194987668463,0.0004602655368106324702826,-0.00542175411296118466009109,0.00212669566652544340598641,6.35731643782782818163923,1.95747841913368691990627,1.11641167714577460579051,1125.22999797767124618986,1112.77206369557961807004,1099.73002190664033150824,1122.05978385521848395001,418.248098128396065931156,112.968438112185694421896,1009.85263856466644938337,438.045507653366712474963,155.6652104670533560693
2.61250000000000026645353,-2.48245514405381628719738,-0.361147579705669297123194,0.0474704361324591248005866,0.00462913842435220840992871,-0.0274861838541376780897796,0.0181762459225878192370374,-0.00598387612805871896282106,0.00327776030436106088211679,-0.843368562684857492328661,-0.537291942156501001193192,0.0742054128471634072417018,0.0758168001485217540880157,9.79694650288638513302431,0.000279632721280274095920076,-0.00534624704296131954966986,0.00222108592140670335277064,6.3573218154450348293949,1.95748725907383236410908,1.11641442764563492140439,1126.4222601434048556257,1112.74421730016183573753,1102.01571295488929536077,1123.26900549663741912809,540.831111204224612265534,-129.976146098888733604326,861.415390565922393761866,516.965964362645195251389,155.663241887323664514042
2.61500000000000021316282,-2.40365359934930200580538,-0.2252956489613454627019,0.05283342144840679627249,-0.00282344909174767066950551,-0.0288427194856135660216978,0.0182253009658784291546763,-0.00602454888747222874756382,0.0033295310578039727031352,-0.843379602556839524929444,-0.537273845477240663548457,0.0767620205466210681066741,0.0735734681540548551836878,9.79758314843764743784504,9.93891237589698757796605e-05,-0.00528449051610791701444336,0.00232233793026381677218617,6.35732986469890626324286,1.9574944024061435854378,1.11641703680297355028017,1127.93415353369255171856,1112.12218296508513049048,1104.03709885947023394692,1124.64461367703188443556,627.474252443166506054695,-343.660322092644548774842,734.843961982748851369251,548.400564092083072864625,155.661252359324748795188
2.61750000000000015987212,-2.22894853198154940798759,-0.0661432599754827321714146,0.0548626533369403687756538,-0.00970926475192160874649883,-0.0297019848092028859731784,0.0183747269841273604129572,-0.00605712749870540405339181,0.00338237621612072752314004,-0.84339348960395810195223,-0.537251355269129704517184,0.0793585526434758131708591,0.0711401163518452783751655,9.79737657305293652143519,-7.7678150354704771584323e-05,-0.00523587113817612203464646,0.00242519315184462668291698,6.35733942239090854542383,1.95749988004450248268995,1.11641946675375147712828,1129.55963140562062108074,1111.02591568969864965766,1105.6899327648029611737,1126.01100831709777594369,638.342891346214855730068,-534.298516399906020524213,552.67170557918962003896,518.753015186541347247839,155.659251926711220903599
2.62000000000000010658141,-1.9602293808554334120231,0.109375978785872587928374,0.0554502730135696397795186,-0.0151543013561815653744702,-0.0296361005797165545649907,0.0185366074972411407073558,-0.00608411193655184964756977,0.00343138221092831232489351,-0.843407582943784261964026,-0.537228615551815669171276,0.0819551932983354491923933,0.068663385880720073650707,9.79634942278743636734362,-0.000248470512137600812400257,-0.00519935343243951506031486,0.00252389704244669783872457,6.35735027139563335651928,1.95750376163061323708803,1.11642289306499331580369,1131.12586799042355778511,1109.45069038308565723128,1106.80045738736612292996,1127.23837875296453603369,631.179834841181900628726,-765.004864093332685115456,362.560033801454210333759,487.326642419894994873175,155.657246291757132894418
2.62250000000000005329071,-1.57350117405388800762012,0.319621705066470696010583,0.0582991309572761587376455,-0.0198213517393674397426562,-0.0284000129889553122597423,0.0185561044480591283423188,-0.00610780256350692586642115,0.00347473237456597796798952,-0.843420416528177674386768,-0.53720791162612924196651,0.0845346590117099228045561,0.0662337000703918793442782,9.79454461519546804026959,-0.000409875463701622267439356,-0.00517362554988128400812464,0.00261220554738161034671884,6.35736250852011153256171,1.95750657443923525846685,1.11642832706839789658204,1132.71553057982646350865,1107.20089136923206751817,1107.50273293381019357184,1128.44764152919719890633,511.212944212604270433076,-850.04942532943448441074,167.098541387989740769626,392.879837471863709197351,155.654843950521495798966
2.625,-1.23102408930571916023666,0.484161874296219263413832,0.0645766538127428985083256,-0.0224045121750006508143382,-0.0268580945179110602838435,0.0184457171011079140710009,-0.00613042450820885584383824,0.00351542789871527299599974,-0.843431929932390245241436,-0.537189293899652975383674,0.0871228837154602864245589,0.0638570322335736545449336,9.79202435452344666089175,-0.000558964643140056520811965,-0.00515721506134881636784772,0.00268356952100252781068246,6.35737534204416654404213,1.95750856258585792524229,1.11643639213757128736404,1133.68193271148652456759,1105.20044325643857519026,1107.63595009430605387024,1129.20277794032381279976,297.958306876223105064128,-784.841059579110492450127,-12.1115282602661711308656,251.337977002918620428318,155.652853424459749476227
2.62749999999999994670929,-0.897732084729697676905857,0.634782839743569415880131,0.0742981620236721901351373,-0.024136027370945327408247,-0.0253509579261138526251607,0.0184188259282919326864647,-0.00615573736007045662493864,0.0035577917841380568217402,-0.843441983884409718363884,-0.53717291280348911097775,0.089779571466341565044722,0.0615289307759516179707759,9.78886844234906483563918,-0.000693096235513658304877582,-0.00514854486950823767021923,0.00273149912268723284863858,6.3573878611651792880366,1.95750988206923293155626,1.11644737972406926651558,1134.20532211420754720166,1103.27668607133659861574,1107.44217529250886400405,1129.70433141421176514996,129.444770869898121645747,-790.549371723062449746067,-122.979702799059737117204,173.44665775636173066232,155.650884137014315911074
2.62999999999999989341859,-0.526932220310173504707052,0.804054160470001000327045,0.0845962449219102435860052,-0.0257788418418803816356544,-0.0235721275815010677945338,0.0187289069860717936888417,-0.00618361826450316079406555,0.00360266522438989957727307,-0.84344987872453580646237,-0.537159866721357737162634,0.0924595488013812555339044,0.0592563736445035071920273,9.78517338987249019055525,-0.000810014086087114393297526,-0.00514591611880577375764956,0.00274995985672860749834956,6.35740062573557018765769,1.95750988403535020054846,1.11646087247807668241251,1134.32915656583600139129,1101.24769639782334706979,1107.02105158031076825864,1130.07001122910560297896,-27.2480298897795698565005,-679.882147258755026086874,-159.086728008882090534826,105.002909152883574961379,155.648556227374797344964
2.63249999999999984012788,-0.248052102005665325856754,0.938379284061578999853737,0.0873061721189282574639989,-0.0268082752679202618306675,-0.0219591076654478412066851,0.0191485060068026513580008,-0.00621210621072461246366947,0.00364863906083188723264432,-0.84345637113933269457533,-0.53714900601640125366032,0.0950615406496125026070132,0.0570583808351231916433655,9.78104919863528188272994,-0.000907983250966679198042109,-0.00514744881428351973295943,0.00273377706368525688965243,6.35741465194022392637407,1.95750732388430170871629,1.11647703775932050085373,1134.06908196475865224784,1099.87727533504289567645,1106.64674165246447046229,1130.22934595997617179819,-158.35768004611804826709,-473.31141446053595700505,-126.983243653367551928568,42.5440858092741507334722,155.646652781686498201452
2.63500000000000023092639,-0.0053437250637068181569056,1.06338144121087063709297,0.0806994497845848479666842,-0.0271756032905590139137075,-0.0198680525283306680384143,0.0195285392388953316089584,-0.0062399515320898830961216,0.00369316627743795531865767,-0.843464650634010215668468,-0.537135359518931876365855,0.0974841588854590684887214,0.0549741506609750379963586,9.77661532341228145526202,-0.000986063575138432452452109,-0.00515106189806338512354733,0.00267904882755836890040335,6.3574310670320395288968,1.95750202490426783441535,1.11649567916229930375493,1133.53736816560535771714,1098.88113932552050755476,1106.38613536204388765327,1130.28273165815198808559,-269.130436780351374181919,-354.071975179634819141938,-65.8364560044402509220163,1.75336579000019798790788,155.644794626998077546887
2.63750000000000017763568,0.236662813725045884094556,1.1920679377865541770376,0.0623785109821686362119308,-0.0267550285162047943310348,-0.01642307818173326453004,0.0198338163679533802108423,-0.00627038862935408187332387,0.00373746389511632991220491,-0.843474181009653878327015,-0.537119721348886747236406,0.0997415960891447489489181,0.0530226670537107050429348,9.7719954507140176502844,-0.00104436476796630674929167,-0.00515458422306886571151452,0.00258353836435142774144436,6.35744891483856822134157,1.95749583962911555268249,1.11651590082061180631001,1132.72342978085680442746,1098.10691545914460220956,1106.31755937244224696769,1130.23811278892617337988,-308.248695015124440033105,-219.565120433985754289097,23.4719183087695917322435,-37.4278333683386108532432,155.642624472243994659948
2.64000000000000012434498,0.39165293005414358873395,1.27299109057639148190333,0.0405740046842488766287715,-0.0258750019530892549912693,-0.0129543175674957152659905,0.0199394833030641892290813,-0.00630050268511269263155272,0.00378406727684802357200566,-0.843482876155842942189622,-0.537105379154774742467282,0.101765181140688332206423,0.0511317869754858156383648,9.76731520694156962747456,-0.00108445549919693596911674,-0.00515591267489306972343632,0.00244694264612516218168614,6.35746779241258952453109,1.95749082978934785259639,1.11653604887481905372226,1131.99612469052976848616,1097.78331372335060223122,1106.50349495358773310727,1130.09559249131029901037,-279.858042882694064701354,-70.6024966175861266037828,123.201506755824894412399,-86.0583697742658983997899,155.640870123175460548737
2.64250000000000007105427,0.493179014985004382509715,1.32244623848220266282283,0.015016780826647056767964,-0.0246459075562178060725405,-0.00941997214132538757125346,0.0198904585804197606146992,-0.00632413402845499218740688,0.00383158560185493544600344,-0.84349024129573446639796,-0.53709318828728402905881,0.103398991036252385633532,0.0492556786614568656301749,9.76269756864093452009001,-0.00110946599768733380683705,-0.00515314969075535145304201,0.00227109466385492586928962,6.3574872271390825417825,1.95748815747219295779757,1.11655418070173029221337,1131.32413956644336394675,1097.7539029760566791083,1106.93356690622135829472,1129.80782094005485305388,-246.10250177484502387415,32.1690355317521223810218,203.690179762502140192737,-144.610872778005955296976,155.639176177627291508543
2.64500000000000001776357,0.548430438812504195134068,1.3488345900059393045467,-0.0121605506259685105380219,-0.0231407328368526711559472,-0.00607809513902340687457881,0.019722285044451452057368,-0.00633860846663561981750856,0.00387444348058277061169763,-0.843495656355720102581586,-0.537084190929585370000154,0.104510226488164714719886,0.0474507829377200096576672,9.75825725900705975845995,-0.00112382028383380626855581,-0.00514480644781607852206173,0.00205990618838337337381805,6.35750602435978606763456,1.95748872590260369896953,1.11656889298043915381697,1130.76561218165556965687,1097.94415890100935939699,1107.52194585240022206563,1129.3725381274202845816,-185.107354771620833844281,125.068292777180374741874,256.232659509492805227637,-211.800022903757934500391,155.637534714526708512494
2.64749999999999996447286,0.548793765738210259641505,1.35547081825897808293746,-0.0417044527721596586244956,-0.0213518438276171576561957,-0.00320084312270532732672135,0.0194373629958879134971284,-0.00634281240759392624800617,0.00391196418973340214603196,-0.843498909258965867685731,-0.537078737063500288861917,0.105054363669380257384489,0.0457071012286819622350009,9.75409620149012113188292,-0.00113283846059790741477025,-0.00513001881436815805603846,0.00181894707498818819675634,6.35752356593567657938593,1.95749302145649095585611,1.11657995201376381011471,1130.39860279258527953061,1098.3792444399425676238,1108.21473020376879503601,1128.74882082553608597664,-114.580172646767721289507,243.819965531343513021056,303.435993392356181175273,-310.672477728582919098699,155.635958505937622931015
2.64999999999999991118216,0.494451656465084266045551,1.34855559753561360381013,-0.0843434937305802268081578,-0.0190160475116725770361459,-6.0896293225144693898182e-05,0.0190450728561538974725753,-0.0063320141554823791002482,0.00394720474006446039871854,-0.843500156320041938329268,-0.537076617672246570123207,0.104978617432847448620592,0.0439146624202046004237232,9.75030119640049086626732,-0.00114222972561796895334119,-0.0051086522737016212478145,0.00155495082255253003374051,6.35753982568076025927439,1.95750042754701625291602,1.11658698552614543686445,1130.19271131842174327176,1099.16325872866605095624,1109.03912581936197057075,1127.81917573877740323951,-44.7419911341067262355864,327.326282004612664877641,284.020137640442669635377,-358.20012649029047224758,155.63414399632691242914
2.65249999999999985789145,0.418102275970513137526297,1.3293913350873545198283,-0.131940117325561517835908,-0.017164573325424981042886,0.00278892885253138184120658,0.0188047283829170693014721,-0.0063015982513901997244532,0.00398098802025954271593955,-0.843501570434341263471367,-0.537074474887904496078761,0.104221233199050009043951,0.0420021627075958386976495,9.74694129243156126563008,-0.00115758887096065752123075,-0.00508131484252814270841103,0.00127537504560952053359046,6.35755512133358191562138,1.95750925391103769435119,1.11659001164128168781531,1130.17489283691475066007,1100.01587584996559598949,1109.63483089197097797296,1126.95782019308467170049,4.31966676765085111355802,375.788148219428080665239,204.337893531633056909413,-341.779404143857959752495,155.632696699781490679015
2.65500000000000024868996,0.338970167999563365412996,1.28708966835686489105228,-0.200675782280881342956036,-0.0159901858561497037247712,0.0062268900650789705403243,0.0188168948529932669733178,-0.00625563574533642436509284,0.00401144537679989140327441,-0.843505941803002867729333,-0.537067896467649630309893,0.102847142487655071607655,0.0400357059283220420575766,9.74406473935261630003879,-0.00118397075742748131288451,-0.00504935456954895556247465,0.000987943412566349814241118,6.35756947577600683985111,1.95751831887573235491118,1.11658931011628537177671,1130.21430965225999898394,1101.04219946976331812039,1110.06081528702020477795,1126.11027871805799804861,1.16389836130102919398155,480.660322018833824131434,139.437107757102836558261,-345.831284158679693518934,155.631317286084026818571
2.65750000000000019539925,0.285614303760930998699052,1.19860935557558168085279,-0.313058238470664718100522,-0.0157725414602000561792305,0.010394938727678127224352,0.0188494566689418746596729,-0.00620188514110204744400612,0.00403243198174227466396013,-0.843511861915432481495714,-0.537059048244774239755372,0.100947953672780643685769,0.0381942174376615345421371,9.74169977111316676143815,-0.00122562655941398524622743,-0.00501483159036270401132107,0.000700125166395066354796395,6.35758237370775525221234,1.9575273169142071161275,1.11658547588863732435982,1130.18071232872125619906,1102.41917746005992739811,1110.33201643075653919368,1125.22866377229115641967,-44.703232298935333233203,518.964239381886841329106,58.7610929360847649149946,-288.059904592552584290388,155.629741019499931553582
2.66000000000000014210855,0.306562222528569960910971,1.09132818748110338447077,-0.428175057231215017150561,-0.0163439740989041563945516,0.0134377077561233324726198,0.0185380551219340959645532,-0.00614651978563819905571064,0.00404008263088085923381287,-0.843518342841302004586623,-0.537049440295706781434149,0.0986223407530521650743438,0.0366067446661742998403888,9.73985538837373709952772,-0.00128599104913011187158178,-0.00498037006001345212979903,0.000418628122216268779877402,6.35759342069455968271541,1.95753594630523508612896,1.1165792789687347674743,1129.99079349076532707841,1103.63702066667269718891,1110.35462075170062234974,1124.6699791950952658226,-123.257132771916886326835,488.418413164491937550338,-27.9653242799674046636937,-182.028099800167439070719,155.628493612073242502447
2.66250000000000008881784,0.416673604840063938059558,0.953574269995589807180636,-0.551446186282066208583785,-0.0170116228912720081345444,0.016096399401109181409586,0.0175977580570067446141813,-0.00609486267597561959946662,0.00403307191121161749680635,-0.843524679736403104612918,-0.537040136908706222662602,0.0959887102053493257436401,0.0353565589831167162437886,9.73852253225336639275156,-0.00136758962000132155110987,-0.0049489152096955438264736,0.000149082985945604923685992,6.35760209048461799596907,1.95754408355590681090064,1.1165711359673504698975,1129.56442666486168491247,1104.86126952588233507413,1110.19218980935670515464,1124.31852327329033869319,-244.28840197365909148175,525.037363693001907449798,-101.791312413754340582273,-115.862275082147533566967,155.62731508371348354558
2.66500000000000003552714,0.64694133329288838751836,0.763801327850085920445622,-0.684049023251249721511158,-0.0173785603728627627284631,0.0186900542916355119626992,0.0156612230544237833462784,-0.00605118782754544923957463,0.00401083173030018780291783,-0.843530136263700214271921,-0.537032266344983133521396,0.0931607995281352324612456,0.0345085805545985307984935,9.73767641084483592806009,-0.00147193142178903718132743,-0.00492341966891205514572638,-0.000104177059437841694998494,6.357608411500417666673,1.95755199552810110752432,1.11656135331375772068441,1128.76935148089705762686,1106.26220748513765101961,1109.84566418963186151814,1124.09066781968454051821,-332.238458959643878642964,492.28295228327766608345,-139.949136479438749347537,-65.5604115785095302726404,155.625980581744727260229
2.66749999999999998223643,0.895167841240845696404449,0.595586793540412773317883,-0.763030614444528354489705,-0.0165953596389898892782266,0.0202507852098853004252366,0.0133293574689866776289415,-0.00601734422102914549845831,0.00397417413396238070749655,-0.843533515683094203829739,-0.537027703976841630506556,0.0902288796488470434820073,0.034084448609205501845576,9.73727929227084842978002,-0.00159937593241868077943713,-0.00490651553891318769479168,-0.000338300185535623089503471,6.35761370165927264253014,1.95755948840522986387214,1.11655071968032326701348,1127.90323437006350104639,1107.32268428729867082438,1109.4924441269595263293,1123.99072121539779800514,-374.847930036693298916362,391.525507707737403961801,-137.558277637529698722574,-40.2072246231009060579709,155.624934917213209928377
2.66999999999999992894573,1.15002374096243209500301,0.429478434316576007656607,-0.793369793798485711810997,-0.0136952905322347273653349,0.0212512058561908044607147,0.0102457407437072604144968,-0.00599348493623983683692424,0.00393022751211405570181956,-0.843532998755357255049603,-0.537029277934568116670278,0.0873205598008094385775735,0.0339882250438527655500565,9.73728285001575599721946,-0.00174903164141723753248481,-0.00490026364228885336765673,-0.000552027177573775201802064,6.35761880504195620034125,1.95756666063534390254119,1.11654026164002107002204,1126.89511183071363120689,1108.21983502367629625951,1109.1578728014442276617,1123.8896316965690402867,-414.494939887262887623365,325.187787162947302022076,-117.721168064283816079296,-49.840508795842808353882,155.623958058362944711916
2.67249999999999987565502,1.36699283171714647266981,0.272829291989415578800759,-0.782611067105521640563381,-0.00925620719002023632782095,0.0218520320381564402134611,0.00704376556208511760831525,-0.00597847201001483041088447,0.00388504777112731215782393,-0.843528514173320087543573,-0.537037096152041870666949,0.0845273942264987143691002,0.0341305642479148713119841,9.73763212562030489038989,-0.00191875269726289295404986,-0.00490601813013969833415784,-0.0007455928557488693351335,6.357623859148284317655,1.95757319195095891295466,1.1165311556307906393215,1125.83075967062723066192,1108.94862322311337266001,1108.90383828663811982551,1123.74151867141858929244,-424.870386808305227077653,244.901043114743345086026,-68.7602070248384649175932,-70.517828060696743364133,155.623038076812775898361
2.67500000000000026645353,1.50003993198596141667167,0.133490758386879182495477,-0.740431408513234634583,-0.00412094460461916601429211,0.022124842761216435838012,0.00463823073844093526629795,-0.00597075469385481300693685,0.00384025232039133124911645,-0.843520530085713815537929,-0.537050457623674204477027,0.0818816411662732918097518,0.0344917966629511851817114,9.73826883895849526595612,-0.00210512148645237246943895,-0.0049243862045376613281733,-0.000920500295648394965819517,6.35762955605972379657942,1.95757807485797497015767,1.11652414550691903016855,1124.77075989667196154187,1109.44434023925009569211,1108.81407176632001210237,1123.5370425562655327667,-449.52908469296437488083,159.793407868926919945807,9.58049718642477188268458,-88.899458230474380115993,155.622186372175178803445
2.67750000000000021316282,1.54455410778873547528178,-0.0103490628099996533062477,-0.694602579486321758395206,0.00174134800622497624804363,0.0222356010918198579440208,0.00320237770233312672718551,-0.00597087991441741690323841,0.00379576095087626620011578,-0.843508991363628890525206,-0.537069468031475483194015,0.0794241388764861527826966,0.0351015093510884113037207,9.73913356143458130986801,-0.00230355075221669531107538,-0.00495520324557343835869538,-0.00107918519809603596915082,6.35763615072772658720623,1.95758047274407309679134,1.1165193439794531826692,1123.58311424716225701559,1109.74759026245806126099,1108.95174077257024691789,1123.29702138026618740696,-412.267929350773272290098,61.7263699593435788415263,93.5728141740148089411377,-70.7088629090791584985709,155.621242748883503281832
2.68000000000000015987212,1.49317622171451325208125,-0.109981184032679799034149,-0.690925867919189307109207,0.00595777531270874540630933,0.0220761093438934519195271,0.00307617400862052149321246,-0.00597475241014597778510531,0.00375078513403321331734497,-0.843496060963375815511256,-0.537090793284672463059337,0.0771024358912984764113929,0.0359498116325455349673312,9.74016899839865146759621,-0.00250858882499967184021017,-0.0049974663828714349644855,-0.00122468624399727030876983,6.3576442239710457826618,1.95757938066159331569338,1.1165165975331317049779,1122.70942024991813923407,1109.7529720890468070138,1109.28193583719007619948,1123.18349824172014450596,-317.046986571365266627254,-48.0995018636359645824996,172.101578250934863945076,-8.76599734028805421814923,155.620521296892690088498
2.68250000000000010658141,1.3740981855594103233642,-0.188263264884813430466437,-0.742248792775629384621539,0.00923181471242278707534101,0.0216380034590698197560776,0.0034363078844162281769159,-0.00597667067370150767446901,0.00370469405546538285006752,-0.843485151205012329000965,-0.537109135881760235697868,0.0748290584973573813520886,0.0370031744583177099605642,9.74132137583326773722092,-0.0027143330988892611262131,-0.00504930417322250243289394,-0.00136023022348545803705822,6.3576549765549694726019,1.9575738221876848310643,1.11651583255377406800335,1121.99787931430546450429,1109.50709275313988655398,1109.81224866382490290562,1123.25319139356474806846,-268.596916893608351983858,-162.977801564969752234902,265.755505246312395684072,83.8480678517971398377995,155.619866583954291172631
2.68500000000000005329071,1.18580073139137587290293,-0.258067013730926275716371,-0.851795916363392580095137,0.0126439264281828084302006,0.0210483775639033164617242,0.00317009261473394712838036,-0.00597086797969550650555526,0.00365697431488253791448395,-0.843479169412111096093554,-0.537119962085122915063096,0.0725066178960655505214561,0.0382196605787558443823038,9.74254164797238608741736,-0.00291501252990449119181782,-0.00510801858247254825240447,-0.00148883933355040826151949,6.3576695835713996629579,1.95756359160071524705415,1.11651678613423444019759,1121.36643566545012618008,1108.93808308122197558987,1110.61071336342160975619,1123.60273858097912125231,-190.967074688118799485892,-250.492800469424651055306,304.780165303561375367281,170.180686586221781908534,155.619157251688420728897
2.6875,1.01248764390156265058351,-0.296659251477908170180342,-0.945124916663071412692432,0.0153025024900858546555993,0.0206013439902940943826426,0.00126308621654385431522238,-0.00595331124986801362569677,0.00360784257229157523383378,-0.843480734756327787948749,-0.537119119511762610486016,0.0700648464540880866469053,0.039556280522300001079028,9.74378612256325737916995,-0.00310574503825736562487303,-0.00517022786910993105424783,-0.00161297047751585240910055,6.3576882368154254976389,1.9575500136237875548062,1.11651866571533897598556,1121.04304394086489082838,1108.25462875079279001511,1111.3361494903426773817,1124.10409482649583878811,-85.2972032317229604814202,-310.56097095693735354871,279.71222622869078122676,230.556305949954008838176,155.618629066467235588789
2.68999999999999994670929,0.845930928040336649331721,-0.313358727192892594359819,-0.979414938967822168436328,0.0173788387795679837022345,0.0201700949944172702732459,-0.00269080504895343082527592,-0.00592846367735299761142498,0.00356016276824633716782675,-0.843486822271206859724657,-0.537111130843289763525661,0.0675936998995440158077841,0.0410073855339175494250092,9.74501596701697891944605,-0.00328315084011209261036224,-0.00523219094866178829200676,-0.00173419304457949827180663,6.35770874224631832305477,1.95753610704311298285063,1.11652006548967186461141,1120.93994964929152047262,1107.38527822643732179131,1112.00927449456503381953,1124.75552011072886671172,3.46650362107546339274222,-417.120035883371883755899,253.325327397948001362238,296.223761982634584910556,155.618165240219354927831
2.69249999999999989341859,0.680114080214691107961755,-0.300826215293179100029874,-0.8964343181726452947089,0.0189998658571245010451278,0.019532430305384554380943,-0.00819301081733197870959895,-0.00589722289008933874682183,0.00351667504176326421033716,-0.843492941415777797153908,-0.537102775175677171759503,0.0651184558216415798614918,0.0425231763805459586635926,9.74619919849386917576339,-0.00344576088345873192061997,-0.00529002060481285809462326,-0.00185321934813083288862146,6.35773001145861638150336,1.95752374367509940356058,1.11651920252799019550594,1121.06037645897026777675,1106.1690285713759749342,1112.60277612733239038789,1125.58521363640898016456,78.9952811187975783013826,-469.138019421880926529411,159.362073404466855208739,290.823220989029152860894,155.617681491978402164023
2.69499999999999984012788,0.585311185325669058876485,-0.254309947752915821439501,-0.711221702787482978891376,0.0197696159730880172133993,0.0187859962404475187847108,-0.0121837028604024344424772,-0.0058607540023509875973251,0.00347649103603626984451691,-0.843497304078220433432023,-0.537096509235299501838767,0.0626287640505492071429927,0.0441073600772259599711589,9.74731036047062460170309,-0.00359406567825066441956849,-0.00533985963413393608517632,-0.00197001032799106259862931,6.3577516003711993519687,1.95751407404185040483924,1.11651498475583665914712,1121.33492605488549997972,1105.03958812932796718087,1112.80608486158735104254,1126.20963621567398149637,133.161133637613716018677,-470.040006005560940138821,-2.03198834346935575112525,210.824059883665853476487,155.617337525217493521268
2.69750000000000023092639,0.543285714662795404805706,-0.158606315777438389158505,-0.427319133727025790570053,0.0202638968921259772504317,0.0177419301370287246788493,-0.0147305874569505917959233,-0.0058265014767814836404991,0.00343751970469710578168221,-0.843498843820113419766926,-0.537093490745255475182773,0.060205734476208042083023,0.0458408535665781463608326,9.74832949690336647563527,-0.00373019471415636776762126,-0.00537810043443235578225492,-0.00208408748843014017537723,6.35777274085176635765038,1.95750807070211729765674,1.11650759286459377861433,1121.72618212715838126314,1103.81882854134801164037,1112.59261618561504292302,1126.63933393582738062833,162.99782264349042293361,-498.840935746432478481438,-165.659415391690089336407,125.363193534886434576947,155.617052627130448172466
2.70000000000000017763568,0.540950134802518967092055,-0.0169358482909142127326163,-0.0989824142877303164711478,0.0208073758211529090400571,0.016517671528852952145261,-0.0156823001431048193732298,-0.00579854764976713964869104,0.00339875173283896723011588,-0.843499309818438236519,-0.537090381970708463654773,0.0578899903230783441365759,0.0477443406089203201125848,9.74924314786381529529535,-0.00385744795877050912491502,-0.00540151059031154616441039,-0.00219509820802769916106567,6.35779377584134941514549,1.95750559743007435109519,1.11649813662035657380045,1122.14991516810300709039,1102.54538345059563653194,1111.9777877846288447472,1126.83645218334845594654,161.097553568155291259245,-513.297711965435155434534,-345.942504665488854698197,17.6823844271442922604365,155.616814604017434930938
2.70250000000000012434498,0.569570808093315839037984,0.174580031405474123129551,0.226458412389351160243223,0.0217114886622605807176001,0.0154383428219952781312863,-0.014575322958267439288349,-0.0057744496170205770677053,0.00336277921322488976968446,-0.843500145182791261078137,-0.537084290437577660526358,0.0556581743484331342708415,0.0497052066800683922664916,9.75004462590655407439044,-0.00397968433589613972134469,-0.005407449444070381965044,-0.0023032337668960232643367,6.35781602775113707792798,1.957505636057285780538,1.11648765928265025770827,1122.53166989499914052431,1101.25233998152089043288,1110.86290366228763559775,1126.72774585796310020669,141.026276450978286902682,-553.681395275919385312591,-595.208172973947512218729,-104.25015100759304687017,155.616630113525218348514
2.70500000000000007105427,0.607016929720052167418487,0.43232866791818747032039,0.548622206733444084392204,0.0234547864332401434506181,0.0152904050753240004778544,-0.0114067857882317862799892,-0.00575246431552464340675179,0.00333260172024817244093575,-0.843502161847853426657196,-0.537073274941960332462543,0.0535099362468893155475591,0.0516075856524843973316408,9.75073347212073748835337,-0.00410090647091692055842271,-0.00539416465468459463417084,-0.00240932737544614396230092,6.35784001040684287886506,1.95750697285766195321344,1.11647745536084253004105,1122.8550465503578834614,1099.77697647421609872254,1109.00174691975917085074,1126.31520142831050179666,88.3810711819042609249664,-506.614005597350001153245,-750.795018480737439858785,-174.335210054918292144066,155.616466186992909115361
2.70750000000000001776357,0.614385487351040038284111,0.633633571597651212847779,0.731341757918183899001008,0.0254233834164638329566888,0.0168587788966146380487121,-0.00808842907952267431426208,-0.00573248764685658270673363,0.00330866864216153040018087,-0.843505321330683011105123,-0.537056782962031409311976,0.051453410653540879171608,0.053393035464659774347318,9.75131553365208603167957,-0.00422501966399978397259662,-0.00536111741896393330375492,-0.00251484722461814240446198,6.35786470552128957223204,1.95750850717394420108519,1.11646835085247952967791,1122.97357525090865237871,1098.71926995353419442836,1107.10892856988402854768,1125.85606980768852736219,13.3679723296157249023963,-356.508966209510958833562,-795.485366479232311576197,-171.325339699345931876451,155.616373834245649732111
2.70999999999999996447286,0.570287308523251823544342,0.772666809150865940836184,0.820355497359505081433895,0.0275901709978998987971011,0.0199860890507162700102661,-0.005039258934554582611276,-0.00571684143609133173236092,0.00328596354930716771231003,-0.843505860717481903421344,-0.537040294278556151752468,0.0494878751326098542673293,0.0551190057544922937249332,9.75180283466113628776384,-0.00435567116868294107456805,-0.00530924852004784671860582,-0.00262173936399253803414267,6.35788782767669236051233,1.95750974532116339688059,1.11646057705260681736092,1122.92188641200596066483,1097.99443164316858201346,1105.02432008736309398955,1125.45857472981379032717,-59.2561397121711621593931,-209.209755651913752672044,-918.398281339360892161494,-122.379634752772176398139,155.616322656532588553091
2.71249999999999991118216,0.44023071181743800295294,0.829866646809594765699103,0.844824502266670607220078,0.0299189604757541458002201,0.0241679365711789974346946,-0.00232848356251932203653254,-0.00570770210568311616577963,0.00325906129120939313387195,-0.843501258003922615991144,-0.537027717564381612547209,0.0476144205521914082313018,0.0568511607630118598333269,9.75221330560835752976345,-0.00449627176911106870432766,-0.00524082777811603166273624,-0.00273226105263368011788483,6.35790790644732339842449,1.95751009378734086574525,1.11645451559204467173458,1122.67729455234780289175,1097.67322117527464797604,1102.51693716318732185755,1125.24417163392467955418,-116.819623344238365802994,-10.9894980521860432531867,-891.432394364183778634469,-16.6436849174264267503531,155.616303231942964657719
2.71499999999999985789145,0.265124128353246335532134,0.7797959972554324714622,0.825700467867062748439366,0.031368095581160819473876,0.0271154209798160801547784,-0.000888545970379388846786817,-0.00570470225156398044741302,0.00322517005655847737929931,-0.843491497318146543626938,-0.537019627068706872918824,0.0458277394794525186338952,0.058590440668440810223494,9.75257037827870831847576,-0.00464989351070895645667846,-0.00515909298792730040134069,-0.00284875157111661109557432,6.3579246059114788991451,1.95750996868347182378045,1.1164500960234495785528,1122.33778829528478127031,1097.93948415290765296959,1100.56715811554227002489,1125.37535630522665996978,-160.983801451800957238447,220.389818521683679364287,-725.652923056346594421484,122.454594953379370281255,155.616318192001727993556
2.71750000000000024868996,0.0287485638352745070944749,0.642299774431271286445622,0.797625942743873661555654,0.0320266608020716991855892,0.0291020007689885874813118,1.39931871873358760084011e-05,-0.00570505193889663149431346,0.00318531412823552404975369,-0.843477727123809306597479,-0.537015692584547177368393,0.0441292242296970130266409,0.0602566334674399239901277,9.75290208896766586121885,-0.00481906232303328310728752,-0.00506781690421915370636796,-0.00297334034164794744348193,6.35793823580813644014142,1.95751009183581925476858,1.11644692072710260966062,1121.87237554508874382009,1098.77517026788314069563,1098.88867254790534389031,1125.85644460869161775918,-205.37833833935542315885,418.144837647077054043621,-616.908174409904177082353,241.680791424580149850954,155.616361263562168915087
2.72000000000000019539925,-0.246568916150123884634127,0.451561042002373236314838,0.776422052610705626385368,0.0318532435980273462283741,0.0303180352855271194323361,0.00081335352137739194700039,-0.00570363168869602189109402,0.00314069399016718821607275,-0.84346127947371229982565,-0.537016661513960547047475,0.0424885864464437101872818,0.0617505024569012933577383,9.75323995533930876433715,-0.00500546868340717363010661,-0.00497092156294292805696067,-0.00310766772775991715477284,6.35794956125017218795392,1.95751083332229058875384,1.11644448838003285118248,1121.31089660358793480555,1100.0302083411431794957,1097.48261724349254109256,1126.58376026234964228934,-244.315533119566424602453,576.114612760614818398608,-497.22863070806999985507,325.206999856034258300497,155.616424770633642538087
2.72250000000000014210855,-0.551646889434136200591752,0.221361248602671839558198,0.764789895800678243276138,0.0307671552401240500085322,0.0307627178540927567751417,0.00190159329615158375834105,-0.00569441224462222637947573,0.00309340902202689905717281,-0.843446030586041062271363,-0.537021028323763749412478,0.0408728699201729786527615,0.0629576966796696751993423,9.7536173014026594785264,-0.00520972802318683293754109,-0.00487211558992469307566298,-0.00325266949809039848662273,6.35795927271261085422793,1.95751137208278258583505,1.11644228067814688110104,1120.65079787949093770294,1101.65574333168615339673,1096.40252939436504675541,1127.48247960797175437619,-304.023343261912600610231,754.274477761571347400604,-413.446007906313468538428,389.671691883094467812043,155.616509773003826921922
2.72500000000000008881784,-0.930779683005945823737193,-0.0733835080094874664391469,0.746139901109830194769756,0.0285374480267475034989122,0.0305711123892137143220893,0.00392549887051899838719127,-0.00567558464667532701353192,0.00304434650103061572520846,-0.843437600174193224944474,-0.537026600674360365950122,0.0393064086170173618284274,0.0638375169360300559473487,9.75406704705179272707483,-0.00543117332575483204026856,-0.00477470335699457099076781,-0.00340836653370809108953843,6.3579686284433982734754,1.95751015383899829025438,1.11644028677404305582854,1119.79077988727840420324,1103.80158072995095608348,1095.41538720396101780352,1128.5321187217650731327,-315.645580276447958567587,783.42456914166939441202,-326.492670766545074911846,343.205584749383035614301,155.616632982985805710996
2.72750000000000003552714,-1.24343871046337572927598,-0.319479761580814036747711,0.709079093155913997570394,0.025946563645339926207356,0.0298512764171551640834945,0.0062534148454769997171887,-0.00564502199996264227011,0.00299379005797037901076552,-0.84343993980867282278524,-0.537032803122479696078528,0.0378002242848790026563677,0.0643650869709020967412982,9.75462039303112327104373,-0.00566780659047981007214734,-0.00468145087838402369773139,-0.00357383645358902088395858,6.3579795856837630907421,1.95750564183159148079483,1.11643808709845138160688,1119.07256997810873144772,1105.57286617739441680897,1094.77006604053235605534,1129.19850753171863289026,-270.497716353753560269979,668.155364518057126588246,-242.039989803020660019683,184.320271197297472554055,155.616750976345514345667
2.72999999999999998223643,-1.53689840532001387174432,-0.553535689569304878432376,0.632665285402465249475767,0.0227470854352267125297882,0.0285331440738902757103812,0.00881178999832858689256199,-0.00560913866059135728103779,0.00294652373175721595671694,-0.843449675763980555309729,-0.537039317527768234050711,0.0365496674073673005755936,0.06453960288533672207123,9.75530420956640753615829,-0.00591664458691501700393633,-0.00459457174016266248206541,-0.0037470400220781627416422,6.35799227020568125112732,1.95749812445908588642851,1.11643443531798003398592,1118.43829130550966510782,1107.14235755254117066215,1094.20518725494594036718,1129.45372007775154088449,-238.762628209684038438354,615.178501193772149235883,-247.344750039479379211116,-8.28022377872929915554323,155.616882393646278615051
2.73249999999999992894573,-1.84732169793868261642444,-0.811683615108261591331029,0.491959563098653740453869,0.0182699545854192110794223,0.0262876310997082023035443,0.0112507009267436737520729,-0.00557491110524391438041381,0.00290770888493130071419945,-0.843463585818755134937419,-0.537044512540995166993696,0.0357575050302569655280571,0.0643678838006681436345602,9.75614037838718317630082,-0.00617414619217444577553566,-0.00451572041930385810470927,-0.00392498357528688664869199,6.35800672713495185206511,1.95748834112068448298771,1.11642811424685328702822,1117.87875683706033669296,1108.64875868336321218521,1093.53334229033498559147,1129.15710641282498727378,-158.8125798010457572218,479.243783766161186576937,-247.863439364169437340024,-207.475249765734474749479,155.617052937728203687584
2.73499999999999987565502,-2.05370465498902765588696,-1.00497206803045635581384,0.342937387434812224196179,0.0138668767930889974548947,0.0240412046930703095226622,0.0123910628077786941908522,-0.00554322568607975435517332,0.00288142529152268138739612,-0.843480439637387835460913,-0.537045737344406193258806,0.0355074158544810489224197,0.0638176333353682456728251,9.75714516485377814092317,-0.00643655464023581199567436,-0.00444607102225369563847091,-0.00410406329622152541564128,6.35802295427325869781043,1.95747729228419808933381,1.11641820940734270983796,1117.64422840650445323263,1109.53857647137192543596,1092.96587005812511961267,1128.41634382892289067968,-36.4539457850672050653884,279.742830238209762683255,-214.308129367631494233137,-370.787290634982582560042,155.617203782138744827535
2.73750000000000026645353,-2.18030858479581413078563,-1.174990465858301913471,0.17854822902373995718861,0.00876461203985491078827241,0.0216396309343587396611941,0.0126581271977683693097383,-0.00551358051496304325811426,0.00286977340417092887173145,-0.843497019290799676660697,-0.537045057877730158679697,0.035830599661750561768514,0.0628800149414151382520899,9.75832790684871653752452,-0.00670011934177356001385295,-0.00438657750848113568015174,-0.00428040864362331033299292,6.35803948787854444901768,1.95746569326305297487067,1.11640424826826722970452,1117.69648710813498837524,1110.0474728345543553587,1092.46180164349675578706,1127.30316995964994930546,91.1996589545590126135721,147.482347502126742710971,-168.182396326380995787986,-520.322312787367422970419,155.617361257483452163797
2.74000000000000021316282,-2.20839749342049795899356,-1.35013846036510298809219,-0.0182497792089248433988757,0.00204903939611024519390492,0.0184325653340309779382178,0.0122639743220884726154774,-0.00548655212708672613414196,0.00287214129306689923762375,-0.843512518534793365176938,-0.537041955491117772858445,0.0367383992508012319211375,0.061606657486977925430871,9.75969049432788438025455,-0.00696129040214000377462256,-0.00433798765290010698847389,-0.00445035298925265578734445,6.35805539552630083477425,1.95745364740932803471196,1.11638692736575473318794,1118.1002267012772790622,1110.27598820888260888751,1092.12495807649315793242,1125.81473226498587791866,201.152956118907894733638,33.5208537932437948825282,-41.2685362445708676659706,-526.637695355077426029311,155.61755499890406895247
2.74250000000000015987212,-2.10812971221618461470371,-1.46660795239258701094798,-0.174636225679224627027608,-0.00395994116485949999156846,0.0152239619178653837888726,0.0116419499511281419185105,-0.0054651574992110006634416,0.00288718968636141742889478,-0.843527243065459564341779,-0.537035013276096373502355,0.038265209569698026281781,0.0600898452829282947451617,9.76122749312550119782372,-0.007216700211487217866968,-0.00430084258085912211899693,-0.00461089494668236524188565,6.3580707347962803765995,1.95744096292057134789388,1.11636797536215071069421,1118.70225188872950639052,1110.21507710352057074488,1092.25545896227390585409,1124.6699814828746184503,287.73770846442562287848,-58.4960142973626417983724,179.238398788587971921515,-393.817895508672563664732,155.617718258952322685218
2.74500000000000010658141,-1.86507820056102024963707,-1.54194908660140983513998,-0.322272275400797614253179,-0.0102269894154153641319116,0.0113410243307430561032767,0.0111792902806087980638328,-0.00545028620228211763826254,0.00290789215445545669996852,-0.843539958771610698384791,-0.537025791139403518847928,0.040341254120644154390618,0.058494795011977462895203,9.76292735226652119706614,-0.0074630249567048927844537,-0.00427547019421658635457417,-0.00476008387393832103906544,6.35808586769391137494267,1.9574264589499292821273,1.11634942318790897353153,1119.53891524359937648114,1109.98350813739580189576,1093.02115007043607874948,1123.84564278744255716447,366.425942623080629800825,-108.322474912486114817511,429.524068318241972974647,-256.133933800179875106551,155.617880745374236539647
2.74750000000000005329071,-1.5072902393996414627253,-1.57592651343917533601768,-0.464088119155090239598138,-0.0161995751619794965681098,0.00722016261245098187743219,0.011005630597280768867563,-0.00544150566150061135856086,0.00292674357567701852109177,-0.843551063946811119365066,-0.537013539991851640564846,0.0428611371716558914313211,0.0569811917111150978421108,9.76477337537013667656538,-0.00769712623684328835216295,-0.00426175042678541247942459,-0.00489704927722259784894643,6.35810177851966606965561,1.95740939313771722396496,1.11633259226256109641895,1120.53438160184487060178,1109.67346472895815168158,1094.40307930386506996001,1123.3893118138737463596,428.280791895767890764546,-131.363356865224972125361,697.530386682152652610966,-85.7437650198808256618577,155.618040560796146110079
2.75,-1.04148089378950459149564,-1.55626164063718142038795,-0.593882687056627389665664,-0.0204575567445122834253635,0.00338654688941356606102229,0.0105439871182557379919453,-0.0054382417379693756206982,0.00294294541127094371260609,-0.843560432103743318421607,-0.536998392480175112950747,0.0457793561158380199471729,0.0555956638895395288679779,9.76674461580866370979948,-0.0079162816685706249159038,-0.00425903162165169098946071,-0.00502177236472667494482369,6.35811932623605979841841,1.9573901075328294929534,1.11631733288540524462462,1121.68031920307817017601,1109.32669135306969110388,1096.50880200384676754766,1123.41692396234316220216,529.882513632230597977468,-152.931753915166694923755,1055.24689394048868962273,117.40544211429801180202,155.618194661677563317426
2.75249999999999994670929,-0.42671316683282856097037,-1.47031804692277123791655,-0.713997741688409459648312,-0.02245289128449330304238,-0.00077919088710626488274158,0.00867351875922845773347891,-0.00544158056284343646935575,0.00295688895939952419919527,-0.843566863004375222523379,-0.53698215576232810608559,0.0490833176913668192686835,0.0543801971478100817924961,9.76881684932314442448842,-0.00811846136532230581994707,-0.00426621404112043946244004,-0.00513475576760166751988379,6.3581383789057905886466,1.95736982174199836137518,1.11630352685671452306337,1123.18379417000596731668,1108.90880595938233454945,1099.67931377356740085816,1123.97633902444522391306,567.223762710739947578986,-152.621094755298656764353,1222.94533153229053823452,280.254931386986356756097,155.618369904047540330794
2.75499999999999989341859,0.0736744957860417798434227,-1.34608743132597186153987,-0.762798012684937298821808,-0.0219000160257854965817348,-0.00415779766802821994925443,0.00613845466319670133442665,-0.00545128302472576865139731,0.00296865827476467097206791,-0.843568909641818853728523,-0.53696705729885774172061,0.052729887979487549687363,0.0533643617752934881770521,9.77096397446442921363996,-0.00830253975143150670101821,-0.0042818355106912613095016,-0.00523678369975957933718513,6.35815901052711041074872,1.95734948963660060350378,1.11629139336488347744591,1124.51643801663180965988,1108.56358587929321402044,1102.62352866150808949897,1124.81819861927806414315,544.69411369301519698638,-140.686481972810099705384,1174.85472112878369443933,396.050832820227981301286,155.618505892293001124926
2.75749999999999984012788,0.501694369179510157863433,-1.16525345100290667055276,-0.739018848127673155801176,-0.0198815257643740958548584,-0.00768643893075809762904793,0.00348278029899184733003681,-0.00546639269300708361548624,0.00298249821776819419583138,-0.843565132760723646043743,-0.536955406683038871662461,0.0567037950177097932469295,0.0524970174887497906257572,9.77315872869030854985795,-0.00846841705995339012746914,-0.00430419870054867502451312,-0.00532862981100525219535502,6.35818029862038258670509,1.95733046278790179250962,1.11627962443361594679914,1125.90726473847098532133,1108.20537354951829911442,1105.55358737921119427483,1125.95659318854632147122,621.513694072431349013641,-165.715563548235593316349,1216.00869949539605840982,547.387342874534965631028,155.618629438747689164302
2.76000000000000023092639,0.886338325478670752133326,-0.886437027922007181324204,-0.62116174480788155509714,-0.0165163501075401043804991,-0.0116908940329148551551253,0.000822162949067906058051025,-0.00548776629782803723051066,0.00300100691386914579517065,-0.843556674433666331403003,-0.536945738097117208909026,0.060999992803065394841866,0.0517677299426599485387968,9.77537335906452753420126,-0.008616954898406853705084,-0.00433153665142496126228,-0.0054108400058465446966216,6.35820122941319265663651,1.95731369908812702362866,1.11626685460551899886639,1127.62400648699417615717,1107.73500806155198006309,1108.7035721589854802005,1127.55513533365092371241,634.539946281577499576088,-180.646264828361921672695,1057.39526926065218503936,609.726623897817944452981,155.618761417965515647666
2.76250000000000017763568,1.08334751879414681319247,-0.615412305575829376991237,-0.45466844566092623480813,-0.0133682231863307254132733,-0.0140559331648832438327323,-0.000841638591088550631381937,-0.00551333510682037748057427,0.00302317039037312005125835,-0.843544046455831919573143,-0.536938195373421356393351,0.0655260690051804733924357,0.0511888245609050454576483,9.77758103010331325322113,-0.00874958454370752120032861,-0.00436223550469676691482279,-0.00548383313449575526821178,6.35822145011986794571612,1.95729880612291129438063,1.11625263438895427903219,1129.0799644698790871189,1107.30214222537642854149,1110.8405637255148121767,1129.00522630803561696666,580.774221291779781495279,-178.632514063796577374887,733.455097364337461840478,587.580916193350049070432,155.618856748509159615423
2.76500000000000012434498,1.1493885672404928754986,-0.331574005036347541075514,-0.232460941012872235322817,-0.00987173531968431848537815,-0.0149533095045314527726799,-0.00193408786900656952736921,-0.00554412717956301662192153,0.00304482313689052397701063,-0.843527768460487159529748,-0.53693380343893681860834,0.0702074881531995487193853,0.050850720000938459675055,9.7797557593544759413362,-0.00886800504818166697440507,-0.00439489747767343036377596,-0.00554792448694512146251112,6.35824007125191315026314,1.95728527545469388471133,1.11623752972237477720796,1130.52787759345301310532,1106.84184549123301621876,1112.37084764580708906578,1130.49303991461761143,618.237481134169229335384,-201.87472884645532644754,538.069516629968916276994,643.363624320832172998053,155.61893591824690474823
2.76750000000000007105427,1.09140040049456721327203,-0.0114318482844368088380271,0.0741394625301520504567776,-0.00541740038409472754454832,-0.0147946683155604913340042,-0.0024684419357336360133226,-0.00557667204961752316361157,0.00305901447804935149726857,-0.843511828209970615510827,-0.536929506167721393161685,0.0748670086228731823663196,0.0508357702552659426742387,9.7818740288698009521795,-0.00897381690030936776669712,-0.0044281173981612761622606,-0.00560361870496303877964284,6.35825679306569391258108,1.95727243829240649120038,1.11622196294939790561784,1132.17115187554986732721,1106.29276858114417336765,1113.53091130866459934623,1132.22204442963970905112,567.136477935458287902293,-196.487242389416309151784,328.899942431060196668113,608.584733262036252199323,155.619011570635620955727
2.77000000000000001776357,0.952083948682244773920047,0.21773576207195724507848,0.341261808726201598673811,-0.00228828246831030805708007,-0.0137661957226325650655019,-0.00208569184036322624944959,-0.00560692259285209670255368,0.00306279696795307013537646,-0.843501714359634613416006,-0.536921661247014236906239,0.07936111747421535633773,0.0511472770700390697018456,9.78391441215809365417044,-0.00906827142254356712014474,-0.00446034076810370230803393,-0.00565160486651192055240767,6.35827288174103344431387,1.95725971273423748897358,1.11620643249040307765085,1133.36355998313024429081,1105.85940927928595556295,1114.01534735796235509042,1133.5359635809277278895,411.425647264659005486465,-166.683994564986193154255,117.502976446078491790104,479.137134580570318576065,155.619058289557870011777
2.77249999999999996447286,0.760276789518705142789656,0.394618102415668692284356,0.591820589791546280977741,-0.00050628707156173929481574,-0.0120018331019529824604808,-0.000862039385492980084722825,-0.00563026321620722480093546,0.00305921757187262036495334,-0.843500618929127421452563,-0.536912436932623915453178,0.0836013447970718748258889,0.0516770402866724570811741,9.78585776327235379312697,-0.00915205251350745263572151,-0.00448983366219607524932877,-0.00569276479184378531722688,6.35829001550377714835349,1.95724602578963735588502,1.1161912854329230082584,1134.22828011187311858521,1105.45934860831926016544,1114.11842619089497929963,1134.61773010254250948492,271.860781224728611960018,-156.066443741750532581136,-7.68556768866817918706147,380.693114491540598010033,155.619088168588859844021
2.77499999999999991118216,0.559495085276711767718893,0.52957190884731553115472,0.807169257261721839746826,0.000260501957692817036078142,-0.0101944592573947213215435,0.000997923937890024493821417,-0.00564112953045696995102443,0.00305207819537379717103609,-0.843511701140494785100543,-0.536903226548866463474496,0.087493475283721824919958,0.0522879243866076759417183,9.78768793194748987218645,-0.00922533810993076026918391,-0.00451460290491612070695737,-0.00572813877321988722951529,6.35830970182476029606278,1.95723087851343691134787,1.11617698459187297821416,1134.72286388925385836046,1105.07907706057721952675,1113.97691951951901501161,1135.43942915338539023651,95.8853285060761209024349,-151.216546598337600926243,-107.682469088015324132357,255.45159157118723669555,155.619104416526880640959
2.77749999999999985789145,0.38152903963299850120805,0.628635911115478784871868,0.956405665097592949663863,0.000199880189516827623009976,-0.00872014758994153760252033,0.00362881983435522871214718,-0.00563914304120107390955186,0.00304705962334756320225582,-0.843530798839510542741493,-0.536894783016866883329499,0.0910515223773577381249922,0.0528605851864232256787091,9.78939084688454741467467,-0.00928804487188145122544825,-0.00453264376871507796568084,-0.00575869652605505346482095,6.35833105476208082507128,1.95721558487836322370867,1.11616264243851670556751,1134.70770675440348895791,1104.70326587532758821908,1113.58001384545491418976,1135.89498806039841838356,-119.523906726945938316931,-168.86932405876675034051,-234.839424371223287835164,112.135919249514401485612,155.619104940258011993137
2.78000000000000024868996,0.217779520093516615331097,0.731922509037584267943544,1.03593709739467598751617,-0.000335941889414512499453802,-0.00713101237621955978684962,0.00750154434884188654752979,-0.00562275914648306413684553,0.00304559571935659502417426,-0.843553255228712606239583,-0.536887159609874542454122,0.0942279633099432217813174,0.053328437306087245195485,9.79095613820776833335913,-0.009339964322723498177381,-0.00454211367909815571380916,-0.00578541863740702176632791,6.35835373117214963656352,1.95720063907754981968878,1.11614720084042451375694,1134.12524435561908831005,1104.23473044028332878952,1112.80272239766281927587,1136.00010874963300011586,-288.526201135144731324544,-175.408620165296241566466,-340.201555806765782108414,-31.6018451379456166705495,155.619088705416089624123
2.78250000000000019539925,0.12352598753083993132762,0.822394076718268363102027,1.01188341884204846543582,-0.000822737862406289753060273,-0.00599635845393436863609571,0.0110142904768046768354539,-0.00559316025138207814637603,0.00304616306534370977904258,-0.843577697468842369055153,-0.536877447658641315797468,0.0969916449242781975037531,0.0536979523525177859788471,9.79237643162541360197793,-0.00938093038751341631864555,-0.00454148191224581186664633,-0.0058092746294050546726484,6.35837767454092972485569,1.95718558628865024751065,1.11613088961185491498895,1133.26507574872766781482,1103.82622277450104775198,1111.87900606642097045551,1135.73697883470867964206,-386.831456238914199730061,-163.373718650249287520637,-431.293433091204974516586,-168.875631925042370085066,155.619062366773590611047
2.78500000000000014210855,0.0566938757316355762538862,0.929637217046696884281687,0.901184092214824539190943,-0.000926292174689279752472504,-0.00502588708482489508744262,0.0142900796213592355676791,-0.00555845973099390079641413,0.00304640338921754235540496,-0.843603233418161235768196,-0.536863843571297683077148,0.0994198523584010757092599,0.0540593212949316490045781,9.79364626077618893873478,-0.00941089057112469429267065,-0.00452980543095102012457476,-0.00583124637992521975549121,6.35840229728347061666227,1.95716985597481030190181,1.11611465246691499153542,1132.19108707442455852288,1103.41786184703209983127,1110.64625523220684044645,1135.15573059000780631322,-478.181388149197289294534,-171.501909721795556151847,-610.591056647457889994257,-313.634533764986713322287,155.619024551438883463561
2.78750000000000008881784,-0.0235033117063424418224926,1.07245108661353016898943,0.698046388974093434676149,-0.00044588386121776870307451,-0.00331601847366561671565099,0.0171799677366412141543695,-0.0055241583375822888787865,0.00304260974219537584303796,-0.843630180316472189083754,-0.536844128898545602801562,0.101535740258115181333665,0.0544958202222237536593852,9.79476370578547772538514,-0.00942992841150018870632898,-0.00450674147347595102641726,-0.00585256819870052982096587,6.35842657357382101679377,1.95715259614403125354443,1.11609955826284545921112,1130.87416880798173224321,1102.96871322589208830323,1108.82605078318374580704,1134.16880616588377961307,-461.323320866823280539393,-152.313167487549037559802,-713.559800694217074124026,-395.830876452109123420087,155.618968440047609647081
2.79000000000000003552714,-0.113023611562198908475629,1.1845688700599819043191,0.502461253568367127719796,0.000233776632788543534775469,-0.00100774774335761637365783,0.0184279809855378041982821,-0.00549061041982688759904851,0.00303523483670237919154755,-0.843657339268161776679733,-0.536819546558317428619489,0.103324800163380761675036,0.0549679667921137357633476,9.79573020747179690204121,-0.00943837487290201740397499,-0.00447252711694617628018777,-0.00587467002751711729613415,6.35845011587889707982413,1.95713411832209227547708,1.11608599646458417353756,1129.88447047009049128974,1102.65629600959437084384,1107.07845622873583124601,1133.17657620774730276025,-353.980643181565312715975,-109.30265970050874102526,-723.938158036814456863794,-412.478124506160099826957,155.618914853933091535509
2.79249999999999998223643,-0.243013352659748271822338,1.256112466042855313475,0.320326590129968502562718,0.000895397908504978745636294,0.00220261317164016385411474,0.0185209489919142822333953,-0.00545783628527571427341281,0.00302582189573467105064841,-0.843682718805888076651911,-0.536793280420003959818587,0.104782746749297842048243,0.0554161903671405581262022,9.796549495529832896068,-0.00943699254415681677843342,-0.00442788059396584388061058,-0.00589887171414213602738119,6.35847378957217745920616,1.95711515642483901977755,1.11607462150917879917245,1129.1042655920739434805,1102.422199927389556251,1105.20635999299975082977,1132.10641554335302316758,-286.465205647670416055917,-89.1036409782392126999184,-815.553307784802314017725,-464.737118605272257809702,155.618856790004429058172
2.79499999999999992894573,-0.444952685093268907046138,1.25549215664769331368689,0.153121370121584748913435,0.00127182165717708382107753,0.0069652255129329983945885,0.0176656845939965126413007,-0.00542577301858593492867033,0.00301533844128885463592438,-0.843704830830500518423776,-0.536768134829565424226416,0.105902854430654877471163,0.05579216228235663044277,9.79722710058164558688532,-0.00942708553467667964564924,-0.0043738887914242007351473,-0.00592609075608007459384785,6.35849760878415093401372,1.95709625561322120290697,1.11606513397603124282398,1128.45214444185216962069,1102.21077780470318430162,1103.00068968981190664636,1130.85289061472099092498,-192.652571838884341559606,-73.5847472637958333052666,-771.637590117841796200082,-437.832817038552320809686,155.618784520567828622006
