t,ang acc x,ang acc y,ang acc z,ang vel x,ang vel y,ang vel z,quat x,quat y,quat z,quat w,acc x,acc y,acc z,vel x,vel y,vel z,pos x,pos y,pos z,mot 1,mot 2,mot 3,mot 4,dmot 1,dmot 2,dmot 3,dmot 4,vbat
43.1850000000000022737368,-0.152509647385508512185126,-1.46694321306426078699303,0.0805151469016996412797482,0.0242523782331145743018652,-0.00787096169986826847686512,-0.00433627547087283345822462,-0.00224458543741626543113754,0.00323212662781276411153031,-0.410427710473959928005883,0.911821914737935834693872,0.00670625748101628949005004,-0.0598442366266576999955795,9.7315860109042215952968,0.00988917800697602412951515,0.00100632110374379341206919,-0.0059129065960790132966407,5.9629723286062388254436,1.69501405457007825461346,4.03600415278457624879138,1100.69502027494013418618,1157.63926255373917229008,1136.29063911539083164826,1097.82767697538156426162,247.945245589708548550334,-813.171703260643539579178,202.729708073626142095236,-433.503685096417143540748,155.008795583841390453017
43.1875,-0.109193736612880912262291,-1.30113762275858713124421,0.0925022980846043757496844,0.0245231691890695491231611,-0.010965734260246589454324,-0.0040695734188236250272741,-0.00227368844938958874699053,0.00322240476501367469758241,-0.410446493264357614716431,0.911797998508125817629377,0.0106068459011793014834524,-0.0573042902514150007120541,9.73707730340959010106872,0.0098180780409565984040432,0.00101514284814175508898926,-0.00612448463003578778135472,5.96299370260673278210106,1.6949991046470758160325,4.03598769831749581982194,1101.22122739093720156234,1155.75182030226164897613,1137.16928993609894860128,1096.74847219237267381686,172.480252933357832034744,-695.570462070732560277975,523.612493348149314442708,-422.998099413483032549266,155.00626407793299676996
43.1899999999999977262632,-0.0559560388585072926437292,-1.07788001141443667840747,0.103222842944727624669987,0.0245826219334079644485147,-0.0136396411693908842233114,-0.00366516472717868342298675,-0.00231407047112622537426985,0.00321435302042975606581776,-0.410463270367409538419423,0.911778059339173885256002,0.0145483940764640912179928,-0.0550797354713556050476164,9.74241165802195396850038,0.00976296393686576155501733,0.00102699014710701166247508,-0.00631314876842973063397757,5.96301483016375932777464,1.694984987098572259967,4.03597029804372553485337,1101.55742153960613904928,1154.16141024338867282495,1138.90870158212919704965,1095.71268647831607268017,76.8366191062857808447006,-435.288429445204315015872,717.569723546872751285264,-307.964379192368824078585,155.003008599578890880366
43.1925000000000025579538,-0.00765345480971704305445114,-0.886216576986819881689428,0.111204618494186391330913,0.0243269085026394972504082,-0.0156107876158572359687193,-0.0034698883348812672132444,-0.00236265134210770144304603,0.00319554765146846941892278,-0.410478718431316169645839,0.911765706250698304558,0.0186398371858202197004495,-0.0530463635606259406585217,9.7474962512132332648207,0.00972500929688333883016416,0.00104014204777884747797623,-0.00647736208235650916253956,5.9630359429010226790524,1.69497122802620192594247,4.03595266208878289404538,1101.60541048646882700268,1153.57537815503451383847,1140.75713855383514783171,1095.20865029641004184668,-11.8220471326761522590232,-60.2502895039525441234218,777.261552245011216655257,-110.274792601228881494535,155.000114118759114489876
43.1950000000000002842171,0.0488325571076285713800758,-0.697278333862299426471054,0.121122931538277106566781,0.0238867581499338926809273,-0.0175275906792457178418054,-0.00335417411423176697188309,-0.00241519057546683672821342,0.00315582636667538886723894,-0.410492631424651921445701,0.911764303792022889894042,0.0229368647014596416244814,-0.0510740737110732603842855,9.75223647817749395017017,0.00970543489116807572836265,0.00105348541607639149472742,-0.00661577849598675004488824,5.96305673220057208538947,1.69495748053492545359688,4.03593492864236313977244,1101.49831130394272804551,1153.86015879586875598761,1142.79500934335624151572,1095.16131251530964618723,-52.6185216946056399933696,319.500367544168966560392,890.193093466305299443775,79.4107468578471582532075,154.997032204513999431583
43.1974999999999980104803,0.123755789019729500743949,-0.479715722931142507512448,0.136364078062276572467226,0.0235741783595618051294629,-0.0192988183322924111706698,-0.0029760685494665032289896,-0.00246452777783786811105493,0.00309791761164295150962622,-0.410503058882903504311912,0.911771412191028085558742,0.0272398791584586436043125,-0.0490821487810061060641509,9.75653700165982407099818,0.00970560992814489126301325,0.00106657543464176740068139,-0.00672702516864435301480185,5.96307620475801059001242,1.69494421145372342607516,4.03591594216966864649976,1101.34231787799603807798,1155.17287999275390575349,1145.20810402116262594063,1095.60570403069891654013,-37.6169091711097678398801,616.203335785715694328246,846.791076856128370309307,228.236988073669294863066,154.993120017552286071805
43.2000000000000028421709,0.18358435089615440793942,-0.311187344401654186754058,0.151590489936114569680115,0.0236579372972199782065861,-0.0201329435792686646522487,-0.00238748596212244980699357,-0.00249604892434371989848318,0.0030349700812923830969825,-0.410505507016211523829696,0.911785197473194641837324,0.0311028673936210378614398,-0.0469394177075914062480244,9.76030540163661441965814,0.0097269641872578024160978,0.00107945304071838175767606,-0.0068097691966560493226357,5.96309538662721028146052,1.69493210330900967441892,4.03589625429967036041035,1101.31022675808708299883,1156.94117547479891072726,1147.02896472763904966996,1096.30249745567857644346,33.6526989157674236707862,791.06331034886807174189,656.119484892252216923225,313.380603516474138814374,154.989684464610633085613
43.2025000000000005684342,0.22418510745039560427827,-0.161513602909063302970338,0.17127371189271664575493,0.0241606164627345132434044,-0.0201886168659853246221125,-0.00169939175768776167332885,-0.00250323569754182717259083,0.00297915652987990834527077,-0.410500773946661401403446,0.911802648418371330940602,0.0341632647540388648121912,-0.044650772967922310041633,9.763455010825952129494,0.00977058272330989970033688,0.00109292129770699507698706,-0.00686312380484310237405143,5.96311435593521466103084,1.69492082047093672869664,4.03587499164672180995694,1101.51058137257496127859,1159.12819654450026973791,1148.48870144562556561141,1097.17260704828208872641,133.61643959163632189302,888.847171604392201516021,504.621353335600929312932,348.244229086411223761388,154.986070538278596586679
43.2049999999999982946974,0.234521045813317979833457,-0.0279902341232475815324676,0.199475423052599382112149,0.0250461421457914591714999,-0.019650646879330296856736,-0.00113875910289818675462381,-0.00248313429741049088855798,0.00293122785540348568256164,-0.410492086353722862579474,0.911820671271560523329924,0.0362941256185244504051113,-0.0421935171833728236978622,9.76590911411924267326867,0.00983693375754632857999038,0.0011084184303186102923261,-0.0068869826265344933832746,5.96313192514730427973291,1.69491016088363388725213,4.03585083145144452032582,1101.97830895604465695214,1161.38541133281682959932,1149.55207149431475954771,1098.04371860110904890462,261.780087637319184068474,847.819050252040256054897,313.284626385733417919255,315.042843136118619895569,154.982311480423703642373
43.207500000000003126388,0.193656461774711352585854,0.0951065427639760652134271,0.246942423035290625765725,0.0260971191217986599186762,-0.0189670367113095490740893,-0.000804403098738830889258278,-0.00243433358765554868491376,0.00289078433268595471478113,-0.410484850106541565573082,0.911835958139042279668729,0.0374079611905251754877533,-0.0395642207709406903970439,9.76760306600596805992609,0.00992578687262281669778652,0.00112802048957690633640416,-0.00688214847206353175224081,5.9631462360795817190251,1.6949011688519930451946,4.0358227624504046104903,1102.8194818107622268144,1163.36729179576263959461,1150.05512457755503419321,1098.74782126396348758135,457.885357183606572561985,727.651216987433826943743,80.5403368779067960758766,234.611869519692874064276,154.978380827301521094341
43.2100000000000008526513,0.0752266755267064768375462,0.255545061427799202746769,0.33656785788232684852872,0.0269352217546663594283096,-0.0188699527732669875002003,-0.000574055776111182880852568,-0.00236516906337791866371534,0.00286118669891085490933347,-0.410483767604487626012855,0.911846033709203585004843,0.037437857403172611348019,-0.0369644826130755901893998,9.76848671977817950562439,0.0100358557036365064751848,0.00115436494998025153575771,-0.00685077863175069176615573,5.96315759531916533831009,1.69489275614721757179382,4.03579233081912480685105,1104.2677357419638610736,1165.02366741775585978758,1149.95477317870449951442,1099.21677794870811339933,596.001306297963310498744,448.337894414815593790991,-154.666716733667868766133,91.6844473463167446425359,154.973470151895952540144
43.2124999999999985789145,-0.0823690316345834921962776,0.419670977573723513742721,0.441047671074880909269922,0.02710470236389007567257,-0.0193628272037449644660256,-0.000364580472188806049838039,-0.00228946201822494230931904,0.0028420267803263821702886,-0.410488454831589189009122,0.911851076637625879151017,0.0364403620343718981366976,-0.0346643843203216991954996,9.76852920081404896279764,0.0101643068496799719030443,0.00119019320418086208511477,-0.00679694800998136526570814,5.96316635504488878893881,1.69488243648094338844601,4.03576247348696348637986,1105.79948834224933307269,1165.60898126783467887435,1149.28179099388739814458,1099.20624350069465435809,659.414807627607956419524,56.0236715395771938119651,-383.257005635400162191218,-91.8077673696173945927512,154.969219689661485972465
43.2150000000000034106051,-0.297984462097936109170604,0.625187410162715284656088,0.569248911868439289030164,0.0269102503740667534093411,-0.0197324804524627445134755,0.000133201314675543977875116,-0.002219792803264205097169,0.00282812363591117017086463,-0.410499311115707254948859,0.911851154147241937941715,0.0345627170031239244751831,-0.0328737572313551398850429,9.76772298213296785718285,0.0103065463457532886099033,0.00123797893652441209563775,-0.00672677162111869411664777,5.96317409692881472693671,1.69486792999747493126961,4.03573603303548544829482,1107.56480978010358739994,1165.30378577545388907311,1148.03848815052651843871,1098.757739111859791592,794.623793168196243641432,-311.730859555995834853093,-659.281606430594479206775,-278.431490354608627058042,154.964809075002506233432
43.2175000000000011368684,-0.615400657304472686881525,0.899957115627167292259969,0.726926575352385917483389,0.0263900781928944616616661,-0.0191718682801371997914686,0.00142889412646493769477873,-0.00216277124799383073036618,0.00280947908093135724494349,-0.410507539671147614335212,0.911850611814869149718277,0.0320079553502732594427727,-0.0316558238245294581991729,9.76608720096705518187719,0.0104563840784607977457688,0.00129913568202763909931186,-0.00664811998249513827485835,5.96318278168716364717739,1.69484950256072841590083,4.03571407716963381773212,1109.77260730809234701155,1164.05032697005390218692,1145.98538296173273920431,1097.81408604892089897476,792.844559892949177992705,-562.443195081380054034526,-826.289814100824742126861,-384.290442645791983977688,154.9593360920825091398
43.2199999999999988631316,-0.916025221204930240048725,1.11657784336551579862373,0.835764985244563107791294,0.0253465466440556397298423,-0.0172867297052667588663777,0.00332487902526209166617632,-0.00212052400214844541728731,0.00278040886774241682161124,-0.410506923625997388604958,0.911852664521404898678725,0.0288867201398209233476067,-0.0310252363298398128876876,9.76366897593416638301278,0.0106064880219058077504002,0.00137391381249660324455342,-0.00656990850449733470445279,5.96319295871331256364556,1.69482770915891456375846,4.03569560575345676056713,1111.52903257956472771184,1162.49156980004954675678,1143.90703908002615207806,1096.83628689863257932302,646.268726943605088308686,-658.547475231743760559766,-876.888824656640963439713,-385.754607561678312777076,154.954628866532146957979
43.2225000000000036948222,-1.2269908729507026379224,1.26197441573044999429953,0.886844894489793644787312,0.0232141074153564205828637,-0.013505223782614915808975,0.00614569947313534613309027,-0.00208060657735019459771419,0.00274664617323361467601806,-0.410501561276854609605635,0.91185584525825080781658,0.0250117432516360205241313,-0.0308237314315016677768178,9.76054440276923607200388,0.0107489595731684560442343,0.00146123780883798595059408,-0.00650131231369643555750848,5.96320490842704042933065,1.69480390018628157555725,4.03567963494987846928552,1113.00395094281202545972,1160.75758959389349911362,1141.6009388384472913458,1095.88531301111152060912,516.934563325875615191762,-664.532473712075670846389,-931.596463473966650781222,-340.591443766023473926907,154.949774709166746333722
43.2250000000000014210855,-1.51837976194009649510974,1.30617704126977218770378,0.868821782106329210115803,0.0201286896626620172290334,-0.00859927864673034302034349,0.00944978736165517398115643,-0.00204251413438894099602883,0.00271250871638956852008318,-0.410494704165843604659614,0.911858997217707467619618,0.0203394276503814502854439,-0.0310870449913403720798577,9.7568181934977342706361,0.0108754752470869419517241,0.00155859140750837167795073,-0.00645173849883056739484832,5.96321897915595222627871,1.69477912127216190363299,4.03566562336537959509997,1114.11370539619542796572,1159.16890743148746878433,1139.24905676265393594804,1095.13332967980159082799,331.680544126522079295682,-535.934615668735091276176,-911.160125285333492684003,-215.427269255647331647197,154.94480291507386482408
43.2274999999999991473487,-1.74729962759596757493341,1.19821349375545160853562,0.756603569741028936235239,0.0158640700575343115974469,-0.00369439631149172300478289,0.0124848973505643084935812,-0.00201478004122619290192087,0.00268076463259803512984014,-0.410484077668259395021977,0.911863392157003072036048,0.0149484867734343829237531,-0.0319895606566938037196302,9.7526230020817212817974,0.0109776741797649093207445,0.00166191722287284751602421,-0.00643044631131603049850609,5.96323815374526411403622,1.69475372976830906956991,4.03565570970461884314773,1114.66235366344312751608,1158.07791651555226053461,1137.04513821202476719918,1094.80817666483426364721,93.4912686554047525078204,-302.416268135566383534751,-881.292878637945477748872,-10.2977075900928021212621,154.939694926672444807991
43.2300000000000039790393,-1.90190185070895845242944,0.890799075328946088347948,0.521484253550475007621401,0.00943808809972068209204199,0.000962000804995144509490501,0.0151040205308059470590276,-0.00201190454760972374861905,0.00265127628177975332990357,-0.410461033581691114857648,0.911873130534112785738898,0.009037965287362045851971,-0.0337764197436026883392124,9.74811763411212162111497,0.0110476049115809087791673,0.00176586111813261574868261,-0.00644606972338333805705446,5.96326449877238040642169,1.69472824899470730919404,4.03565148020991948385472,1114.58116173947269089695,1157.65682609080886322772,1134.8425923694619541493,1095.08184114185110047401,-156.760116864108397294331,16.0347887964153237305709,-699.27598849549815440696,222.559098848864607589348,154.933415952921365033035
43.2325000000000017053026,-1.90499895843980926457562,0.508155105972251663892791,0.260225182301761615022428,0.00345664146738158470362201,0.00330846102393845707331788,0.0165572640394831237242723,-0.00204477241662854268555716,0.00262688462973034502975778,-0.410421905783527052324899,0.911890025491601141638398,0.00274398288295474301889953,-0.0366395614114031417662964,9.74348326817765020280149,0.0110784069850712579147212,0.00186457581071186790679095,-0.00650572148032858062899342,5.96329728429646088727623,1.69470292884053130855193,4.03565106777783455527242,1113.87855307912218449928,1158.15809045953437816934,1133.54875826954548756476,1095.92097215907915597199,-407.306764512038455450238,368.976629824573137739208,-377.40214108396446590632,459.202916192916006821179,154.928065429212978187934
43.2349999999999994315658,-1.76731005895430248742173,0.0366663518100408397648593,-0.0375999156413480833949237,-0.00239728211941177878768761,0.00365227995960981611719975,0.0172007118647832767110994,-0.00210514467243044052155443,0.00260998461970925708930391,-0.410372176852114245448888,0.91191167097026404331217,-0.00392594304964864748708209,-0.0404153770537513598593016,9.73891984669707966304486,0.0110649421279200004669674,0.00195233297605365324796367,-0.00661429888534971477387359,5.96333228655266189832673,1.6946785729606161918781,4.03565060220848081939948,1112.5446279169143508625,1159.50170923993005089869,1132.95558166404384792258,1097.37785572281359236513,-714.60518788853551086504,731.071675215424647831242,-91.3032573310816957246061,759.932055491501614596928,154.922600752558622616561
43.2375000000000042632564,-1.45813552299194504335844,-0.578987973236114727981771,-0.391655998480941791584087,-0.00860159328154790070453117,0.00208443079746369747118351,0.0164988293219424202173951,-0.00217744912186633183398543,0.00260056340564247898822225,-0.41032343029825979474623,0.911932894904905810840035,-0.0109670091822487714150469,-0.0447799092087444658427664,9.73464054367109454801721,0.011004077826672217788051,0.00202407202566452001230024,-0.0067742810611181028188077,5.96336708264674442148134,1.69465495759082029891829,4.0356488480025074494506,1110.30552713967767886061,1161.81344883561337155697,1133.09224198288984553074,1099.7206324365386080899,-905.506513667515378074313,901.111881724448835484509,178.554224624894743556069,929.758581032526308263186,154.9159217689128524853
43.2400000000000019895197,-1.11391726394076551187595,-1.10186394198051540449512,-0.648324941333481175043119,-0.0124046687851163666554966,-0.000453748216216227993197174,0.0145335534771009692450727,-0.00225422298972060815638874,0.0026018967276698360888143,-0.410282929898088954967506,0.911950434707469392847656,-0.0183594836234072938951911,-0.0495688761610055747541814,9.73086419948153391601409,0.0108947757120086610033161,0.00207555660429261474783647,-0.00698569365902587929156864,5.9634018160510970929522,1.69463246584206039813125,4.035646900644765722177,1108.01709534857445760281,1164.00726864855460007675,1133.84835278716877837724,1102.02664862797860223509,-965.982834585580349084921,846.731996496279634811799,399.956984071604836117331,953.043071972982033912558,154.910263045535771198047
43.2424999999999997157829,-0.736213896221922126095194,-1.60794498700650256850508,-0.829715594951442425575294,-0.0140762806993786453169104,-0.00400618991251363004008068,0.0114526198485988515984868,-0.00233485155211452660717342,0.00260861259981928989351574,-0.410257393596130948143497,0.91196128229963235867217,-0.0258713090931314282361342,-0.0546616092491174973555523,9.72781133697304056795474,0.0107378482852066355762721,0.00210345309044409440810131,-0.00724641240807259723322176,5.96343583352953476861558,1.69461145026349391251586,4.03564325124624456719857,1105.47561296675416997459,1166.04710881809091915784,1135.09202690324605100614,1104.48584779639918451721,-1023.77121301267266062496,731.819286471938426075212,540.86801424045086150727,973.62771012101222822821,154.90451812429884625999
43.2449999999999974420462,-0.374764310045842208296563,-2.08564079866387652728577,-0.934731019850436717355535,-0.0140613290239309379758836,-0.00827846536143045548528097,0.00812877150707508842886195,-0.00240876310241384646373963,0.0026092609624213118808822,-0.410248753141319033588275,0.911964629720577901750289,-0.0332429079352311585004998,-0.0597046999610769749122774,9.72569889517814978319166,0.0105359364734873839353213,0.00210507335913504402616359,-0.00755210571772493930581271,5.96346834315043050622762,1.69459254858383157049673,4.03563675430174750857759,1102.89823928351574977569,1167.66636508091096402495,1136.55269285836857307004,1106.89478717857923584234,-993.707435187699047673959,498.454503498141662021226,587.010494823761973748333,909.083881093682634855213,154.898709629909546947601
43.2475000000000022737368,-0.0716964952707608016435614,-2.51299859916311207896911,-0.949793341665791324146539,-0.0128649229089368658668358,-0.0136594068020076363223492,0.00522513173340091469781798,-0.00246883111237488576256149,0.0025991163287961845627938,-0.410250167700096535217114,0.911963600752302983032394,-0.0403119886524978404684916,-0.0644532518158203310276733,9.72473074808969251137114,0.010293347735516454599658,0.00207857271314105650911186,-0.00789625782004557859317107,5.96349831929185647538816,1.69457668432182373408068,4.03562740738350189673156,1100.50707579081313269853,1168.53938133558290246583,1138.027079377366362678,1109.03126720186992315575,-953.835348093174161476782,188.285946127365690472288,593.926073679100113622553,830.062920886787765084591,154.892834382411280103042
43.25,0.205148264111473133120001,-2.9440732520038954689312,-0.884164863622743268933846,-0.0114368786039104643192932,-0.0215659728298331319906733,0.00250722319244428819978721,-0.00251425631775170979609335,0.00257962452904875313638988,-0.4102556557043194329637,0.911960921546467462306396,-0.0469835093920754343077562,-0.0688213186805071985840954,9.72509133685341176089878,0.0100155702112256494995535,0.00202327239528406806895466,-0.00827050724378619248056133,5.96352523829436975688623,1.69456424327285826159084,4.03561526514077328897656,1098.12906254304743924877,1168.60779481154827408318,1139.52232322676559306274,1111.04510178301529776945,-758.536049542188720806735,-128.508350467317086440744,471.024732518409109616186,623.137801312462329406117,154.885720179430023790701
43.2524999999999977262632,0.368679685501625609145293,-3.21717181490481607397669,-0.779484014334525521228159,-0.0104455614141080298934439,-0.029156407199441347621871,0.000954832957991899318288265,-0.00254397966014128498399294,0.0025483799680250467621645,-0.410254145020576055369332,0.911961625262040276318487,-0.0531079948610487101445798,-0.0726866135406354224590686,9.72694338141478276327234,0.00970864662523077473488264,0.00193941296544667004207729,-0.0086651334019352075493936,5.96354929493833463283181,1.6945548199852928927811,4.03560014142193335118236,1096.71439554310563835315,1167.89683958324690138397,1140.38220303995626636606,1112.14695620842940115836,-426.04472048616150914313,-407.898883833986985791853,245.066971868811521062526,310.873093342274955830362,154.87974845757409525504
43.2550000000000025579538,0.480047426821772926786025,-3.38187677440072809176286,-0.642966779157071122163813,-0.00905536155313993451621002,-0.0375518713349220698005659,-1.62300252815718380316329e-05,-0.00255658509583365708972558,0.0025017760900048033496923,-0.410243300062033022790331,0.911966756140942025332663,-0.0585297820123348994103551,-0.0759157899327485008456051,9.73042328889772889510823,0.00937860132465679133262348,0.00182849217738633904560552,-0.0090693056893180641619967,5.96357192022099447115124,1.69454709705458306245873,4.03558176964457082647186,1095.99883894061554201471,1166.56830039237729579327,1140.74765808611027750885,1112.59946724972746778803,-147.843012102263713813954,-667.108984389119314073469,53.6585229258615257208476,61.4763655799064707707657,154.873744298056891466331
43.2575000000000002842171,0.581221451214836926091323,-3.43980293984379326133194,-0.452996174097609616282512,-0.00702272860907729532670141,-0.0481155178526202556565927,-0.000878008183040397509333541,-0.00255317834691160591015224,0.00243652039651320699575887,-0.410224979802513989302071,0.911975425824075425218496,-0.0630924199112892630791904,-0.0784298813844270525930114,9.73563745945330616393676,0.00903109545418381322312573,0.00169323118460450823194452,-0.00947140942058232425393438,5.96359335700440240657372,1.69453984130471546620811,4.0355591428994044278511,1095.97518048259394163324,1164.56129466129959837417,1140.650495654585711236,1112.45433803632909075532,124.056054537617512778525,-756.248567968992801979766,-100.289806789169503531411,-145.133814114747224266466,154.86651680284589360781
43.2599999999999980104803,0.664457219547274879900556,-3.36894460386146255004292,-0.271170953766591948941311,-0.00560684326862687099080063,-0.0568027848004697341610658,-0.00160818007725199111496162,-0.00254087160676412689153114,0.00235197929404528088132009,-0.410200175795093213704234,0.911987126393972058480131,-0.0666535820923662009063193,-0.0802865335035343880010217,9.74265927850860968817415,0.00867131157996480980698628,0.0015375460443463170780859,-0.00985945574357325986436518,5.96361304211480902637277,1.69453193550797531763408,4.03553173277861265688671,1096.61911921330306540767,1162.78705755253577081021,1140.24620905216488608858,1111.87379817915439161879,381.3008388037228542089,-674.214090013420673130895,-181.701943620235198295632,-290.029543257366526631813,154.860486382673428806811
43.2625000000000028421709,0.780566174627292275189916,-3.18090096666278521198024,-0.0564437191119568221209235,-0.00471548040246362425154114,-0.0649699213495069372026336,-0.00255067258147119359928956,-0.0025182882843694078325858,0.0022524961207925795966811,-0.410174310316369583606644,0.911999383212830139200378,-0.0692414998590938773892489,-0.0814447876137459336742808,9.75152846618728474936688,0.00830408304221027029901059,0.00136630663156034446066578,-0.0102215113400942990418141,5.96363071603223193761778,1.69452359093890803087845,4.03550117144937914304137,1097.88168467661353133735,1161.19022421123077037919,1139.74198593648407040746,1111.00419032004151631554,595.971679153503600900876,-570.612181782033985655289,-176.836508886163329634655,-364.483575262006525008474,154.854461755883050955163
43.2650000000000005684342,0.944076758717038000412458,-2.90607897332007025781309,0.189877174964048101024616,-0.0042235311121235534839724,-0.0728160991777184740669782,-0.00365427946694436324437394,-0.00249302856920179723848596,0.00214256799465318420461202,-0.41015188838635346924022,0.91201012567162520472408,-0.0708302350746559811200953,-0.0820373821544351511381166,9.76225173138075597023544,0.00793369537647560692239512,0.00118528543268196892741806,-0.0105463425566568007318846,5.96364460535875284818985,1.69451452422749260229295,4.03546708721383939888483,1099.59897760907210795267,1159.93399664362414114294,1139.3620265077336171089,1110.05138030284342676168,783.677646810505052599183,-379.996972407006978755817,-76.0018156280020775739104,-365.491019081232934695436,154.848452175172639044831
43.2674999999999982946974,1.17047279793904746014732,-2.54596140972739259922264,0.465522550980472571424684,-0.00394150428970076703583114,-0.0800347885868184505397949,-0.00458798036997014584831289,-0.00248008618266335302895986,0.00202672214494660669903414,-0.410140890360494614341746,0.912015716984328927985359,-0.0713485245796828954079061,-0.0823446898230521390216197,9.77480450309804282937876,0.00756379020579414900610216,0.00100088816479562345285181,-0.0108238226796362711767951,5.96365407402322400542971,1.69450434920415959894058,4.03542932734423320795258,1101.80007291066249308642,1159.29023934919746352534,1139.36197685834440562758,1109.17673522463701374363,1064.95437632015728013357,-99.7738750177121573869954,128.574352518560488078947,-330.177943333059602082358,154.842473266326265957105
43.270000000000003126388,1.48373066493661442954988,-2.05264898933763806354591,0.788955845231726127231298,-0.00245110701224341342649438,-0.0869971743201469471795662,-0.00413155664725228799483148,-0.00249132931202131419415324,0.00190834222595064983800384,-0.410143249496033035494946,0.912015260915022163423771,-0.0707432415035156997307197,-0.0825963627156678786844779,9.78913454391793358411178,0.00719729280123568727206562,0.000819286952835792162651296,-0.0110453485919858093028401,5.96365880985650420598176,1.69449273364293939714287,4.03538732163254998397406,1104.92374949067561828997,1159.43512726853532512905,1140.00489827032674838847,1108.40049058617728405807,1213.38619555896684687468,227.526119752585174182968,353.824619069565414974932,-222.080764518409608854199,154.835350428283845758415
43.2725000000000008526513,1.72655268700891251221208,-1.62508432283445736210581,1.00158728866011181857232,0.00124988100495365011578797,-0.0911221030627730882445192,-0.00124949522290933117373013,-0.00251977841693726192090486,0.00179102432242744238552468,-0.410156887631326905196971,0.912009711837475700590971,-0.0691285476068337484401027,-0.0827010257448905911070725,9.80516581937646236610817,0.00683641289464535870795681,0.00064559138471647866449471,-0.011204234855377328411441,5.9636617646891156852007,1.69448009388747022896382,4.03534303950049455522731,1107.86700388846043097146,1160.42786994796097133076,1141.13109995369313764968,1108.0663314020443976915,1228.07811357995706202928,589.31987583281568277016,563.392142820169624428672,-60.7377173951688149600159,154.829470070746396004324
43.2749999999999985789145,1.86996570918527083016158,-1.22122018912314000971264,1.09143838945454851874217,0.00773490278660022428924847,-0.0936691369407404716973531,0.00398488187665685736349452,-0.00254932600450130794275672,0.00168114508298637731036063,-0.41017501636741593440405,0.912002156630003280035623,-0.0667537316449366563420043,-0.0824372335730207406179204,9.82280080103931929613736,0.00648258091290886996616027,0.000483644231445461137124803,-0.0112960836858982619640424,5.96366582207967166340268,1.69446647036469344449472,4.03530088552009225111306,1111.06414005856981930265,1162.3817266476967233757,1142.82185898442503457773,1108.09680199920171617123,1432.39628264313455474621,1070.10411185324119287543,842.813775533682814966596,94.2779508780376716003957,154.823661857324509583123
43.2775000000000034106051,1.85553552187064263456762,-0.799181499492493618852507,1.02022603018582591616337,0.0165671624624515942403313,-0.0952969419799758188371896,0.0105340184739183273521235,-0.00257278427523726076903143,0.0015813018400220116028293,-0.410193317673263724287835,0.911994545977535264746905,-0.0637388061142791922941697,-0.0817233727898493966801396,9.84192519077098282309635,0.00613633979549698099081878,0.000336351715840645906947792,-0.0113188848818789478817282,5.96367231718117540850699,1.69445141754138672851582,4.03526399527039636438985,1115.02898530167976787197,1165.77839050722991487419,1145.34516883136370779539,1108.5377211564348272077,1444.84957632060945798003,1392.73525493501119854045,979.986037379284198323148,221.28514397943538938307,154.816792776815304932825
43.2800000000000011368684,1.67180736372878624429461,-0.512017952936275055897397,0.824717190115624831925345,0.0229780132263917198642833,-0.0958762155216318218142746,0.0146271185924132882810733,-0.00259008652347343009195169,0.00148953880630445451363486,-0.410211711126638955970947,0.911986902051027170656994,-0.0600727145134785506241926,-0.0805784584029259065562911,9.86241185312555224129483,0.0057977571879103163843272,0.000205776796140566954444739,-0.0112724310922447858857032,5.96368050458508669464663,1.69443571332315334743157,4.03523346739318800047158,1118.28838794017656255164,1169.3454029223753423139,1147.72178917132396236411,1109.20322771909945913649,1256.34017317848361017241,1524.43540036513195445877,979.567875891261451215541,316.140896554739924795285,154.81116530520984042596
43.2824999999999988631316,1.33329848476776335886029,-0.289125847757983278629723,0.543828351354163075370707,0.0273365204639161932242963,-0.0962315710299213866729673,0.0166190309705046210253521,-0.00260370482876090721113815,0.0013973403580301107206052,-0.410230226631276007065452,0.911979183555778893932597,-0.0556127633698437623399613,-0.0790206515669573117399693,9.88412482107212397863805,0.00546685896771728890158881,9.31334982620524441969054e-05,-0.0111574570841496550910321,5.96368855823705423802039,1.69442060823623008580796,4.03520677411038963811052,1121.31068616756647315924,1173.40056750904864202312,1150.24300821081556023273,1110.11842563920708926162,1145.07327218453247041907,1649.7239550288413738599,1018.65346208490063872887,397.942006072367973956716,154.805653235057548045006
43.2850000000000036948222,0.903649487832161368849881,-0.107102435048784541682387,0.249260693607406658145464,0.0299643349687934261449396,-0.0967833035332465591027429,0.0169780095131269355424042,-0.00261599924501742815002858,0.00130023286137743434784375,-0.410245063370589080342654,0.911973013910601260079147,-0.0502961812515215350716247,-0.0771020420950117441050153,9.90691887277693972180259,0.0051440947134765158121894,-1.07793108767083070892272e-06,-0.0109747680334647233768575,5.96369579650442016571787,1.69440696526300516033814,4.0351819527217802630048,1124.01375430110215347668,1177.59402269752376923861,1152.81505648175107126008,1111.19293774946231678769,985.068372624069411358505,1640.67110413345926644979,1029.63509918297017975419,456.132094513253321110824,154.800247665015120901444
43.2875000000000014210855,0.414473994366173492664984,0.0444605348899626204306479,0.00548697128002473277774698,0.0308407732347872470812788,-0.0974555037862697842721005,0.0158585050738988889151848,-0.00262935298365860091809876,0.00120406709056880773314746,-0.41024776709345828207276,0.911971963808491326020089,-0.0442533377497531660305086,-0.0749602537947871294665703,9.93064013260168465535571,0.00483045141279116879706734,-7.69248506464528645663534e-05,-0.0107247708167781206217706,5.96370175097246502105008,1.69439374499564854303912,4.0351586660131690820208,1126.23602803068934008479,1181.60392302972013567341,1155.39118370673304525553,1112.39908611177452257834,857.801611170505339032388,1637.73530069155435739958,1115.65102415912929245678,544.778183711054907689686,154.794983134529132939861
43.2899999999999991473487,-0.184720075935950744927538,0.207877716714929050567662,-0.16260929800696297120588,0.0303381196242122688766507,-0.0978932861269186938013576,0.0133362400367462215905467,-0.00264611303783884432155871,0.00111332474173648837342809,-0.410238663669370340336684,0.911975588808773940385777,-0.0375962509423001384201157,-0.0727238558383619115854657,9.95513135406799420934476,0.00452713799772656074610344,-0.000135007039298910944298548,-0.0104073956692136444096564,5.96370625359335715387488,1.69438031819812429112915,4.03513577905193354666835,1128.30276235695077957644,1185.78269920097409340087,1158.39331160254164387879,1113.91682866801511408994,662.827423533896876506333,1378.04642523635698125872,1063.40458226691384879814,556.416161963840750104282,154.788844499077697491884
43.2925000000000039790393,-0.662607785554235384495314,0.331657653074033442752722,-0.174551195992335012041607,0.0288881158303149199184645,-0.0977390457822157054934564,0.0108283238974947893656919,-0.00266806609423348968859746,0.00103038840737571598012157,-0.410214787674631264913216,0.911984887569928459605251,-0.0304112019793015414537152,-0.0704915829983558117621811,9.98023338210014365756706,0.00423553529017788987082183,-0.000176723089010765333373848,-0.0100220510913008147013681,5.9637092656623824638018,1.69436696138211750906066,4.03511222107689615512527,1129.55016514836052010651,1188.49415515590544600855,1160.70820661807033502555,1115.18116692159514968807,419.056348917105651707971,889.461396502838056221663,848.898137639546348509612,492.891337779585910539026,154.783889081450325875267
43.2950000000000017053026,-1.09073364546470652491905,0.436309885955169618476646,-0.0581391184252841378143906,0.0265199086316915098870961,-0.0968779738182446309435747,0.00907204651024953907800796,-0.00269934807422847391350507,0.000952805372967238184758743,-0.410173187519527804312247,0.912000821648472292935139,-0.0226842562073429343527664,-0.0683615721022634847958699,10.005786403876561152515,0.00395710789748198073223495,-0.00020433587940024144371208,-0.00956777292752296164290993,5.96371218218427401325243,1.6943538751299718203569,4.03508839687640286086889,1130.39804410153737990186,1190.23000618349055912404,1162.63780229074154703994,1116.38128535691430442967,315.187752302395153947145,530.757075100728570760111,710.16908063980747556343,500.819558202238852118171,154.779112689199450869637
43.2974999999999994315658,-1.52276559268254829682121,0.52665025545277666108035,0.186586535695373700871613,0.0225347989386156660751581,-0.0949573133007303726849102,0.00863471474440350231227548,-0.00274292660439263025901058,0.000875419858769060530920281,-0.410116903923607833970522,0.912021657576812083689788,-0.0143673838386188662541443,-0.0663840662282805249461148,10.0316302746628185360578,0.00369350297963786213320536,-0.000221036410612323333752319,-0.00904341038339189461081613,5.96371449275259468691956,1.69434122438025558388119,4.03506303253052323043448,1131.12610390987106256944,1191.14794053140667529078,1164.25905202126614312874,1117.68526471260406651709,248.6128040100176406213,157.88113340105263660007,449.958692120569025973964,448.814798896498871272343,154.77360235529118881459
43.3000000000000042632564,-1.79989232632343321149904,0.565639909489005332510203,0.432406487908276460085943,0.0182349422678553529930667,-0.0928993882197339804207559,0.00970022957856398609921555,-0.00279962566092132811301774,0.000797184250924214393013711,-0.410054259847941471317512,0.912043322702112524424933,-0.00551133518953407508522702,-0.0645974044179843387425421,10.0576039469388707203734,0.00344670802396400801151377,-0.000230911285243648564842467,-0.00844789889347816874698438,5.96371799783997147414993,1.69432964651835682445835,4.03503635205217836556812,1131.64110812158810404071,1191.01941185049622617953,1164.88759575134554324904,1118.62535935139794673887,221.530334429849403932167,-199.116829084494384005666,90.8301310991181765075453,343.373045290224467862572,154.769204815200453140278
43.3025000000000019895197,-1.97777789323735531112902,0.568845978538450536277082,0.666258027292324861434736,0.0130740656888541067343068,-0.0909646421441538399754734,0.0119796860414547647749606,-0.00286014014477354921658914,0.000720620362949915072361962,-0.409989419111313979637856,0.912063736620442822022881,0.00367581926536117431503214,-0.0628741950401060512021445,10.0835476388762721455805,0.00321912595629412177922202,-0.000238976685141743453019356,-0.00778063806249834795381037,5.96372544976286178552982,1.69432042268583527011572,4.03501030958279738314332,1132.23375558202087631798,1190.15235638598369405372,1164.71320267676196635875,1119.40212993905606708722,269.291286230663274636754,-432.238255206886833548197,-186.642689327970089152586,287.984090462021413259208,154.765019673778937203679
43.3049999999999997157829,-2.06936784236214732501935,0.552315457171371315681085,0.856636304911212342894089,0.00750955132386945268391232,-0.0894654875267853616493952,0.0148707168912618550860039,-0.00291650660605654145698939,0.000643989202812675159103006,-0.409926587039380896371199,0.912081001152093451267433,0.013066912334812885720936,-0.0610668768481446092022402,10.1093044545334862505115,0.00301349525108285994784429,-0.00025050171888440597549319,-0.00704184884802453673474654,5.96373721342036411385834,1.69431520182954709063949,4.03498648246617008794601,1132.98756455274019572244,1188.85822057446375765721,1163.95438230470654161763,1120.0652798037067441328,348.906249853597614674072,-573.481038541488942428259,-396.688431504023071738629,250.211211642090546547479,154.761017406372843652207
43.3074999999999974420462,-2.06222600093516872377108,0.529451986197152280055889,0.969573995471755711861306,0.00197078198944372097456412,-0.088658552080296604280818,0.0180282516898426052598392,-0.00295272719568078888946472,0.000568636646028300484292939,-0.409870909808133787599616,0.912093150957052123395385,0.022403547242136889749986,-0.0588963338296316848974321,10.134721024494952601458,0.00283316694365780448461312,-0.000270279908484580483948173,-0.00623252422351750542256488,5.96375246568888961462562,1.69431483560733497917283,4.03496756551445745486717,1133.97828683128727789153,1187.28495119327885731764,1162.72976051924365492596,1120.65318599726538195682,476.705737372305407006934,-702.876899282414001390862,-563.216838721821886792895,262.529363219302751986106,154.757242365441470610676
43.3100000000000022737368,-1.95900965536939275501993,0.513149999404926782098357,1.00332323503150200316725,-0.00402304514550999234301365,-0.0881348983180338663157016,0.0217416333425491381525774,-0.00295594266161168387277436,0.000491620586696613179507331,-0.409824402190216041663717,0.912100134712357735189414,0.0315246278080460531900719,-0.0560974088598053186038861,10.1596485554225601788403,0.00268188791974321646960355,-0.000301641847857327918998316,-0.00535423864297526492378454,5.96376858628010264595787,1.69431885924643044205595,4.03495418497836322302419,1135.3710932396029420488,1185.34383607804988969292,1161.13829811109599177144,1121.37792661980392949772,515.765100116877761138312,-690.399655751081468224584,-541.361635082735574542312,284.858602033127453978523,154.752981846212747996105
43.3125,-1.81372361855450492384989,0.513002085367528226633738,0.949613637137290300671566,-0.00809810788947793423753208,-0.087666349851672861759333,0.0246479666425704901921989,-0.00291611064243935255366202,0.000415705214585620694278667,-0.409793289912263103413892,0.91210074237312777079012,0.0401812255562452175228216,-0.0524999610117788603758093,10.1839422664363130621723,0.0025636767214147183034656,-0.000345675212761310237871704,-0.00440864664078289593407423,5.9637816059589319195311,1.694326119166752464551,4.03494423613306718578997,1136.55711233187298603298,1183.83295291452168385149,1160.02295234382859234756,1122.07747900743174795934,428.294557411234848132153,-556.974086548559171205852,-343.459115148965281605342,314.819412081410348491772,154.749659707893556515046
43.3149999999999977262632,-1.62784838444969204296342,0.518365723195639338527485,0.825216348108226860347258,-0.0115516653261226575483134,-0.0869137623532408587490039,0.0270806374448059640480668,-0.00283048211400515128954858,0.00034940410934827185584356,-0.409782248768245316306036,0.912095360173241664902832,0.0480734848860195074227164,-0.0481161001384760797505713,10.2074621285032787199043,0.0024822820786369339217392,-0.000401009229143264444173572,-0.00339718711403301856788239,5.96378870261307802991269,1.6943341290641980023679,4.03493440617775167567061,1137.51256602665716854972,1182.55896564530962677964,1159.42100253535272713634,1122.95202368020954963868,301.797619748986335252994,-485.340500192912259080913,-113.000271036149968040263,434.036248532407512357167,154.746577406653955222282
43.3175000000000025579538,-1.37047425459416372106602,0.508132705849669075170993,0.619964420581242348085027,-0.0156505683119167113281911,-0.0855281175746852306840395,0.0291405783790982218783849,-0.00270293017929482473626912,0.0003103389287695622442316,-0.409793870574812035822987,0.912086407237230112343696,0.0547843499764687977271471,-0.0431610420801944241753212,10.2300739960521553939543,0.00244055395852848253449019,-0.00046416249528259966071822,-0.00232114145055004397755205,5.96379027428208718930591,1.69434118610141859484486,4.03492410821503533213672,1138.06610043061868964287,1181.40625041355588109582,1159.45795098864755345858,1124.2476602500948956731,66.2798899808082921936148,-348.293617181438150964823,137.795503675508825836005,515.561442142425221391022,154.743157350406818295596
43.3200000000000002842171,-1.13079903379652946249223,0.464839142403112415280475,0.423072385871864853346125,-0.0188416217973777777583422,-0.0837458150458837008445201,0.0301477903130772800777137,-0.00254186332553775875056634,0.000309061628472203601004226,-0.409826756934146274602426,0.912077198452843851406158,0.0600667654925931965292918,-0.0378830941551922609211722,10.2516521514852581020705,0.00243979425577925358378795,-0.00053028970554691882630105,-0.00118205788363807333223032,5.96378681416311273721931,1.69434650487485916059427,4.03491475100530028186085,1137.84396547656137954618,1180.81749755940154500422,1160.10998005373062369472,1125.52983089092299451295,-249.118922162323656266381,-149.505733095883897476597,361.573411056371298855083,546.640081342181133550184,154.74053944514616887318
43.3224999999999980104803,-0.86902425917384806819399,0.365129189636200890411999,0.221618238272942025268719,-0.0214790976431930534518155,-0.0814361475774052490095301,0.0305712792290183561771943,-0.00235963932037645167730244,0.000341287181518503584046198,-0.409876930082641033337154,0.912066320341215597267137,0.0639903581194193743497678,-0.0324896389390387646534109,10.2720800979138839892357,0.00247945342393487630494597,-0.000593907672402047633226918,1.78568326413299515202041e-05,5.9637791490986336029323,1.6943500218638891663403,4.0349073127561290164067,1136.82050581980820425088,1180.65872174807714145572,1161.26581804392776575696,1126.98086065680331557814,-529.400284549458092442364,6.87679286238210973891682,514.753703057077018456766,597.948185362305252965598,154.738161581854598125574
43.3250000000000028421709,-0.594613732073196676886084,0.215218392873074565452285,0.0292672697386750224612939,-0.0235286585129989254949745,-0.0793573926436881293966508,0.0306263346442427718263612,-0.0021729720365452728954303,0.000386206886452022458196959,-0.40993326327286228050184,0.912055324513938225905463,0.0669830655770045357844111,-0.0271404292917262965345593,10.2912510485921178116087,0.00255703787150589551338542,-0.00064960022577046890382424,0.0012754843888670465423818,5.96376889353172678909232,1.69435188659716673420519,4.03490230744999855971855,1135.19696405381273507373,1180.85188152371347314329,1162.68374856901732528058,1128.51957181773605043418,-745.742948407524181675399,147.280666874091508589117,594.064762898338699415035,621.007433397290355969744,154.735981894799181191047
43.3275000000000005684342,-0.315916703481315785939643,0.0209517893508968863769404,-0.141087142719718200423173,-0.0246258760466862777760433,-0.0785218521707614636184758,0.030312498983243337663529,-0.00201066031768684953459636,0.000418730948988290101620696,-0.409979680335149365699721,0.912049031329435155868168,0.0696731585773847778009227,-0.0221959130185567163340288,10.309068082730354021237,0.00266816093298899480526498,-0.000692601671467725976336083,0.00258667087504812522047448,5.96375876371390134522699,1.69435115527082835740202,4.03490130557048942705478,1133.09179107776867567736,1181.39512508244797572843,1164.23614185842097867862,1130.08589782379135613155,-944.501139102425895544002,283.450027388138039441401,681.180520537219422294584,674.21892456757109357568,154.734039970899203808585
43.3299999999999982946974,0.00660219951675677929614494,-0.224437432340904519101343,-0.309936927826352237591578,-0.0247669091279150987983115,-0.0790956000428563038573415,0.0295189682233325430271709,-0.00188681599963062590803731,0.000419100096035828699036346,-0.410006221506597157144824,0.912050420162969666115771,0.0724862998813566583589107,-0.0177949047004330312971021,10.3254476609191279123934,0.00280664746324990003328859,-0.00071907749824138818359881,0.00394634360649979715890412,5.96374959973164742166318,1.6943471805889294135028,4.03490470569762749164511,1130.47445835830490068474,1182.26913166065287441597,1166.08965117170032499416,1131.89066644057083976804,-898.104596917614685480657,323.636517775019399323355,666.866638293481514665473,634.484612034196402419184,154.731982797472369384195
43.332500000000003126388,0.254697099258422599010743,-0.408398246818549692793709,-0.415549287919987131445509,-0.0241624638036003480667802,-0.080201344325088394504597,0.0284908555612925877553732,-0.00179964709739177208640271,0.000381289096731286542701911,-0.410016831945975268602922,0.91205692168399410402202,0.0754768664740726874518018,-0.0138990186670341509672655,10.3403205883450706181748,0.00296467886500438506519606,-0.000726185084637944724614278,0.0053486921557382889613752,5.96374267423835391355169,1.69433996235330641688677,4.03491284841028008401054,1128.6012680931783052074,1183.01330767132390064944,1167.57047504989009212295,1133.25832088396396102326,-603.785821051188008823374,262.616483981539431624697,579.173346436868314413005,503.231693396734897305578,154.730494709879025094779
43.3350000000000008526513,0.473381126615269876012349,-0.539640855526225537985852,-0.480620715517603214195219,-0.0230766049627254762888207,-0.0813956883576567452598383,0.0271253126808921225798787,-0.00174604277782768589101503,0.000310300720710715832034721,-0.410018837684100856399994,0.912064933224429719160753,0.0785010592215635433221976,-0.0105417750037038373406295,10.3536320750917525401746,0.00313311132182650126792867,-0.000712317707486476050897373,0.00678729668372680689653054,5.96373710859530170580456,1.69432905448853921015484,4.03492485853260873795989,1127.45552925304741620494,1183.58221408056124346331,1168.98551790388614790572,1134.40682490755580147379,-277.15574374313030148187,179.647858590014635637999,617.895886440435674558103,439.154235740205990623508,154.72923964716687805776
43.3374999999999985789145,0.697894584663914963051923,-0.604138407465041882282719,-0.511834241503528408756551,-0.021384433662545453830317,-0.0833219681123570921066346,0.0253983311563202827920716,-0.00172785306373797790079061,0.000210373869293951329438944,-0.410014065173181452284012,0.912073617609035158793063,0.081492721837653520067235,-0.00784551015375785538996656,10.3653420197089509713351,0.0033020574222362439678613,-0.00067738398339314495350677,0.00825518491304769348737569,5.96373335272074545088117,1.69431328624436594587621,4.0349406691179430239913,1127.21548937446391391859,1183.91154696427315684559,1170.65995448208946072555,1135.45409206266299406707,111.12757674653720130209,52.808758260580631826997,619.425855278224503308593,319.118924579307076783152,154.728000737087711513595
43.3400000000000034106051,0.851891685447986990453728,-0.558843259143490089790873,-0.502542729055959647155305,-0.0196600942304536070726062,-0.0854680775565904299329034,0.0241872545222609029724747,-0.00174913438907816341273682,8.36108025795209567395533e-05,-0.409995665914310858379821,0.912086194911387759809429,0.0844663345424581935017017,-0.00595573331010630126203242,10.3754250857421155274096,0.00346153907406908292049286,-0.00062305769733033550521889,0.00974494071166738876077495,5.96373449525254439862465,1.6942932714410849914799,4.03496414393859659242025,1128.01116713678038649959,1183.84625787186428169662,1172.08264718027885464835,1136.0024195304531531292,498.071277899016251922149,-94.0552454240761051096342,582.772162717830951805809,143.682276133512630167388,154.727189219680582255023
43.3425000000000011368684,0.968761704032181647505695,-0.393061461870110595562267,-0.463128441399227264163585,-0.0174615636092787900046641,-0.0876162225889186574434575,0.0231761576445159017678677,-0.00181315920997254863104853,-6.81889810424754651664928e-05,-0.409959641777446204269353,0.912104673905520857424278,0.0874559760768576638367833,-0.00499721979230221234613563,10.383870225358140970684,0.00360228211776867464008478,-0.000552723521739276538178309,0.0112490835427294447179669,5.96374292681441886543325,1.69427069289838261312298,4.03499743755349360441187,1129.70584576396026932343,1183.44127073715253573027,1173.57381529568010591902,1136.17250344333092471061,784.785601030884890860762,-209.430570893172841806518,608.822583370610004749324,2.83804031119219679624166,154.72660482111774626901
43.3449999999999988631316,1.05195867061883885362761,-0.125008667041803217534479,-0.402708320313557521785697,-0.0147888208788424704159814,-0.0892411638211132451914409,0.0221353779786793887496277,-0.00192134538793019000839368,-0.000242350392028041114987624,-0.409906124892364720491145,0.912129221172914395054931,0.0904812083064332195458945,-0.00506109437023918341813644,10.3906795888246268333432,0.0037165965106808742865474,-0.00047111059143820012591608,0.0127608172695356791859211,5.96375861267598050829974,1.69424804909818993436943,4.0350403697556043169925,1131.93509514193124232406,1182.79910501739936989907,1175.12676009712913582916,1136.01660973200910120795,957.651922559863464812224,-296.99456769215697704567,629.462952937588738677732,-139.410813311243686030139,154.726207056292992092494
43.3475000000000036948222,1.09311732550393969631841,0.254151853300692787129833,-0.320663430347678857224025,-0.0117665949520369961245336,-0.0898562199432897806827825,0.0211720336340785256212804,-0.00206731117866387412163043,-0.000430837728669151217176375,-0.409841698773252105514331,0.912157077815664685260799,0.0934076776185383123030093,-0.00612808743428416326237684,10.3958674957139400873984,0.0037989702393554352494176,-0.000383497585641163986260732,0.0142749414322463144544351,5.96377933360840550847115,1.69422766241454136881828,4.03508928244751619018871,1134.49410537676203603041,1181.95629789869099113275,1176.72113006036965998646,1135.47544937677434973011,1125.02093766330949620169,-386.17436290868022297218,692.227769431984256698343,-321.16359734965897132497,154.72603218537065572491
43.3500000000000014210855,1.09915426815116390457661,0.804754734408629435193916,-0.203078296980595179865858,-0.00843239908435920726414992,-0.0890781584914467489122458,0.0203320905700068964294669,-0.00223661131960994387368746,-0.000620654975583501567620859,-0.409777807586632292213835,0.912183223740292925540984,0.0959480139620951244516789,-0.00805858191931794511086995,10.3994588430638579268361,0.00384639514847952019432897,-0.000294872835454731605474288,0.0157884156088995662725605,5.96380201383093222489151,1.69421129359625521892951,4.03513944843372218684863,1137.56019983025066721893,1180.86823320285498084559,1178.58789894429082778515,1134.41079174525998496392,1079.12662747888066405721,-382.181523499077400174428,656.553237907707170961658,-452.594428427303341777588,154.726077109371715323505
43.3524999999999991473487,1.07609726589707044297484,1.30936837894335300624959,-0.0946269391549007243824576,-0.006210708867568586095953,-0.0869515437915678868208147,0.0199492844372079897174999,-0.00241475809273998011372786,-0.000803954780755117303682467,-0.409719328442198438278155,0.912205415216291282121119,0.0979175807274557663539838,-0.0106584652109551498294637,10.4014864803773328105763,0.00385865484804401737833901,-0.000209403520738301424878453,0.0173002117963645014875329,5.96382298276270539361121,1.69419865464641850039129,4.03518666439762263564717,1139.88973851415153148992,1180.04539028119734211941,1180.00389624990521042491,1133.21247723463989132142,851.323470630014639937144,-271.539129603340597896022,509.750163760794066547533,-531.529711234271417197306,154.726324637745477730277
43.3550000000000039790393,1.03145235566433624008198,1.81319939223934367689139,0.0174645298295203095506611,-0.00436057695198942014275234,-0.083171997376609518859425,0.0199022223872495178376152,-0.00259390150660980794289356,-0.000973664353114457115437319,-0.409668124742540440408334,0.912222674316189530152599,0.0992043819868501375314196,-0.0138432639875927642608699,10.401989244969207959457,0.00383794293768064450483868,-0.000130312432898499648559199,0.0188106411063742248734876,5.96384032222262483458053,1.69418862477603671123916,4.03523087756621023913794,1141.81681718340291809,1179.51053755483758322953,1181.13664976309610210592,1131.75314318908726818336,739.10744565435766162409,-126.396834511778166643126,404.519631001651248425333,-682.247753371135559063987,154.726787488905927148153
43.3575000000000017053026,0.950591309653016636183054,2.35729030952862084191679,0.148042274143660168572723,-0.00185289416658298926841864,-0.0767042831759960214155214,0.0202377106582402183088121,-0.00276405334023333568507774,-0.00111624226510853206094376,-0.409622853227214089866237,0.912235397187347585301609,0.0995528486059872874669452,-0.0175339186572233060590342,10.4010117891792344124724,0.00378788825625649226008784,-5.97578574545531176934014e-05,0.020320449231040975390794,5.96385334223404406372993,1.69418026916093800160468,4.03527387546650473382215,1143.58527574242521041015,1179.41340610863812798925,1182.02649440491450150148,1129.80123846778246843314,558.406638745790019129345,73.9858757838410241447491,234.901877266324760284988,-730.867995201634471413854,154.727588527178909316717
43.3599999999999994315658,0.85198635335876016227985,2.71948406363680250663606,0.248464182267138705695331,0.000554654293967869380620195,-0.0695996005974837683716316,0.0208513273036853748199082,-0.00290080423713386841358397,-0.00121400860906955209914115,-0.409581670967463451482615,0.912244309486665239106173,0.098500258733066531346978,-0.0214043969684815926779464,10.3986051702073254432435,0.00371268973632118580094352,1.47213168909524538732064e-06,0.0218299415712989927640386,5.96386284733798355262024,1.69417350030840707653113,4.03531817375110790635517,1144.60885037712932899012,1179.88046693375645190827,1182.3111591494266576774,1128.09880321308241946099,326.71777003949159734475,298.973958245216465456906,15.3501715304095025516062,-671.685714067891353806772,154.728458269382002754355
43.3625000000000042632564,0.710509556202766345833766,2.9506608887919321126958,0.336053229214563820015371,0.00310476257326880705073036,-0.0613046400957092674222082,0.0217846925554798682977964,-0.00297838733112738233282935,-0.00125662422273663319620407,-0.409539578679684490580826,0.912251687161033553152834,0.095703721620596537977832,-0.0250329117648653773353651,10.3948253609977356859417,0.00361713408786123189267436,5.3474210034416071223376e-05,0.0233382688566491219850363,5.96386894981037141150182,1.69416811026891522828919,4.03536573458617642273794,1145.21886459262350399513,1180.90827589986497514474,1182.10324526256658828061,1126.44280989744129328756,188.222170088232928719663,481.868002130548973127588,-158.983699090650191010354,-634.50109325889854972047,154.729535094247637516673
43.3650000000000019895197,0.531178223248128245082,3.06190439994805752021989,0.412247805824923652107117,0.00556159260083232548366183,-0.0528263716323338905489493,0.0228748799999302747376628,-0.00298238997676788901436407,-0.00124715616834048556409165,-0.409496034897040561695292,0.912258094887019699292807,0.0911622489293563986745284,-0.0280923422166178687886529,10.3897322169948633785452,0.00350669904847641543052528,9.66286689295433459667706e-05,0.0248431103219339741161598,5.96387140684329697393196,1.69416542561811511724557,4.03541791237534752667671,1145.54996122757097509748,1182.28980694441042942344,1181.51624065397300000768,1124.92629774678630383278,82.4967101893730614392553,588.95420247576021210989,-311.28920952961499324374,-548.95366289492721989518,154.730781768078173854519
43.3674999999999997157829,0.315931902999977476387272,3.03596048600418599860973,0.47694375586229698082974,0.00732561095781871386006801,-0.0446635244329436770227559,0.023827502696117715957902,-0.00291884350719845897179083,-0.00119918789216071357446591,-0.409452473426134666567577,0.912263655918017279944365,0.0852380463816324734915852,-0.0305480693009774137425261,10.3833897056819104420811,0.00338728333672743461141286,0.000130774881700170155082383,0.0263406973679874562010994,5.96386915128003103347964,1.6941661528414231341344,4.03547448411931597433977,1145.63134814356999413576,1183.85304691224109774339,1180.54679921491992899973,1123.69804158296915375104,-3.13041624340542545823496,653.452162340093764214544,-488.895214007278696044523,-447.652357061676980265474,154.732231269728231382032
43.3699999999999974420462,0.0454162183051375067943667,2.87637716356266581740897,0.544463093760715222124702,0.00805935874193637602491691,-0.0355928392140277410904403,0.0244790937731110061492679,-0.00280647389467919778152649,-0.00112992869928901849656266,-0.409409316708284620744962,0.912269619466165249122014,0.0784590281754980745088091,-0.0325697846590265807642517,10.3758684974739843198677,0.00326423734477364422407186,0.000155007545998130525765485,0.027826008888831153809118,5.9638629835405883028443,1.69416960752168743731261,4.03553521592211161816977,1145.53430914635396220547,1185.55706775610792647058,1179.07176458393882967357,1122.68803596147995449428,-60.2042188653432575051738,545.508908740924312041898,-569.296999769748936159885,-280.410984167967626490281,154.734202941687158272543
43.3725000000000022737368,-0.162126366438294283733867,2.66783998722195470065799,0.588803956704543440814348,0.00776721183508585766297472,-0.0289688168541787950671651,0.0248841315877325226779693,-0.00267033423201288710319146,-0.00105884327589164228128338,-0.409363647577023814783104,0.912279590817514862699511,0.0714386250210182482955901,-0.0344222224341956054005642,10.3672482619722217123126,0.00314157282121662337695533,0.000167635083436494817989842,0.0292929091164334798325086,5.96385617217613628326944,1.69417373388553471613704,4.0356007046603243892946,1145.3303270492431238381,1186.58059145594711480953,1177.70031421606972799054,1122.29598666212859825464,-106.296158513660159883329,291.672298235140203814808,-544.286207689805337395228,-59.1600894752598094328278,154.736038189564197864456
43.375,-0.317666441218401762736079,2.42197426105576774091332,0.602775365038143107199176,0.00691575171294884442213524,-0.0234167824025441097257616,0.0259466837323627484701571,-0.00254686315352136653095139,-0.0010047864522785721497905,-0.409316795614849626705478,0.91229636603912500625313,0.0648656390732833681989078,-0.0365850082637634715920782,10.3576181183814739483751,0.00302164782901899030970183,0.000165725864101837802155187,0.0307343103728010512420976,5.96385290732007078418064,1.69417629090328070162741,4.03567334204721372969971,1145.00282835378538948135,1187.01542924728437355952,1176.35033354548841089127,1122.39223551410350410151,-179.158246185788044613219,59.5122253522363422462149,-544.836331373785355935979,144.291644383014755703698,154.738071575525225398451
43.3774999999999977262632,-0.410023297339886405588061,2.1254870595824435497434,0.549856401390704352394323,0.00510556464957953072547614,-0.0177191283670986021725469,0.0285135793410754637133842,-0.0024591375276063224750156,-0.000974138806882258317942913,-0.40927503021800776261685,0.912320199876379689385431,0.0590717528960978607854848,-0.0393854869719339056866048,10.3470783069560088307526,0.00290407877325301677987057,0.000146211011382153832117992,0.0321426490661576233498486,5.9638539578255507223048,1.69417686374772169521918,4.03575411080105528327522,1144.43453581831499832333,1186.87815258270802587504,1174.97613255920327901549,1123.017444884043015918,-242.456610252760242474324,-128.762410248716662408697,-432.198783879773031912919,295.434221223498582276079,154.74073949324190380139
43.3800000000000025579538,-0.389702324413226997013027,1.89897965816219449486368,0.425206534508866862420717,0.00306616195191079582080262,-0.0133919303901799350425827,0.0314591769068523208208177,-0.00241813438094920594295667,-0.00096501439589061427729022,-0.409243751275428779834442,0.912345703188231826885612,0.0541249511733152693926385,-0.0429882812225413010742692,10.3357382909802346659944,0.00278637806292758452922365,0.000106248362400310962603417,0.0335104277572725248179886,5.96385811254426023708675,1.69417545392893398314982,4.03584265405260556036637,1143.79054530252096810727,1186.37161719604046083987,1174.18933962608844012721,1123.86940662022175274615,-292.135984468346293851937,-227.860622247018767438931,-213.52121460115986906203,376.343584263657533028891,154.743151963184089936476
43.3825000000000002842171,-0.260395020682701150427363,1.70953027710322991161718,0.21149641670923333136578,0.00116888738786544979161852,-0.00930317465209209645826682,0.0343034431895664349010389,-0.00243062062658509249468697,-0.000972261695854135144130581,-0.409220046316981778122823,0.912370463584346591545682,0.0499923640696784341019843,-0.0475025726670237555260279,10.3237140327847249920978,0.00266497065907541534970915,4.31496461007405390092329e-05,0.0348308331439407189988877,5.96386479301434224709055,1.69417194729230757843652,4.0359387918233782244215,1142.97385589597251964733,1185.73884947147234925069,1173.90852648619693354703,1124.89916280536226622644,-346.760805302298422247986,-232.344786024425360437817,-20.6307561048748802079444,411.828257249782666349347,154.745760106105535669485
43.3849999999999980104803,-0.0485433091182896139792469,1.55782387858658055712624,-0.0559237688208096758724075,-0.000165126612113201330341375,-0.00564159678845220762671842,0.0361130475147982132888558,-0.00249660127210976027362088,-0.000990078757053509212956999,-0.409197944257158496839111,0.912394662644001597229249,0.0465697277024980579862579,-0.0529135077734398037718755,10.311125898827913971445,0.00253581922680354678381609,-4.51419064142873029035069e-05,0.0360983797907123149517616,5.96387502204636188452014,1.69416632755273210975133,4.0360415700738911937151,1142.05674127601105283247,1185.20989326591939061473,1174.08618584556415953557,1125.92854790646879337146,-372.261235322449124396371,-152.854151664008924171867,172.972603433438678166567,376.867400423032449907623,154.748529889441925888605
43.3875000000000028421709,0.237694388131212019921179,1.45640788613746652302439,-0.335892927825378051487348,-0.000435055571612597588408711,-0.00258530851092018737133471,0.0355084096942721652578889,-0.00260641663879987569782393,-0.0010106760213837188630559,-0.409172392841440191180169,0.912419092789686025923857,0.0436330908448470597416069,-0.0590415466543397285392736,10.2980960238837848663707,0.0023948119675197840697245,-0.000159611553360460359241024,0.0373095066484931126016278,5.96388919644015924603764,1.69415931370111749743046,4.03615006005980081482676,1141.11254971935932189808,1184.97457871315191368922,1174.77338950336456946388,1126.78349980747839254036,-395.256938118862024111877,-23.6600552989208985366076,387.323586518397974032268,302.131199845625872058008,154.751493673550299945418
43.3900000000000005684342,0.621003381164106138534464,1.39087821148344570332256,-0.606598937218733591514308,0.000678481140038822427840159,0.000551874968593496690628941,0.0318930763729382421578507,-0.00274168029288908345758591,-0.00103465998647245802956329,-0.40914739665949512170684,0.912441197793558811390824,0.0410434743508128890843167,-0.0654764646023444640832167,10.2847461870921677018487,0.00223909447652201939321648,-0.000299495347245967648459886,0.0384629908813363396991036,5.9639072684780094490975,1.69415163396359580438855,4.03626224657193244382825,1140.08045658541573175171,1185.09159298942472560157,1176.02280377815714018652,1127.43920390569769551803,-348.591039991832587929821,96.724171964794294353851,493.239551147228894478758,167.228433781217262321661,154.755273080775054950209
43.3924999999999982946974,0.93565467411036529199464,1.37235553429456658136587,-0.733958034345135512666047,0.00250677690111278644174986,0.0030089752963726457135607,0.0277628898345896636679075,-0.00287481669839717828701664,-0.0010627703664730879778294,-0.409132815583501951994805,0.912456322813496423229651,0.0385871351787982277969924,-0.0716417926731098830828159,10.2711942312406101507349,0.00206709022585177884523411,-0.000462054565739734076496026,0.039560254398937469422215,5.963927359931600946652,1.6941445185021901664868,4.03637642933734230865639,1139.36959451940174403717,1185.45819957297544533503,1177.23958725909847089497,1127.61964197638371842913,-252.847629143532486750701,170.339076746044327137497,474.0856695393479753875,-0.96109910900800910038555,154.758607092152772111149
43.395000000000003126388,1.19944428148426807112514,1.36482940392309037846985,-0.74471148473135606593587,0.00503338991607053636012648,0.00604744117218737001900886,0.0242074342693295099793183,-0.00298081974382971700773814,-0.00108895711294450616736518,-0.409132914276972514677766,0.912462686659815669365514,0.0359428688823307251887229,-0.0770752354835887165673824,10.2575483282125183848166,0.00187870609251925241127423,-0.000643306265647037526372864,0.0406053651922984246147585,5.96394682422349653450055,1.69413866474976493314841,4.0364909178607817352713,1138.81621843969742258196,1185.94328837315538294206,1178.3932321258550928178,1127.43439841015265301394,-225.945767062442342876238,194.926953651375100662335,437.018536099416621709679,-148.669657745555355177203,154.762130932913123615435
43.3975000000000008526513,1.40354186816171866425407,1.32671835722932796031159,-0.651521602219257367494265,0.00950181855175032466509499,0.0108348478380860518272,0.0215593651487904630625891,-0.00305234419439406792079472,-0.0011100307971567021075171,-0.409145186701323271272202,0.912461684164807773633754,0.0329881668119683321704905,-0.0816307040173835929408597,10.2439021488830590556063,0.00167655006245859988268931,-0.000838713905297137213290526,0.0416046991555912154536756,5.96396094427071332688683,1.69413446134752265770373,4.03660332030804092084963,1138.23986568408895436733,1186.43283434123281949724,1179.42467993959667182935,1126.87629368765556137078,-217.883061315949703384831,132.218694844989130388058,283.758903205429078298039,-244.962871469620012021551,154.766576740137821843746
43.3999999999999985789145,1.44453740277374609313199,1.24414652440953887868602,-0.522765159028513393124626,0.014652971546628363111453,0.0154390773117126008789901,0.0208519698181557633365202,-0.00309655552059749953827672,-0.00112703562236682970285062,-0.409166763107176478797555,0.912454916971880636289427,0.0297972637250597596758617,-0.0854078506728926656332845,10.2303326020571692112071,0.00146562601303112461162415,-0.00104316158912341316183925,0.0425663808182573932814563,5.96396616159634707088344,1.69413215903998515265982,4.03671111729930132128175,1137.72680313311866484582,1186.60438184737972733274,1179.81202664188094786368,1126.20958405280566694273,-235.669942899783052325802,-8.93276798614804157239178,24.5368758470578534058859,-291.227076898563780105178,154.770460697659046900299
43.4025000000000034106051,1.32903371780108847666213,1.0966566250081579703135,-0.383668458808176793262135,0.0203327525707858308701148,0.0197893624153044449254235,0.0211453686836363050072229,-0.00312792299617861875582481,-0.00114167547825176087482324,-0.409186400993427124017643,0.912447734686493872047208,0.0265115204006112145651564,-0.0886456710232408073846244,10.2168991443723662371212,0.00125202252529283070484056,-0.00125118402790930726385665,0.0434993879413130349331773,5.96396034589827372940363,1.6941315404980383796385,4.03681137985940097223647,1137.06151596958943628124,1186.38817050130205643654,1179.54736431883202385507,1125.42015830316199753725,-300.767625948429497384495,-160.245135526802073400177,-228.062760517533860138428,-324.956071436615445691132,154.774527904005054779191
43.4050000000000011368684,1.09246947951267059373492,0.905767522782551459670231,-0.255095123983039795412253,0.0249150782088844828521257,0.0234331507117692405817166,0.0215151477355186304674106,-0.00315350173692435353095531,-0.00115741323286936434802663,-0.409197618744731428375161,0.912443348257902964171251,0.0232394371950154984829418,-0.0914398249468539175977,10.2036464965109523461706,0.00104138747302091362600951,-0.00145658678032877485220009,0.0444123006778635934233002,5.96394448042749658611683,1.69413281114204883337493,4.03690378734782306935358,1136.22296500337574798323,1185.80315616974530712469,1178.6717128392926952074,1124.58480369562175837927,-372.094871577084745695174,-315.80054601214743570381,-498.76242466884718851361,-332.684890217099280107504,154.778744591585251555443
43.4074999999999988631316,0.750573764666296994185757,0.696526029179446615202664,-0.143157676350769258455387,0.0269962118004652869285298,0.0257565871144222607869168,0.0215381936505338496268269,-0.00317683365747147873625611,-0.00117977467722998885513164,-0.409192968971044290782402,0.912445363053431046651554,0.0200957260760977959868079,-0.0938121171813559168173313,10.190605703676634874455,0.000837899103829574300877914,-0.00165361776070891558498843,0.0453118145360347224226416,5.96392168593439198076567,1.69413505078114656754451,4.03699171340716045364161,1135.20104161170570478134,1184.809167771242755407,1177.05355219549005596491,1123.7567338520780140243,-463.175010995827904025646,-498.23030611084482188744,-861.431843525238491565688,-345.642242663193940188648,154.78313786439099430936
43.4100000000000036948222,0.284044457284246321115972,0.483346675840181649874694,-0.0178179515179250416712087,0.0271545832618312193984522,0.0267275815504502793629182,0.0211274173516063160094269,-0.00320453151415637073687326,-0.00121035454600166127517302,-0.409168142974464410510649,0.912455923545104186089816,0.0171477664351315992052882,-0.0958821197768289085194837,10.1777946211292125155978,0.00064312999635244508939147,-0.00183844149720616112896054,0.04620149647388148428373,5.96389796992250964535742,1.69413539429006743119999,4.03708218424664444512473,1133.90708994839542356203,1183.3120046391898085858,1174.36455362166429949866,1122.85659248230490447895,-453.552891659633019116882,-561.068149070192134786339,-1077.1122316479650180554,-301.754460854026774541126,154.78860832118215284936
43.4125000000000014210855,-0.112619899269055967483411,0.379240838283387116103285,0.0890656398270693733243419,0.0262232835530971757076468,0.0262347761932327748490845,0.0205326493645978311319844,-0.00324151610299876430723587,-0.00123568254118113190868911,-0.409122721712289361128967,0.912475436431731345976459,0.0141725107605584488279504,-0.0978687396090730243880529,10.1652197559029016105114,0.000454627725844728434231173,-0.00200963226801109283090052,0.0470813070830905094910079,5.96387681269207092782381,1.69413266197229295251248,4.03718074722074060645127,1132.93327715340637951158,1182.00382702589035943674,1171.66799103724747510569,1122.24796154780710821797,-328.656411434648077829479,-483.317113229062044865714,-1117.67275088010842409858,-201.856737877143899595467,154.793327729131391379269
43.4149999999999991473487,-0.490767632925037500246646,0.383377534056802082851334,0.203267277306228039135405,0.0247908503430454424387719,0.0251164801603935075591245,0.0199983888968717285483656,-0.0032831877372839924494885,-0.00124055605328417446232836,-0.409057514910378672290392,0.91250374267728984190029,0.0108423177533137835015786,-0.0998307266918008195943912,10.1528829519446723850251,0.000267032876821467755109468,-0.00216712784236273384858018,0.0479480403015588932391644,5.96385962159818650007992,1.69412675973604209822554,4.0372898978821538662487,1132.26380789122367787058,1180.89541907304669621226,1168.77618986726884031668,1121.84730879292010286008,-195.20905422977210719182,-390.204479198501303471858,-1245.42918814440736241522,-122.525397865939410735336,154.798207481878478120052
43.4175000000000039790393,-0.911970113865655740426064,0.512669708435472881724593,0.337711189129547117993013,0.0227620279042653646250916,0.0243014199129205250848873,0.0201345936598177482901306,-0.00332487185026494273115683,-0.00122475734128827860001942,-0.408973141658011685173335,0.912540694913397287812984,0.00711518754119645768785318,-0.101700698684129439697266,10.1407860328335939215094,7.46506662584056222744383e-05,-0.00231221561511258484264419,0.0487963602902912463310514,5.96384836532401418907057,1.69411823726997901040647,4.03740988951993795552653,1131.95723188225701960619,1180.05280462989685474895,1165.44084509652225278842,1121.63533455847709774389,-27.7148108542263891251878,-207.732478587952897441937,-1152.97124253438732921495,-35.8373550316899525114422,154.804240053217341710479
43.4200000000000017053026,-1.23255532899135511470945,0.696638117165747083880945,0.429206947655127291074706,0.020729037600520486273048,0.0247849945701277170340138,0.0214464873880553415219641,-0.00336586877887104724341172,-0.00120242506213507228257642,-0.408874591209801185875961,0.912584105776106047080987,0.0032573789723107648974576,-0.103364237202078476651756,10.1289328598055732300054,-0.000127375439215224783764263,-0.0024475340128182619843511,0.0496200834653064623558372,5.96384444359634624532873,1.69410794141478859842209,4.03753827903606232752054,1132.12523383695247503056,1179.85675668010640038119,1163.01133365459395463404,1121.66812201776156143751,132.012299988065933575854,22.3970602085704726391668,-859.083932454003956991073,46.241893305929117730102,154.809407697012147764326
43.4224999999999994315658,-1.51347826162297094398923,0.904504750826342296399218,0.476230006173794184753945,0.0178893285950512993809358,0.0267611356795776599015735,0.0237334039036662530763877,-0.00339580286036622732911971,-0.00118500545340554427203861,-0.40877373735605859739195,0.912628702468744945619505,-0.000584930007390328798866364,-0.104547726265572155091022,10.1173299839787258491697,-0.000344070509125175101258765,-0.00257595068263708057085259,0.0504133537706174320036645,5.96384600181203872182323,1.69409722541858975830564,4.0376723342961930995898,1132.61729338219674900756,1180.16478993093960525584,1161.14542543425613985164,1121.86654402500653304742,217.577676755561356003454,182.72841644534057081728,-639.137853392176566558192,96.8208839897629616189079,154.814712272924509761651
43.4250000000000042632564,-1.74922722476397307644902,1.08452732263809092927431,0.478640838384065736565987,0.0140538957361293626036058,0.0298015149450132667274804,0.0260895296880820776186383,-0.00340902481917405809561106,-0.00117530727917438001205175,-0.408677907751973545913415,0.912671222340750820656297,-0.0043781452847000135175648,-0.105130453586200697801978,10.105983096102670870664,-0.000579865044180180935762259,-0.00270146023058353591805858,0.0511713362294019119547173,5.96384979650136237694369,1.69408791756955712237698,4.03780992397905080792953,1133.21312222073083830765,1180.77039876233357063029,1159.81564438763143698452,1122.1522264377106239408,213.870011148701166803221,266.876645143884047683969,-405.003425358401898392913,125.677383320389083110058,154.82012337550284541976
43.4275000000000019895197,-1.91168927804397714709239,1.17889964555824056091637,0.436128761759565830580243,0.00917037580880910273284368,0.0338347276990259016038465,0.0279100389682465227503272,-0.00340534831671232812028149,-0.00117171525632346054321409,-0.408592911951311088536443,0.912709062050337305294079,-0.00811753157535831382229929,-0.105122141653762407598194,10.0948968973215951194788,-0.000837776207328935740813181,-0.00282860339505255735381706,0.0518906339866885973899358,5.96385319072472075419,1.6940813723750969277404,4.03794960884857534466619,1133.68664343794080195948,1181.49917315665970818372,1159.12040830746309438837,1122.4949309416087999125,119.691371920016251806373,283.369346751927309924213,-180.925206783950613953493,160.70806948233504840573,154.825654014493295562716
43.4299999999999997157829,-2.0024302036413570426987,1.14648967886171737617929,0.363169754420918367010529,0.00288193766894690936442025,0.0393601396096167274740729,0.0292496016215045631647662,-0.00339340401160051485796032,-0.00116738295544297973616032,-0.40851747705006935529326,0.912742757342168142820071,-0.0118172228503639481500542,-0.104729370103372881883885,10.0840729628949183904751,-0.00111941534280088871022851,-0.00296249432222988858323665,0.0525694218355991990665466,5.96385415916532846125619,1.69407767029352962495636,4.03809063784075839009802,1133.81157908033037529094,1182.18724549609191853961,1158.91101835371250672324,1122.95576678512156831857,-59.9251089760490884827959,183.46578601229654736926,2.51246795833368441464017,182.569366550462802933907,154.832416886515318310558
43.4324999999999974420462,-1.98419211150235130780572,0.986329517581196024700319,0.312294709336814191313891,-0.00237791918392953006630708,0.0437970595133376286445248,0.0297407247347758786626404,-0.00338879471517784108813842,-0.00115026746614425943310289,-0.408453094227765933776908,0.912771587557485664099488,-0.0155247950439660470367542,-0.104323024333891900550242,10.0735082471193830855327,-0.00142534462349762705568601,-0.00310853481909381841596929,0.0532074427091393936661845,5.96385279940888857197479,1.6940761326288309440713,4.03823273002952731758342,1133.38701789306082901021,1182.41650208672035660129,1159.13297064725475138403,1123.40777777436028372904,-294.815268200849629920413,-0.46993342566541801419433,135.809556371917636852231,206.089504655286930301372,154.83814845458206832518
43.4350000000000022737368,-1.86885435187002935109035,0.70495821515666334811101,0.303899792410147029375622,-0.00763151160265506355029341,0.0470135872039045277226421,0.0298003327098766181146861,-0.00340761042255541832593502,-0.00110767783447998993673345,-0.408395414616516794215073,0.912797444361495902143133,-0.0192948625307276799834,-0.104280574355473859560206,10.0631951396692045364034,-0.00175536542828928754898798,-0.00327152768547437624788166,0.053805971284155845735242,5.96385096947222947960654,1.69407606968530788371652,4.03837550067038897338989,1132.33750273932537311339,1182.18489582896359024744,1159.5900661355724423629,1123.98621430839853019279,-591.728207404518911971536,-199.627581789570939463374,213.695084271493925598406,292.464734591554133658065,154.843967941693733791908
43.4375,-1.63068924096785705657453,0.279516876793578283866282,0.369620345793852722593442,-0.0135521122533659096887071,0.0489226016899837468088208,0.0296857657676959166281883,-0.00345260122394778785209768,-0.00103597011015447645898568,-0.408337371412229255263071,0.91282346494860211461031,-0.0231262186280252884928998,-0.104655326162095718700584,10.0531238482312819115805,-0.0021083868355027072377661,-0.00345376116194521815688789,0.0543678076940670995664817,5.96384990883523968818736,1.69407706026974547164343,4.03851775922703915000511,1130.42837685603672071011,1181.41836417777199130796,1160.2014460686127677036,1124.87010144731880245672,-778.297010798158453326323,-339.76356624874802037084,208.190781894662165996124,353.251568550879937902209,154.851038854609271311347
43.4399999999999977262632,-1.36810592893544047399246,-0.0985432664329151247750715,0.495882120562948891517863,-0.0175932457047097701163807,0.0488460168834278229965662,0.0296892600784534506364043,-0.00352626462829839408888444,-0.000936038804041380606731082,-0.408271924376393202660296,0.912852769998559243624925,-0.0269389854842676662594059,-0.105458137129718715341298,10.0432775479805940221922,-0.00248228143529619863644209,-0.00365623963270902182370881,0.0548969807481916038938152,5.96384928875840891748794,1.6940783761752633562736,4.038657960677155323026,1128.44601768533811991801,1180.48607799772139514971,1160.63102004504480646574,1125.75247215115132348728,-822.501228523139957360399,-398.239715264186088461429,133.424734800905696374684,367.243170094064623754093,154.856993494264628452584
43.4425000000000025579538,-1.07142214913835287504185,-0.441511748985054408578321,0.690165578178536742726124,-0.0204003797465131947452832,0.047179419477721279418958,0.0301376497494455775072453,-0.00361673001507147257385655,-0.000812090876013754712353654,-0.408201992948318714837797,0.912884066334504140627359,-0.0307130937684998023273764,-0.106414442620447274867601,10.03363289306136962864,-0.00287443807619252233651053,-0.00387715780888552453281592,0.0553984280559875544303061,5.96384974628037500821165,1.6940797417148976133916,4.03879680097245064018807,1126.31587071341891714837,1179.42716560145004223159,1160.8685697426176375302,1126.70631729779006491299,-833.216469650625526810472,-419.261926419552935385582,55.9079978653413078859558,373.675979637564353197376,154.862999987296944937043
43.4450000000000002842171,-0.773167930386705726242269,-0.718858487680531066388312,0.923541758626138187260324,-0.0222297459780070906509852,0.0444430307190378445780787,0.0312348736380846127291822,-0.00369581071202439246509153,-0.000671008401189265683839391,-0.408135252413419080674828,0.912913979621225446514643,-0.034518318437895226247214,-0.106937109434918353745303,10.0241593931103807335603,-0.00328179655812740932521732,-0.00411148060564715984999129,0.0558775833050505904564531,5.96384899678340119066888,1.69408307390598800168391,4.0389351775231361330043,1124.27993533708286122419,1178.38976836562255812169,1160.91056003437165600189,1127.62085204934010107536,-743.620948661867828377581,-388.471678561416865704814,-29.1715347729943204058145,329.750543330037316991366,154.869040614710598902093
43.4474999999999980104803,-0.501505905981760258249835,-0.891029183694961979256277,1.16945848347597314287327,-0.0229927332529601992361368,0.0410195719591846530427404,0.0334212569681012830469236,-0.00374199470222849215825245,-0.000522768774423667073082689,-0.408075623959636923920868,0.912940775683762528736054,-0.0383212851783592406418322,-0.106545597605325753631789,10.0148160414585802868714,-0.00369983729084394103586719,-0.00435301765844793488863251,0.0563399479163720698360329,5.96384487269487273408686,1.6940888221240923972033,4.03907294001496275370755,1122.59776597011295962147,1177.48480720864472459652,1160.7227120687527985865,1128.35507001443875196856,-612.784090586005959266913,-356.431491048305815638741,-126.717199011981136891336,253.484213749568340290352,154.875112633764018710281
43.4500000000000028421709,-0.231288181677599374852505,-0.970652885818945154738913,1.42375308620502361023341,-0.022940104573919959524142,0.0368913606405323751813441,0.0374473029287901715278508,-0.00374227294827322864989583,-0.000378972747514273776772709,-0.40802112624232811377567,0.912965315479701611245389,-0.0419993169096313928578823,-0.104912793845337512510518,10.0055511956930871519944,-0.00412295683817348514871304,-0.00459464790186272717398275,0.0567908079834494525228727,5.96383585065028309912805,1.69409588777291397754254,4.03921051664830166316733,1121.21601488415126368636,1176.60761091038011727505,1160.27697403931142616784,1128.88827311808859121811,-384.353533963834536280046,-289.374224604841629115981,-192.65738404882688428188,125.980793606940224549362,154.882423914135188169894
43.4525000000000005684342,-0.0591036608304857935536347,-0.946224803544120418585806,1.56063936877839970485127,-0.0224662100330473291087685,0.0339139848089316728318998,0.0416567830134003183606417,-0.00369193373351617889349674,-0.000252534095448957607733115,-0.407970081162661313278761,0.91298829762000843768277,-0.0453473172123141365918997,-0.101866752161497264861367,9.99630379326551299357106,-0.00454490374188841212560463,-0.00482858907819903523939153,0.0572349886936998342168437,5.96382070520931506507623,1.69410259413323283084196,4.03934739172806800411308,1120.67599830029280383314,1176.03793608561977634963,1159.75942514850817133265,1128.98497398247377532243,-94.1636227689233749060804,-203.677576262047011823597,-232.067322680570271131728,-36.390091813278914401053,154.888529853895164478672
43.4549999999999982946974,0.0651340776604197035926092,-0.861253563445242509288846,1.5782930493481672762357,-0.0220100066788290367469916,0.0318287737513540808231838,0.0459902868117205917974921,-0.0035898024105575159457826,-0.000148132410354901843541758,-0.407924361314192740479712,0.913008880775170283961018,-0.0482902300662628042315916,-0.0973832912761443403315553,9.98700325571049773998311,-0.00496042856948128094152217,-0.00504688173910499207619473,0.0576764900162669152949846,5.96379941780799516237721,1.69410946423261998816656,4.03948300884561284362917,1120.74519677030707498488,1175.58922302907080847945,1159.11663742590963011025,1128.70632265902236213151,134.59686903895479304083,-178.281382240265628524867,-312.500670314260958093655,-203.50657314832963606932,154.89464150343212622829
43.457500000000003126388,0.180416164884952628932879,-0.734635445604407077979658,1.42649793412135461601054,-0.0216597702011835299695797,0.0302599704823344056725531,0.0510094667894524789186761,-0.00344166254038828691580454,-6.68682946999356488245944e-05,-0.407885317950973436129658,0.913026434080213111776914,-0.0507697565029178593531967,-0.091609168428739395917404,9.97757322508799049387562,-0.00536515969028333958995569,-0.00524212988128543253690816,0.0581181536687659858197996,5.96377233667778927639347,1.69411605762869821312222,4.03961673309781765794924,1121.34898264548792212736,1175.14652917441799218068,1158.1969217969360670395,1127.96744111673160659848,264.918452390475977153983,-147.941184575817516133611,-365.953959693428373611823,-331.790508814186409836111,154.901973983297068571119
43.4600000000000008526513,0.267079513637571763773337,-0.636732201289077148764761,1.13809101410593971337448,-0.0214379779642830253783004,0.0294461015681307114455478,0.0552103559271624952375923,-0.00326024389110453815740498,-1.50080942062484363336283e-05,-0.407855820662006485211037,0.913039611682786245161481,-0.0525835367520935126339765,-0.0847899542258831739882652,9.96793792333203043654066,-0.00575507368522310599340264,-0.00540775458587139292582213,0.0585613692196165283587739,5.96374090525160927001025,1.69412060739781855644992,4.03974986206997588311651,1122.06978903226013244421,1174.84951710619134246372,1157.28686762744155203109,1127.04737011495058141008,271.308025110303162819037,-101.918708612767588306269,-398.403575316522960747534,-424.059918435226848032471,154.908077972354618623285
43.4624999999999985789145,0.363595794885289036457721,-0.567938075712811629713883,0.674402802870244455490933,-0.0211281046425331082982968,0.0287513077977656489325753,0.0595289691461998310417769,-0.00306376280406346580484356,-5.21644446374642975868723e-07,-0.407833373182553193814215,0.913049459236290772423672,-0.0534600633409486325486881,-0.0772675391443573972294345,9.9580255510493991266685,-0.00612720099815355131317451,-0.00553856236184975276454212,0.0590057220118466521641132,5.96370684057412159262412,1.69412127101023779474076,4.03988554128969390433213,1122.70552277103820415505,1174.63693563135461772617,1156.20490392035526383552,1125.8471415245574007713,193.717429932795340619123,-70.4383096619588968678727,-460.282148157685753631085,-522.675815605049137957394,154.914169819108138881347
43.4650000000000034106051,0.47821091608040067200136,-0.529014698261569882298261,0.0798938920406495611814535,-0.0206828450206395508814694,0.0279114139321693793815982,0.0635114207843097550165723,-0.00287139200746085740748037,-2.44626355869109630969665e-05,-0.407813286736587232717,0.913058078053083699288095,-0.0532498298460695324019198,-0.0694653979380588232350746,9.94777041776784010096435,-0.0064806177990235280458875,-0.0056313396653747587253247,0.0594488632162383998092103,5.96367225820343627162856,1.69411801051976529386422,4.04002561454553621445029,1123.03837618192460467981,1174.49732555788136778574,1154.98545688665194575151,1124.43399103692399876309,14.634928924526109383919,-42.6867154955070802202499,-509.557648051862429383618,-612.829550485917252444779,154.92024765955065390699
43.4675000000000011368684,0.618899900732853058826777,-0.523765662423823274984613,-0.615120572250053676555126,-0.0199123620489481539808096,0.0267623728439653693622624,0.0654650186596648780978924,-0.00270230406403242952306787,-7.39405790148875364988651e-05,-0.407787735867805201106506,0.913069059034146257580744,-0.0520582045477734900451594,-0.0619238667938063133688864,9.93711510107541329261949,-0.00681690572376929346948282,-0.00568559362206258380595392,0.0598867006547140479089109,5.96363863120296411324261,1.69411269763625793594031,4.04017003747602831964514,1122.77869741566087213869,1174.42350205387697315018,1153.65711568009464826901,1122.78299377212624676758,-285.052787324898474707879,-29.4149723172990107400437,-580.237911695194497951888,-774.156784929822720187076,154.926303817276647123435
43.4699999999999988631316,0.812477490912079214346875,-0.548117346848944420045768,-1.43643995809649971384658,-0.0183110874800408648943595,0.0251657165959225589957349,0.0627854477160440099803296,-0.00257397726353579547886596,-0.000130088739725171896165906,-0.407757272764613376558884,0.913082337637941110486395,-0.0501103996560074288479925,-0.0552031213823388697270467,9.92601652867687889170156,-0.00713880207893027515786422,-0.00570341736190737441658527,0.0603139714742155011450997,5.96360607665302122626372,1.69410737142831480106508,4.04031635893086171762434,1121.61311224530140862043,1174.35025069629500649171,1152.08426732817861193325,1120.56320711227840547508,-572.325323525299722859927,-34.1510061554625181656775,-543.276365782907646462263,-844.160985706844371634361,154.933539863918269929854
43.4725000000000036948222,0.983849372579503778091237,-0.587599484401162164282084,-1.99570973225554593177833,-0.0162216889427920368804692,0.0238071872509732218592404,0.0558570480673786298742023,-0.00249802378359874344138092,-0.000184855088121551740546963,-0.407721597736332153072425,0.913098275956015004162225,-0.0474805648708984534556166,-0.0496643947540721317213119,9.91445325560053269953187,-0.00744833835095253839198026,-0.00568806670327202078263351,0.0607248704295528518581904,5.96357349345180587363302,1.69410334837875331537305,4.04046314948083118423483,1119.91707079803290980635,1174.25274702309957319812,1150.9407338511787202151,1118.56218884358986542793,-806.461321264392950070032,-53.4044782117871008608745,-383.815383670420601447404,-814.246700858204349060543,154.939539124182630303039
43.4750000000000014210855,1.149593290585719795871,-0.640026387981215805211832,-2.31085223347586588005242,-0.0133531241177546750042993,0.0224173569161044729247667,0.0463808909516759335089908,-0.00248290215975857132824078,-0.000234785239482894719613426,-0.407678349953850716058668,0.91311814256912404719202,-0.0441822618960627661044427,-0.0455653049981292815329148,9.9024250651463923134088,-0.00774727276207923688106094,-0.00564437110196269568873628,0.06111301693273071128365,5.96354065177937364694571,1.69410173133552044433259,4.04061070892373397356323,1117.58080563897738102241,1174.08322830523593438556,1150.16519040982552724017,1116.49197360798530098691,-1125.05158479491456091637,-88.8075127540458311159455,-219.680859029740247478912,-901.104550058699828696263,154.945500753302155771962
43.4774999999999991473487,1.32607901890730150995523,-0.709031649541088104804487,-2.34996053919702374557232,-0.00942572651460965929559599,0.020739896949143063475951,0.0354638664367257425147351,-0.0025280095142030767178809,-0.000285196453259937271734054,-0.407628357459259293982257,0.913141845795759965476179,-0.0401400318127103500343011,-0.0429170760662149694542045,9.88995491789856551179128,-0.00803691077904873998893898,-0.00557771097170262075692904,0.061471555602451599664704,5.96351056213609620471061,1.69410301972938248660228,4.04076128430735437291332,1114.29181287406345290947,1173.80870945932974791504,1149.84232955603101800079,1114.05666609330046412651,-1239.50637728030665130063,-105.10820356152260046656,-4.94798642266434107739315,-865.506589003201156629075,154.952604417826648841583
43.4800000000000039790393,1.44721849573778249542499,-0.763023980586912675683209,-2.11351508591659120739337,-0.00598095953685385747777836,0.019225364566781574793275,0.0279073419843602725520793,-0.00261596220953726719959942,-0.000338996418500451732452178,-0.407576602435261670098754,0.913167532416823690688545,-0.0354536377507681660370409,-0.0414332492793658066498885,9.87708659156145785118497,-0.00831976911100815869071212,-0.00549327478506812186959118,0.0617931069915045386164998,5.96348471471606877969407,1.69410698385635183349507,4.04091494682557605955253,1111.38327375257267704001,1173.55768728742805251386,1150.14045047771219287824,1112.1644406629670811526,-1136.62496991238253940537,-94.8192714791245379046813,227.353694323230342888564,-708.890806731734528511879,154.95847712578049026888
43.4825000000000017053026,1.5365217835807720714314,-0.799300262451656640116937,-1.66159523312204560063776,-0.00260031336303706214763132,0.0173511727028442599984892,0.0224274884093641178883782,-0.00271339944961031644468652,-0.000388616628116042462075946,-0.407530878118215422745152,0.913192153167790121592873,-0.0305360512896617752875983,-0.0406075878144394955548968,9.86388301008839007977258,-0.00860036356373039198586206,-0.00539587520611463193620505,0.0620698655869460561018691,5.96346258800193229632214,1.69411276669789701010416,4.04107156669939016069293,1108.60868802449863324,1173.33461310193388271728,1150.97909802764775122341,1110.51221205963997817889,-1042.46426664025648278766,-79.8923663581080205631224,399.117051936990833382879,-611.473449328297192550963,154.96429463514328972451
43.4849999999999994315658,1.59561440641596719025586,-0.808683661402991194044887,-1.09960054078086710838136,0.000752714053331383285520839,0.0150749148771750097336453,0.0187944803583423580839451,-0.00279562252441967629829067,-0.000418432938784814095149051,-0.407491569081936066965,0.913215911236214594737248,-0.0258711585179799835598757,-0.0401351447727869847792448,9.85042580022300384712253,-0.00888358024743468761841303,-0.0052917836351673939315754,0.0622938927798376701483463,5.96344386507202983693787,1.69411978751430059020322,4.04123250974302994364962,1106.1709524193761353672,1173.15822545563787571155,1152.13603573739533203479,1109.1070734163283759699,-847.465977186423742750776,-60.3824495302124262252619,490.366228220249638525274,-499.03392231064509587668,154.970061178183186711976
43.4875000000000042632564,1.60922886727455782818197,-0.773645632328765486818156,-0.497407232182382141871813,0.00440307256629569356010112,0.0125077491852241817760216,0.0173688362540149951462887,-0.00285054251162171912864496,-0.000418190460385389078685342,-0.407463010815476756043552,0.913237112426592223535238,-0.021740495922603103595705,-0.039876256206683967364679,9.8368158289262392912633,-0.00917249289924068969548365,-0.00518821806897300837752018,0.0624578669810181424937312,5.96342776194468449091346,1.6941278406137401102427,4.04139906855893205062102,1104.37135813856434651825,1173.03270085428266611416,1153.43092916875025366608,1108.01704244808547628054,-604.928735687971993684187,-53.7552931810021306091585,528.90869221983166426071,-414.246500114465561637189,154.97575936441344879313
43.4900000000000019895197,1.55586155999449804454571,-0.675328716317713961814206,0.155082666205822616856125,0.00938252401551387289757589,0.00953878907850823007374963,0.0181283531138874340338241,-0.00287278142091825080747802,-0.000390554823875746475944637,-0.407446744026443763431189,0.913255088329535502644774,-0.0181382354571595627579228,-0.0396878785683215315471806,9.82317092994592222510164,-0.00946755807804446070097271,-0.00509176777697548793577553,0.0625559619320069509873505,5.9634126875158735003879,1.69413749062920437893354,4.04157096831047546459104,1103.14630874093472812092,1172.88944898973272756848,1154.78057919849584322947,1107.03584091575498860038,-284.388911453365267334448,-63.2353351039121065468862,411.747195482950473888195,-319.412938251179582493933,154.982508429167239683011
43.4924999999999997157829,1.44198117093304900571127,-0.552898790093666714362541,0.56576321380281724415795,0.013773426759097701435608,0.00740084185896036032131784,0.0205551050427635710604601,-0.00286540880534808060225993,-0.000349940759054657101433106,-0.407442513570325126615046,0.913269604706614446243407,-0.0147818784085429755226215,-0.0394656502345515983187774,9.80962063160839292663695,-0.00976647878713850399468033,-0.00500838446335081545479628,0.0625846078448584891562589,5.96339650071323568170101,1.69414892138001715871098,4.04174563817004894872298,1102.94941358129881336936,1172.71652417876339313807,1155.4896651461631336133,1106.41997775683103100164,78.8059432835132724903815,-95.913383039984097422348,155.5590786885709917442,-229.346277908443283877205,154.988050973308133961837
43.4949999999999974420462,1.25218453400893325877519,-0.407679537981019080028489,0.771885830030290764902645,0.0177199130718685773921983,0.00617389266862529515617064,0.024477283113031066130727,-0.00284188350626548387120596,-0.00030244144239165534531269,-0.407444874567959969269282,0.913282221172695751754134,-0.0114597979779758191165584,-0.0393400464304100930257313,9.79629694040890797168686,-0.0100665037732462821912227,-0.00494443268116638752485148,0.0625426553870260804046666,5.9633779798411135075753,1.69416147225823965349889,4.04192043159924097039948,1103.54033845735193608562,1172.4098820745332432125,1155.55837459193799077184,1105.88910952621381511563,401.459344141016288176615,-180.070667465314471655802,-135.060657171401572895775,-245.07766743423613320374,154.993498789418453043254
43.4975000000000022737368,0.94821953720115881303343,-0.23717593557765909162427,0.747510039017398431049344,0.021319502984694264219323,0.00582293443229820947837361,0.0303139322269699584833091,-0.00281536462368523919194696,-0.00025368081556721971264734,-0.4074543204457368728022,0.913291211614113640493429,-0.0079766086938964780861383,-0.0394262467465723159820712,9.78333073014731269267941,-0.0103641885912147384968263,-0.00490535356727326080084062,0.0624317572488187894075296,5.96335763616513325757751,1.694175925632173118629,4.04209133870270864719032,1104.9567103020049216866,1171.81617084143636020599,1154.81436186030578028294,1105.19458941965922349482,596.966308111963599003502,-259.437339680293064247962,-399.677751467084078740299,-280.901378333775937790051,154.999914132168669311795
43.5,0.647563654712138947466826,-0.117335176711413136096951,0.512782360299683825921591,0.023293681122379273490397,0.00594386871768116508557567,0.0351157462515478899223176,-0.00279356405037682305539382,-0.00020946038765274648169902,-0.407469991808687315160142,0.913294583965108874856753,-0.00418442904566679318989486,-0.0397292511642993659282119,9.77084644031493709803726,-0.0106559582183505599517481,-0.00489496337811439700266058,0.0622561115400196291025381,5.96333565540086318890189,1.69419316674822439949821,4.04225636548427047500809,1106.52516999791328089486,1171.11269537613111424434,1153.55998583460154804925,1104.48460263454421692586,654.797996496158475565608,-319.945995188181711910147,-595.127222919650307630945,-317.031806198717333700188,155.005148775665503535492
43.5024999999999977262632,0.320143298012512289574261,-0.0344770326858101217037955,0.122525439673028924136844,0.0242122923145865892591289,0.00602217637710669630862759,0.0375949931347219490351819,-0.00278700760464940713173609,-0.000173807615709630468043417,-0.407488997454416190802107,0.913290155569864037232719,4.71441446622603010929708e-05,-0.0403113475243552094040567,9.75895603156037338976603,-0.0109382473539099377146666,-0.00491643693807149520513811,0.0620217490759372019892837,5.96331357466629619068499,1.6942128033950027976573,4.0424164559723942957703,1108.23070028448273660615,1170.21644086549690655374,1151.83872574571023505996,1103.60943038866707865964,665.77258906888846468064,-380.696957568430548235483,-724.240696743702415005828,-370.641694601355538907228,155.01025580745519505399
43.5050000000000025579538,-0.0137205063804471307647992,0.0126261270949851733824687,-0.313859169806597226859424,0.0241716350428036741426752,0.00590250418238807885579211,0.0367126390042241887434749,-0.0027958078247921585961222,-0.000154266823024782484411258,-0.407504698679832522145716,0.913278239348611742265405,0.00481924834088288261968458,-0.0410183644403292121949356,9.74775569943567710140542,-0.0112078631786777845741332,-0.00497030156105645985753494,0.0617359268666136315473203,5.9632927377416411474087,1.69423431871597984788025,4.04257326617979639848954,1109.8540329432594262471,1169.2092105882879877754,1149.9387823508811834472,1102.6313941615364910831,588.072335377382160004345,-414.358267325830581739865,-748.825513394311883530463,-398.590648589948443714093,155.015248730630474938152
43.5075000000000002842171,-0.341374273368348246648907,0.0116612877112193050188615,-0.698105778191164594304041,0.023209072455050099026419,0.00565785307942831983823995,0.0326363839409473527330974,-0.00281876608957361057469782,-0.000145642832445003119487895,-0.407511222033125841690548,0.913264491780983234114899,0.00998663778104721955308776,-0.0417768483694119438509595,9.73731910014611479198265,-0.0114634089066928436528858,-0.00505606833398943369961565,0.061406203642836006129091,5.96327424232734504272457,1.69425627935636069487657,4.04273022666558112803159,1111.17106196137115148304,1168.1446495288666937995,1148.09459817873676001909,1101.61647714571631695435,469.185379254594579379045,-463.632195062121923001541,-739.444127013475281273713,-429.64440475418962250842,155.020095174393787829104
43.5099999999999980104803,-0.718747520768987069317291,-0.0553390373303598859244801,-0.997480872823267361582111,0.0215284477063274332087062,0.00577644145138863415039898,0.0266641302387029544007646,-0.00285350531520673928592702,-0.000138861848480335061404092,-0.407506028362040195744953,0.913253389134538684501763,0.0153176794033633434377606,-0.0425313981766713491983189,9.72769600333595363395034,-0.0117040490731041019883962,-0.00517158423928488174270424,0.0610404927339755695725465,5.96325805610399850564818,1.69427719079913097210977,4.0428884612812439058871,1112.19995983953026552626,1166.8910496129794864828,1146.24156171581716989749,1100.48317213776749667886,269.582050102415792025567,-446.524507827324498521193,-591.199325527320524997776,-386.235486457583419905859,155.025731545963395774379
43.5125000000000028421709,-1.01824391985223838830166,-0.174595558816077550678969,-1.07911639738533948751353,0.0198581283186213299052358,0.00649846635891818732305714,0.021914416885000471274525,-0.0028938863541511927746086,-0.000131339854018498915092308,-0.407483203870719790096189,0.913249872270219920089573,0.0206578806114603441557165,-0.0431203312511558647934784,9.71891184665844676260349,-0.0119281896373064529026653,-0.00531183472853105024397147,0.0606475166618579419886004,5.96324223404400033388129,1.69429616180910591616282,4.04304771027201947930507,1112.51897221188391995383,1165.91202698972892903839,1145.13860155109864535916,1099.6852997134274119162,13.0146876301229710293228,-372.717463461677084524126,-335.676443738576551822916,-278.557092913154804136866,155.030272775724483835802
43.5150000000000005684342,-1.29787949898839460871613,-0.360447909401291677333745,-0.991224977809127327788019,0.0178653351488522876833187,0.00750896552768241451469855,0.0179117169706373771664865,-0.00293755653300665185712059,-0.000134239585579098015229518,-0.407444574598449127389443,0.913254547354377499424061,0.0261190813416689385229041,-0.0433580379420127545730956,9.71096661346332012954008,-0.0121318284686521057208486,-0.00546970167885333074381249,0.0602372872187218466599745,5.96322431345410297609533,1.69431346274015015573866,4.04320495270778401675216,1112.26503327768091367034,1165.02746229567014779605,1144.56317949712342851853,1099.09038667320101012592,-230.381121744885945190617,-368.82404498616671162381,-135.650078832291598018855,-213.595115781948692301739,155.034646050992165555726
43.5174999999999982946974,-1.59281913268878527745187,-0.633363623333041747542893,-0.735777890168843984319835,0.0146379403589582211125952,0.00762313702578625018713154,0.0145526474584277386303821,-0.00298246640377965209836586,-0.000159406140078068053094265,-0.40739983046300032309972,0.913263878303690046500662,0.0318201434389128179347495,-0.0430795312410408096082115,9.7038329519090140706794,-0.0123100301722539034326998,-0.00563648420456273457207486,0.0598208003154030582004808,5.96320035813551552195122,1.69433084714361403833038,4.04335535152740366271473,1111.36706660316053785209,1164.06790676479977264535,1144.46035115693780426227,1098.61732413451863976661,-409.591691455188652071229,-341.881535927093580085057,47.3028619336886464452618,-138.582802542598130912666,155.039693996226560557261
43.520000000000003126388,-1.78039982267298491080965,-0.86152680235357381732797,-0.447418719385098029306391,0.0107415768481109539372875,0.00571717096856465874926689,0.0135520760404288179851173,-0.00302511315561802525755941,-0.000209269011504417798332639,-0.40736162062370512293441,0.913272545910127964141623,0.0376952291879028289489639,-0.0421904944863437797453187,9.6974565160521422058082,-0.0124584053296409834332703,-0.00580255941958445365519426,0.0594092413922170589635208,5.96316837701530122473059,1.69434896719731042935564,4.0434973043261015490657,1110.21707482040392278577,1163.31805461603380535962,1144.79969380679199275619,1098.39747266048766505264,-514.410639997741441220569,-305.555366421120311315462,199.194873017666338910203,-64.6031652419548265697813,155.043730676274066127007
43.5225000000000008526513,-1.87079092570586902333218,-1.03210455603118456124889,-0.141671616820220253041285,0.00558091369431582082910603,0.00175626224558566245391444,0.0144914498650930249901148,-0.00306609702815877896084351,-0.000279645650993856935070947,-0.407333025061797859844859,0.913279153471972526823208,0.0435889712800239179091299,-0.0407433207228170349289975,9.69175879151420005541695,-0.0125733179255123738576883,-0.0059581674346299486749734,0.0590130668805494834616709,5.96312813608148317712221,1.69436800286165967222018,4.04363085037415181943743,1108.79501340317051472084,1162.54012993269338949176,1145.45632552202664555807,1098.29430830830870036152,-589.392919759201845408825,-332.254236985256511616171,289.633198666924386088795,-35.3488119674560508087779,155.047587917020365466669
43.5249999999999985789145,-1.85652577094075166286302,-1.12176070460154719832246,0.145410602482872630680788,-0.000109849423073839102984843,-0.00286525270012385558163204,0.0162589853513363004344772,-0.00310375610830987413990556,-0.000362625245667122053476461,-0.407313337140229214661247,0.913283766322743439936005,0.0492606085645136276829348,-0.038802044360451613813634,9.68664217525590842683414,-0.0126526676813290429174375,-0.00609348608503807852992962,0.0586409446762085478921378,5.96307950283457888218663,1.69438767482201257941199,4.04375667641039715505258,1107.27011022161059372593,1161.65678343110903369961,1146.24785980012529762462,1098.22072860065054555889,-605.1417887566091167173,-400.113420590764633288927,310.035088493964963163307,-39.4690619187511373411326,155.05129440550680897104
43.5275000000000034106051,-1.70215781782496256013815,-1.10191291833040727610182,0.395958840786081511797789,-0.00585206239409169666487731,-0.00703664309846120661351421,0.0181073297735286700693713,-0.00312855633712627850123722,-0.000449515003632841581016066,-0.407296800053239205219313,0.913288628903444865692052,0.0543953670395591545871916,-0.0363184750389822438854104,9.68199608180017179392962,-0.0126967406337171427599397,-0.00619866780899251245545711,0.0582987791970833654775497,5.96302394477374875236819,1.69440687131072964533018,4.04387810377352074908686,1105.76930445938592129096,1160.53956282973854285956,1147.00650096449726333958,1098.09696299871484370669,-621.708964793606583043584,-567.01117499094925733516,271.075029928349522378994,-83.1918171334138634165356,155.054816964405205226285
43.5300000000000011368684,-1.36403052418953851798733,-0.970487464331046156829075,0.664806360172031318711561,-0.012029087749030857243393,-0.010747393711278238614959,0.0197930214207379939761466,-0.0031390225621198029545833,-0.000536827122106653376563956,-0.407275272244880637284581,0.913296995280850287812768,0.0588401365270913856431179,-0.0333643076923800657729302,9.67770188073508563775249,-0.0127075189223274619132464,-0.00626614872278230365665319,0.0579890981159070090233953,5.96296445173716538334929,1.69442360198800767712157,4.04399788090822465136398,1104.16156539764097033185,1158.82172755615283676889,1147.60323494976773872622,1097.80476951498326343426,-539.71324049984082193987,-698.320755360417365409376,130.196982686930084582855,-137.400602677405373697184,155.058828879865188810072
43.5324999999999988631316,-0.982523989522248064609755,-0.800065975361596959380961,0.879303702984995161351378,-0.0158914263917357551081366,-0.0128115322170377632371441,0.0207098541896340582191272,-0.00313599171459607315229356,-0.000625023214995415400847822,-0.407245101203001724776698,0.913310124844878501448875,0.0625400522623899002283565,-0.0300353956195623592040356,9.67363961243356129671156,-0.0126893787542897498732408,-0.00629100356717394830485812,0.0577106699187765262437644,5.96290442888272842481001,1.69443655756061661854517,4.04411827596694628539353,1103.07073825688917168009,1157.04795905293963187432,1147.65748587793132173829,1097.40995998532844168949,-373.501616238754536425404,-771.77284158671307068289,-98.4436170740488023511716,-189.489266211233740477837,155.061991179691972320143
43.5350000000000036948222,-0.551285302616913552853362,-0.604950289114191797068543,1.09747091807440000366114,-0.0178373391754891863492105,-0.01401013854914545664343,0.0216746918880751163194454,-0.00312234016393477410017399,-0.000710052288315505012936124,-0.40719961973567292412568,0.913330670898235053023484,0.0653901011950463878497075,-0.0265081290949988404581639,9.66969418115964174376131,-0.0126499721107215298138149,-0.00627163817323010686077822,0.0574583075880128260615187,5.9628478733849439308301,1.69444533597150348569471,4.04424216293862137661108,1102.29405731644624211185,1154.96286334821729724354,1147.11101686439724289812,1096.85732318392660999962,-268.832894491150739213481,-962.405382991536157533119,-383.858228424091123542894,-272.788163270612642463675,155.064963838884466440504
43.5375000000000014210855,-0.0508591181110555901057069,-0.381117782728901455246984,1.35443211623441350788255,-0.0178687566455639039453285,-0.0146592078815092723143021,0.0236870901526604824005595,-0.00310286327105055393868471,-0.000787264952753830558364323,-0.407136501547071427697944,0.913359443643833368575713,0.067306886491268050343173,-0.0230010918626511948192892,9.66576164895947442801116,-0.0125991083285724413121098,-0.00621000988845819661132719,0.0572234059507416292778004,5.9627989361193156625518,1.69444995070223947131183,4.0443713571334223289,1101.72657378443273046287,1152.23593213797948919819,1145.73819473580988415051,1096.0460191689746807242,-154.403016976816076066825,-1011.1793989034241576519,-606.604635763648389001901,-314.195462478223078051087,155.068309905582822239012
43.5399999999999991473487,0.301429797488921180637078,-0.223690720551953159400682,1.5386870603461613171703,-0.0161874776195286528002182,-0.0144593925675954790288635,0.0264693859149491561577605,-0.00308610313922522442806051,-0.000851498894411799409770447,-0.407054559670548044003624,0.913396783373276788253747,0.0682463878457592321158387,-0.0198008421460123332225045,9.66175402768585023238757,-0.0125476829432117978346817,-0.00611153225697172886726749,0.0569947176432034421922346,5.96275928094916984889551,1.69445121049437297244822,4.04450742050698597296332,1101.52204223156286388985,1149.90696635370477451943,1144.07799368558175956423,1095.28634587153692336869,-41.4595990911281475632677,-910.138641415858728578314,-733.639039259094147382712,-309.943234839079821085761,155.070912784406573337037
43.5425000000000039790393,0.54430944857144525350634,-0.107554169763111925894883,1.64479996893538338298413,-0.0133075967554985019614122,-0.0138048673522786422007691,0.0306366527623831048920966,-0.00307512294719224695688231,-0.000887951602136248518970518,-0.406956891237387985427176,0.913441171880441049601984,0.0679711922788907851877838,-0.0171656870644463083186437,9.65760314907393180305917,-0.0125077685115806223198343,-0.00598408298797600043256173,0.0567591518949569148744239,5.96272823290764719672552,1.69445086894019780743292,4.04465170824636555124698,1101.51927578897698367655,1147.68523893089786724886,1142.06999953951253701234,1094.4963029947784889373,16.5605156804674003012678,-847.461485813549415979651,-825.72719083908441461972,-312.380388453197440412623,155.073321963539967782708
43.5450000000000017053026,0.685264758748530877774385,-0.021407083165922175665985,1.64802174804098622296067,-0.0102108339762019429547424,-0.0133913192993070865460803,0.0359368448546888777372921,-0.00306997987772692588689938,-0.000887496642056705207883549,-0.406849846073099874477208,0.913489660457421082107032,0.0663399115456378141164606,-0.0152445791923194687994547,9.6532620224490433002984,-0.0124897464534214457099193,-0.00583679202539909899177806,0.0565034482878958022045168,5.96270469812173153911772,1.69445175176221574098179,4.04480426592460240442506,1101.60484480996524325747,1145.66965892463485943154,1139.94935773138422518969,1093.72444392927013723238,32.2963306666518263909893,-732.156119457369754854881,-834.55540931944096882944,-294.789243573218129768065,155.075570357586315139997
43.5474999999999994315658,0.716135530268622311211857,0.0458926915947429139852609,1.49426718322993901111317,-0.00776824469495066439322928,-0.0135334073916009017812812,0.0421349024196268351349914,-0.0030772146273604639166166,-0.000854964174153976879354244,-0.406740433243991617029423,0.913538968147128982444372,0.0635257771822900496605513,-0.0141764750296507462817841,9.64870374903806293787056,-0.012500212126947738908167,-0.00567971115567917229222106,0.0562157225478452232669824,5.96268787745557915513928,1.6944556719231775865353,4.04496288293057215668114,1101.68075744231009593932,1144.02445833361434779363,1137.89722249291912703484,1093.02235677691373894049,-1.04056974428150605938015,-613.605938532787035910587,-846.800965320356795018597,-283.639921104386701244948,155.077625914734937850881
43.5500000000000042632564,0.664869453263596699166271,0.130051549044039593816535,1.12456790206323686831524,-0.0057470583727397793472047,-0.0140936551116084655965732,0.0490552084902299984081608,-0.00309440397120417255011349,-0.000803248700394084097324565,-0.40663818018709046997472,0.913584691733296594406966,0.0597882978288542810130224,-0.013862788792076018509758,9.64392032142473709654951,-0.0125427888522721842773366,-0.00552158734218088573242333,0.0558864849708257394045319,5.9626763739666115426985,1.69446328638164978031,4.04512483367890940400002,1101.59964196124383306596,1142.60162923196935480519,1135.7153529047802749119,1092.30624432374747811991,-79.9277471322557602206871,-417.955666773072948672052,-735.955703081377578200772,-239.39724668777247984508,155.0798726139028929083
43.5525000000000019895197,0.582373070709180096216073,0.215299826824163847982518,0.695587631255427218945897,-0.0047549829641896036377946,-0.0145276615094143621287337,0.052768733721967220340332,-0.00310164988225754192224803,-0.000744474309359400903893245,-0.406549562070478376352156,0.913623788266427760973443,0.0552474458916490732129922,-0.0138866137253169600468405,9.63891925280269923348442,-0.0126192530885821819347514,-0.00536831997435864224921254,0.0555092332484362280253798,5.96266809328125990674607,1.69447577307595320661449,4.04528818479688823117613,1101.28111870664861271507,1141.93467999974791382556,1134.2174439775103564898,1091.82537054347426419554,-196.814152959811337950669,-155.505072806686712283408,-525.593018739460262622742,-174.044455558372675341161,155.081564874546387500232
43.5549999999999997157829,0.494474906312434514532583,0.317959649128367716208743,0.215569212992375053294936,-0.00453462961281246579314796,-0.014370178642273240612881,0.0532044624176553349048646,-0.00308630353260672769463713,-0.000682373278540169343926725,-0.406480412497290333195821,0.913653426052160044790185,0.0499399748029371592927816,-0.0140090937469027638356822,9.63371709060271896873928,-0.012729195236995604137431,-0.00522509816047318775833475,0.0550807437289833057292299,5.9626579585921248849445,1.69449315630343178007422,4.04545041183091136360872,1100.61557119644567137584,1141.8241038679366283759,1133.08738781108536386455,1091.43602204595640614571,-375.823900644878278853867,65.8523094376649709147387,-416.452783676383148758759,-166.992570347217224480119,155.083075628372938581379
43.5574999999999974420462,0.407371671204565133361797,0.449082155705493701880471,-0.32394797701599797878913,-0.00459646514652889068286434,-0.0135623717633469517696021,0.0509253642166103831501189,-0.00304100028805820866290022,-0.000618479067650587075941071,-0.406431190484661031270264,0.913673053579855731776149,0.0439094520781132119369161,-0.0140870623224655672905969,9.62833402228522494681329,-0.0128699721296662971531388,-0.00509528704235200427530295,0.0546014239427547870553425,5.96264225260720692745053,1.69451393032994235277044,4.04560916352521893202265,1099.40199920342593031819,1142.26394154693593918637,1132.13518005913033448451,1090.99040769173893750121,-502.373183354136415346147,233.361973029894869569034,-290.20886518600195813633,-175.212365636845277094835,155.084686564502504779739
43.5600000000000022737368,0.352285854586948943278912,0.550853961730278118835713,-0.690571987084307559179308,-0.00418121268979263892989762,-0.0125994744683056176387526,0.0480354215258750882888705,-0.00296691767588614036324501,-0.000549829953902954506918255,-0.40639655345811620534846,0.913684663883990944022173,0.0371880717158588752768722,-0.0141498071422917013478804,9.62278778501660525535044,-0.0130375655188826201219543,-0.00498085005498661182593567,0.054075086897531800256278,5.96261943826562568204963,1.6945360412352132861713,4.04576269810161814888261,1098.10370527967370435363,1142.99091373308669972175,1131.63634348515461169882,1090.55996021777173154987,-550.165622151089792168932,326.656205379518951303908,-152.345864281746173674037,-199.72047363211245851744,155.085867565428884518042
