t,ang acc x,ang acc y,ang acc z,ang vel x,ang vel y,ang vel z,quat x,quat y,quat z,quat w,acc x,acc y,acc z,vel x,vel y,vel z,pos x,pos y,pos z,mot 1,mot 2,mot 3,mot 4,dmot 1,dmot 2,dmot 3,dmot 4,vbat
0.0025000000000000000520417,-0.0815239657764847969190214,-0.246298080869829849604002,-0.627653307989920361542602,-0.122723943920517053474128,0.0474577115534050159029178,0.0150756959962631640476127,-0.0133068169099153088552612,0.0104565757936780183434688,0.00857847990125564820174109,0.999819901720063519690029,0.0456965768854851947522455,-0.109065375758239366255076,10.7200084247233462519944,-0.110179067729577237488847,-0.079206888131389222018619,1.0509856375128545646902,7.64033561815187134413918,4.21420987168379035381349,0.370548790553857920748726,1174.71703265241058034007,1188.00006784701849937846,1173.82191153059829957783,1175.37828754250995189068,250.449086002026888309047,-568.362947790501493727788,762.273201202151540201157,811.246045600546494824812,157.427314289544199255033
0.00500000000000000010408341,0.264314160677589837789014,-0.119296755506334478669217,-0.567209592165818676789968,-0.123321923007310763065192,0.0471059023536429810619097,0.0117014137175339080765291,-0.0133868730480723834019852,0.010429454965488573967014,0.00856929656517186298658739,0.999819157348031617438266,0.0502793250663847654524652,-0.103979227638782839582277,10.725984801354638165094,-0.10959979033117400737396,-0.0789022280880717491458043,1.05326720605531143348799,7.6401217205419653666354,4.21408425188086255275266,0.37319369987302075664104,1175.34315536741564756085,1186.57916047754224564414,1175.72759453360367842834,1177.40640265651131812774,249.270857757119330244677,-541.964544907023196174123,603.225992446823624959507,815.905798449011967932165,157.422896787207292845778
0.00749999999999999972244424,0.572345412633123995505002,-0.0417716568584020550569669,-0.434841027892409470734236,-0.123623488972974801547444,0.0474904180259269684261092,0.00912503089060341839033885,-0.0134700769680266389805023,0.0104036673407331033136547,0.00856392396464006680489867,0.999818322980271401156926,0.0548228444188256433533546,-0.0989600144425858557761799,10.7319654465673117726965,-0.109021807342736837265207,-0.0786006705132430982807534,1.05555372415042825195997,7.63990947845508028279937,4.21395842984340429637768,0.375839061847287492224012,1175.96338694119617684919,1185.29024512248338396603,1176.8380414928324171342,1179.45781653475501116191,265.502499841932149138302,-503.132934968607514747418,348.626306318737988476641,877.102825432302779518068,157.419298395451193073313
0.0100000000000000002081668,0.895008963464070661508742,0.0079629864161508620568064,-0.235604583633084230243071,-0.122991092512590327601174,0.0482636020133758100736365,0.00744722569984762605699302,-0.0135574869474789569401274,0.0103782049950376150521114,0.00856254276197303092199586,0.999817391484261741574358,0.0593355232900437748466693,-0.094032438985921326657369,10.7379497276954865014886,-0.108441405000358023769103,-0.0783015859609612896452546,1.05784897986726544871772,7.63969922693740421948405,4.21383268100907049102943,0.378485805230904581719642,1176.67066786662530830654,1184.06349580269920807041,1177.47072606519736837072,1181.79191678367283202533,289.786391220559323755879,-457.935005559511296269193,184.142277384489688074609,954.105136065072429119027,157.415788179964863502391
0.0125000000000000006938894,1.21008828965938697308502,0.0444062987958241117691927,-0.00902615734496985122614632,-0.12082705279474421911079,0.0487781923408012185738869,0.00686203029356629006646484,-0.0136499044320400088337042,0.0103561505102877250000803,0.00856587265098268310636875,0.999816312416217045644373,0.0637312143873034475660688,-0.0892197355770084632453631,10.7439342289968529087218,-0.107863026934575598203558,-0.0780030659442285528859529,1.0601556283798703184118,7.63949107751230194196523,4.21370656590751391235017,0.381135684136170937996724,1177.41231889729897375219,1183.00057009468582691625,1177.75875287975486571668,1184.22834221508037444437,291.836693971617989973311,-364.656487672300556823757,53.95416810215466085765,957.493525098198119849258,157.412352641446886991616
0.0149999999999999994448885,1.48145281000318984609976,0.0858646800010593458374331,0.207899908000955563336376,-0.116469195816159540313173,0.0485366322540923891826203,0.00791661818780826226360503,-0.0137455530156506723626908,0.0103432311918451470128533,0.00857471808839802007717878,0.999815043516301349413311,0.0678596209083323631539031,-0.084495272067328458520663,10.749912386361044625005,-0.1072961095314306084747,-0.077697338419486505767253,1.06247535329754394517465,7.63928382779454029360977,4.21357948229402268225385,0.38379019126859376109806,1178.12985133648339797219,1182.24021336433770557051,1177.74049690570814163948,1186.57938440916382205614,294.469044862398675377335,-248.969874118711175015051,-40.2565647403207478305376,958.572199249920004149317,157.409009096150157347438
0.0175000000000000016653345,1.72153375134124075884756,0.168012248150840315386034,0.408580509958484161536774,-0.109791998465213411217967,0.0476529180968897764225645,0.0105429980107762683722017,-0.0138435598087586382576308,0.0103449735388924848183967,0.00859129531552083221257465,0.999813521871809163243938,0.0715665876188304461713585,-0.0798589967520207666407117,10.7558737953663854369779,-0.106749312465147155881695,-0.0773782529706399657687399,1.06480863849105511498294,7.63907601297820093577684,4.21345091861358511664548,0.386451237332435748594861,1178.88466412161096741329,1181.75572072409227075696,1177.557470056053261942,1189.02120321132997560198,253.628546830532229705568,-105.397895739179134011465,-62.105688984911452621418,796.829422072778356778144,157.40510631710839106745
0.0200000000000000004163336,1.84499696351446473840952,0.272671192338402923471818,0.506689485360709568340098,-0.104269841962585277372888,0.0470911545436817347010106,0.0129925468157642901023685,-0.0139416109491218680183078,0.0103667265285378000505556,0.00861293077588705553726545,0.999811748964563595798438,0.074692793040909893909074,-0.0752853262585413685048508,10.7618045237498591859548,-0.10622993902490758533208,-0.0770378951619485191626424,1.0671550767887871824513,7.63886658295206188995508,4.21332143300441419597746,0.389120242890803547108902,1179.39799407063605940493,1181.71322388564180982939,1177.42996846078358430532,1190.56353151952771440847,187.364236843495831408291,46.2123390369470357086357,-11.8832551862396993413995,486.413784629849260454648,157.401948159094985157935
0.0224999999999999991673327,1.9080194928647995489257,0.408170781758377620995759,0.533571848316942709544719,-0.0996687648385397861883206,0.0474574477192960392235577,0.0149572382936353064780688,-0.014033649058255404443174,0.0104067108404246929515002,0.00863461368602165373065116,0.999809871705253483398224,0.0772249475133628127121455,-0.0706750063674955741888084,10.7676867838411549627153,-0.105729745008211292733868,-0.0766616496945036335342039,1.06951537237379046274555,7.63865543091574750178552,4.21319272214229112449857,0.39179777089439304926799,1179.82148530582844614401,1181.98678241927700582892,1177.49805378012206347194,1191.45327213447922076739,190.327278993890985248072,167.496692626627890376767,97.9225504459918596467105,229.515213996046384181682,157.398892037375333075033
0.0250000000000000013877788,1.95045006011301746973174,0.582528152032648960378935,0.505925707389179413198121,-0.0953251860416536450637537,0.0489489521007708955346871,0.0163317603148798694279176,-0.0141131756008946399744142,0.010460439320856676492788,0.00865074347618625429101602,0.999808076419238522802857,0.0792020633093818982040091,-0.0659249252614332037492062,10.7734990775874077684193,-0.105235038268184824539198,-0.0762350051333138822862168,1.07189019904117976977886,7.63844233908433789537185,4.21306649968862956256999,0.394484132215771221563472,1180.34963046560551447328,1182.55070734877494942339,1177.91958121301354367461,1191.71110758950794661359,223.508830398713996601145,223.786390753184548429999,212.208222880508373009434,-32.8878981704747204162231,157.395348686267482207768
0.0275000000000000001387779,1.97873260014172624998707,0.717432517514707046579758,0.453610052388542073220634,-0.092169963883614799970978,0.0508849324216551698873978,0.0167812233892878533147996,-0.0141828256819297258278789,0.0105223778571651941510234,0.00866027238080213992987844,0.999806388422320280184863,0.0806813629937063181429835,-0.0611346919395742705027885,10.7792160774846657034232,-0.104731507558631420362616,-0.0757631540514539791875137,1.07427878526010966986348,7.63822835522743215364017,4.21294307158315284311811,0.397178901999022448965349,1180.93902945782201641123,1183.10571437304292885528,1178.55909489452460547909,1191.28883264362684712978,300.155629432856756011461,215.522770588677417435974,299.720079920143859908421,-272.451340582301895665296,157.392504321862617189254
0.029999999999999998889777,2.00303452986760888165918,0.821498916404033163729537,0.388687048585165728642465,-0.0885518332574893735076316,0.0534426520714322145222397,0.0171322460721292091356815,-0.0142442417985558858473105,0.0105884017663528014197016,0.00866116161447671659145975,0.999804840107731740417307,0.0816886024658900478101486,-0.0563851704002691633821343,10.7848096264282471423712,-0.104209094465326668199623,-0.0752502570833824963036918,1.07668037631741153603571,7.63801448626029877431165,4.21282256806922994485376,0.39988117637198833387302,1181.85040861276979740069,1183.62832120171833594213,1179.4181816126142621215,1190.3488508865964377037,505.266087099107494395867,203.575891148193448998427,398.739823081450538211357,-476.339252015895795011602,157.38977942893689032644
0.032500000000000001110223,2.00364227520815241234686,0.899335995485903261226213,0.302713045427006777199352,-0.0830988674747960565092342,0.0569485385423969675544598,0.0179615819197955113584175,-0.0142988542783989529272315,0.0106581947640142834371479,0.00865544612033508631299128,0.999803391507320227127309,0.0821704837575012447814515,-0.051754963831428607567986,10.7902487699210976046515,-0.103668145166577588267565,-0.0746999464904302135082048,1.07909393945195519748381,7.63780282489299988668563,4.21270508056668546714718,0.402590316376627788130804,1183.46535989331755445164,1184.12359382878389624238,1180.55279400993185845437,1188.90713638354736758629,688.842368568793403937889,153.800731760247657575746,412.670899110571212986542,-529.336443890269492840162,157.386656788729510481062
0.0350000000000000033306691,1.95321326069477829712184,0.927883912045720404826454,0.223641184545592647259227,-0.0777221375704775924164736,0.0597526740692995439463431,0.0187858941102381042653757,-0.014348665352562229441391,0.010732298414655002533058,0.00864607057586654244307756,0.999801978960751958069864,0.082060473581225895634006,-0.0473353535014377491130233,10.7954991819340282432904,-0.103112818329168437481158,-0.0741175027725067825379313,1.08151885644256529062091,7.63759484116592002322932,4.21259118045976332922464,0.405305370601310888112323,1185.29462045561376726255,1184.39732486051957494055,1181.48153610816711989173,1187.70216866714508796576,824.668299054747421905631,83.1902155417083548627488,353.237171968703648872179,-422.497808269872848541127,157.384184536187291314491
0.0374999999999999986122212,1.82105949182884785386705,0.934701110177705185577679,0.136514247588069292937973,-0.0721207158009652543606549,0.0619273236617624983635366,0.0194689562431580795442976,-0.0143976646138892667992071,0.0108122893750386070421676,0.00863498488705419751931824,0.999800509323178876464056,0.0812772346473542850464611,-0.043258799131087322109579,10.8005228696075459282611,-0.102551123508087552171908,-0.0735130711473838266423186,1.08395474844574035699907,7.6373915966461911608576,4.21248096279409445230613,0.408025401600805082136247,1187.58870138859128928743,1184.53954490649243780354,1182.31897986977537584607,1186.79464734219800448045,973.398874787381373607786,43.0157993910597937770035,317.977776070120114582096,-280.090948349379800674797,157.381855802957204559789
0.0400000000000000008326673,1.61026329489487807222758,0.93954576002192091710441,0.0451763019345664748604996,-0.0667306712243311977994509,0.0636227327152406041399502,0.0199499454693421417184052,-0.0144506487240896614593355,0.0108991388249525360254477,0.00862392108584572950058522,0.999798887636356492514267,0.0797632282381827428796583,-0.0396727786586701935966914,10.8052778264536186725309,-0.10199109536767871075913,-0.0728987869178472497333487,1.08640192863464246642025,7.63719370537523012387737,4.21237378242911741921262,0.410749692928658483026538,1190.16161482955067185685,1184.61240385747487380286,1183.07142498851771961199,1186.30171392539818953082,1053.53334805577014776645,26.3813154949729984366513,285.609722380422454079962,-81.2222172109158435659992,157.379652029649150790647
0.0425000000000000030531133,1.30966975509497451923835,0.957067580693760966425998,-0.0443076285233788558226564,-0.0618795508891525555816848,0.0651652770105237422182398,0.0201543435016020219818778,-0.0145120758044387700852473,0.0109909449469546248445706,0.00861551957325930838071937,0.999797048167645252547686,0.0775365742555897685672761,-0.0367146901645319656548594,10.809717792248115131315,-0.101435462143735985462989,-0.0722859371522597271564337,1.08886183368700439899612,7.63700138681620543934514,4.21226942907893953105258,0.413478207493670701921928,1192.85636812887014457374,1184.67145148396730292006,1183.74702848167748925334,1186.38853625614342490735,1145.17171989523444608494,40.5333948079260366625931,285.293494892767000692402,155.761944979894991547553,157.377605412790842365212
0.0449999999999999983346655,0.877785330829223831017316,0.999676631920381919549357,-0.136051755365800386421427,-0.0574507209724973988418384,0.0673302314830859505168092,0.0200496259795855183427626,-0.0145840282833262623735093,0.0110836314458601335741772,0.00861354596817125867103115,0.999794974516317158652612,0.0746780937152947132950942,-0.0344666922047478507806773,10.8137926057545854519049,-0.100882540293567996014801,-0.0716803189570644344597028,1.0913368975147104134038,7.63681436666118340639287,4.21216711389017284261627,0.416210921150814705526955,1195.88747342902684067667,1184.81507083151450387959,1184.4978924629815537628,1187.08052365029766406224,1025.94169060448666641605,72.8117510573156749842383,262.516190038786703553342,316.087288889093713351031,157.375338611631860885609
0.0475000000000000005551115,0.499933067405103293001645,1.04953126668033669410818,-0.187165092717929332222226,-0.0555287721916563961621627,0.0693748215598245510093989,0.0196357824362548422092445,-0.0146642719599963042287349,0.0111726874555865638566354,0.00862113733401457735250339,0.99979272355621218171251,0.0712943004222393039714945,-0.0329117981741264276074332,10.817449020055416752939,-0.100329217407058787769891,-0.0710781631942338371077383,1.09383017350365574493765,7.63663211658743268372973,4.2120660559868392525118,0.418948137826165301067505,1197.98607658189257563208,1185.03551023925388108182,1185.05960943187142220268,1187.96897270058889262145,698.671343736031644766626,107.737486921587233723585,195.822164990067733469914,362.719446906248435880116,157.3736120167224044053
0.0500000000000000027755576,0.16380274472978778588228,1.10232769693402943289584,-0.196475301734224866434531,-0.0554309481186565158883361,0.0717083246257431972114915,0.0188394078359919101006703,-0.0147512905299083032367724,0.0112536280823738957940217,0.00864032812869460452309678,0.999790351559742829223865,0.0675062443106257403790949,-0.0320416134470896118990879,10.820631958522580973181,-0.0997715258658459225316051,-0.0704772117386337493272208,1.09634422171901135811822,7.63645317742235274494078,4.21196600197925086206396,0.421689830609900950797453,1199.38083014770700174267,1185.35375826612244054559,1185.4770032879318932828,1188.89412088482890794694,416.256091252171472660848,145.639484814410110402605,120.51206157680104524843,353.773805901892217207205,157.372058953238592948765
0.0524999999999999980571097,-0.12565754798290765248403,1.14863112209411211139809,-0.145302754079501522666007,-0.0568039448696804061267329,0.0749772973264421216388342,0.0174675838132823946224903,-0.0148402149106097325931275,0.0113256224982126296046969,0.00867343805958331777461456,0.999787920335907354107974,0.0633714209897528746306961,-0.0317672449296271808272252,10.82328626491661793807,-0.0992123849362790688477531,-0.0698676095124893120624776,1.09888071328281577976327,7.63627666914634950501295,4.21186620484515028550732,0.424436444751605301828334,1200.06735703815343185852,1185.76370766332593120751,1185.6621697397554271447,1189.73784173009835285484,85.2840531510992576613717,135.315954909538106676337,-6.21349934399404713047943,237.913844250215447573282,157.370400702802555770177
0.0550000000000000002775558,-0.236822828022002912495836,1.15672370422198778072698,-0.0479531709247421264463718,-0.0589925218369207957080924,0.078110110233014048986,0.0161418049888718238837892,-0.0149289733425029737950984,0.0113917116950936394420557,0.00871989915646508191582331,0.999785431102962918181731,0.0588753617888407229652437,-0.0320505511091991046601635,10.8253586224940487880986,-0.0986617877869363640863654,-0.0692461506294979600717454,1.1014392768359619889651,7.63610177799558442757188,4.211766950688122790325,0.427188053245468379870431,1199.80725041346249781782,1186.03033804067013079475,1185.44593579121192306047,1190.08369010607998461637,-249.751948258699258076376,67.2400935464337976554816,-175.716098510838349966434,62.8215481492588310175051,157.369192932150070873831
0.0575000000000000024980018,-0.195639612701522885851446,1.11739491791240430629273,0.0943259096725024004381766,-0.0617273622815046607570366,0.0815991176169859194766687,0.0151560045397770518788017,-0.0150142883334324159921858,0.0114613338287864151288087,0.00877868850024509685125995,0.999782832924467568247451,0.0538767100399345014172248,-0.0328170522577627410409917,10.8267995874652935839322,-0.0981426675398636427782861,-0.068607263467175452764657,1.10401738819554906534393,7.63592758708869201456082,4.211669065346848483955,0.429945214560832511541122,1198.81859729685993443127,1186.09990813105810048,1184.78358924720123468433,1190.05194947084464729414,-542.790464601239591502235,-29.920446416372229236913,-379.219659839464100059558,-67.1419325725765077095275,157.368168853529624584553
0.059999999999999997779554,0.00829560052243732276577859,1.0093506205702229561183,0.281039024555333749599839,-0.063962551675871504031079,0.0855037186205890031853727,0.0154798225297562708213661,-0.015095862165579424993278,0.0115407755242118680027996,0.00884697355080897411550023,0.999780081158238353999934,0.0483106964488367665588875,-0.0340471487322209220849345,10.8275653089943926232763,-0.097669958040950966005056,-0.0679528617023209130509898,1.10661151480202546437681,7.6357536366305360786555,4.21157394478333912957169,0.432709780210550842838302,1197.09329809045630099718,1185.88073580858826971962,1183.54983749201460341283,1189.74798044321710221993,-669.466730626573166773596,-126.570718869879840440262,-492.514447071471522576758,-116.617432099883501450677,157.367155361276701341922
0.0625,0.264261446361389762405025,0.874765208934061733181409,0.415014000752110312486565,-0.0637381010616644289035193,0.0880303337574138700105664,0.0175333503596272165248049,-0.0151708843251415655128955,0.011634741277932694747399,0.00892294984136932090024175,0.999777178578639458272903,0.0421552009515802142414209,-0.0356571026943346414128655,10.8276198371659120311961,-0.0972544016260130650408655,-0.0672797320288092415285774,1.10921758293629668656877,7.63557976384555026072576,4.21148221201411221414901,0.435483332345629803317166,1195.4712636437270703027,1185.46705453670870156202,1182.32101701184387820831,1189.46886231034523007111,-629.649950779866571792809,-189.705569541865600058372,-475.059351311073953638697,-66.8719851905734117281099,157.366492264635070341683
0.065000000000000002220446,0.54471777179756175613079,0.709451240934753979416882,0.493724635360157593222397,-0.0609118133718177731661392,0.089713343879608303810258,0.0205324903703833876178475,-0.0152362773856630894647735,0.0117430857640401283686904,0.00899981979269099188756265,0.999774231314651373736524,0.0354970277945608550518308,-0.0375461849703339900496957,10.8269372955438711869647,-0.0968949179742038257945325,-0.0665854444975638726234024,1.11183150727598811791097,7.63540579445610223530139,4.21139453216852555073046,0.438265376353662083896978,1193.94504833655696529604,1184.93220796087894086668,1181.17454073545923165511,1189.41362051726423487708,-565.685142243773498194059,-207.139685996525997779827,-398.014199221415424290171,46.9832062646673449535228,157.366019627614150522277
0.0675000000000000044408921,0.806954354931342376922032,0.531037224661404905212692,0.521361240274474391220849,-0.0569325773074329175016395,0.0908549754306280793469952,0.0230341231099397830694997,-0.0152883326429422601588914,0.0118622736762134094873344,0.00907387283387171839077467,0.999771366523178328655774,0.0285011090182757872990571,-0.0395906689323159699522847,10.8255039205873409002834,-0.0965828169677882680810299,-0.0658659216240486261595422,1.114449277145742600581,7.6352324054896261174008,4.21131130786779372954243,0.441055621707543143994457,1192.642837932508200538,1184.43135610672607072047,1180.33094601573679938156,1189.70377834166856700904,-455.683655706752290370787,-158.539846861685731482794,-220.485262626516288264611,223.399032678525855999396,157.365706279376013299043
0.0700000000000000066613381,1.03235194947209563132162,0.34772344309432628994827,0.50493723035146009792129,-0.0531962937675013528004975,0.0915808322425563370305923,0.024401903571683807026016,-0.0153275244489315225215886,0.0119912182315334049642619,0.00914139534051658896041115,0.999768619353271215111079,0.0212801419468266403423051,-0.0417462058779312916723114,10.8233194618590857771778,-0.0963147429412511413282516,-0.0651263023358082393521329,1.11706548407527428423691,7.6350602465830998966112,4.21123198518347585661559,0.443854100848667665335512,1191.66663005802320185467,1184.13950872657051149872,1180.07211442232664921903,1190.53061568065686515183,-369.154619660458365615341,-47.9236851545466393531569,45.0108808002370039957896,494.970621225275863253046,157.365586384809176934141
0.0724999999999999950039964,1.27836139485028432716263,0.129742644942364065974161,0.469424020557380805573899,-0.0496838570015022198966825,0.0921432412536909162259491,0.0249589111606426522493862,-0.0153569679201039054061706,0.0121280064646077170853466,0.00920271729054732146035889,0.999765959071044374439907,0.0139652916888705971865114,-0.0440164036041674200383511,10.8203977901258916460847,-0.0960858673395940110495417,-0.0643767291244998901555974,1.11967446638312440043705,7.63488960291225460252917,4.21115581635492475243154,0.446660552801790178278907,1190.79706483420591212052,1184.19173768095333798556,1180.55600041973798397521,1192.17863144779494177783,-294.554979884924819089065,96.3097180936076284751834,299.89675003121249119431,701.581870203109701833455,157.36566760467661652001
0.0749999999999999972244424,1.48815025308497084211012,-0.0475008164936331911398781,0.448390494199195022151372,-0.0473587870005735336875752,0.0923148525488700077978876,0.0248691158757969148218603,-0.0153817022823922282259712,0.0122689932762735948862387,0.00925858116062234191845359,0.9997633448689957624822,0.00672296672414838397680015,-0.0464372395907020618643912,10.8167671005541894402313,-0.095887482590732542320211,-0.0636312467465878356387421,1.12227082470077421660903,7.63472048992066731898376,4.21108256090424237783054,0.449473531453661534484922,1190.19385515859858060139,1184.62105731703854871739,1181.57159817248270883283,1194.03852503167240683979,-251.850708210940638309694,247.020307229422314776457,494.32818862132944559562,814.195720946280971475062,157.365923682037902153752
0.0774999999999999994448885,1.7263551457270294164914,-0.217269890686262234780202,0.446282500177194341173248,-0.044987279327887541580111,0.0920616951420171192310704,0.0249520517296853844291249,-0.0154079047663192251343967,0.0124093020632200807390477,0.00931255475084814474118211,0.999760709589161189470019,-0.000256783854311402881531734,-0.0490615270658561752892268,10.8124695372429826534244,-0.0957082804888440275004058,-0.0629055570264530350410581,1.12484956251633771984189,7.63455313146991354500415,4.21101149675954200546357,0.452292533367143534395183,1189.53781129315120779211,1185.42683921710045069631,1183.02764136284463347693,1196.24961005252635004581,-329.377542736892507946322,419.667717927313390191557,676.78432340735469097126,1004.42398940981456689769,157.366376001734067813231
0.0800000000000000016653345,2.04676398163675044017396,-0.407571866036056107418517,0.454546838009801112967523,-0.0411509092351884653293581,0.0912706956338305980258596,0.0259351892008730725014409,-0.0154399711736801833333876,0.0125452272459568754670034,0.00936600540666810039980295,0.999758021327369350572667,-0.00681484670014850107966353,-0.051895614702746006852152,10.807560114628161684891,-0.0955391794140895977971439,-0.0622111833406785857958354,1.12740600280073666183966,7.63438732976051692702413,4.21094151049927312158161,0.455118557724831229727158,1188.54696744491411664058,1186.71939590667511765787,1184.95551978951948512986,1199.06064497872148422175,-399.56998962302316158457,505.901756180719075928209,685.957874597351633383369,1015.8677309151235022,157.36714611103056427055
0.0825000000000000038857806,2.3242495916973244796111,-0.55028670782186783760892,0.453640748612552047180912,-0.0368737447744940313731909,0.0902430335666328936605751,0.0274695371159475627831359,-0.0154744382104443321812592,0.0126740943822884651048799,0.00941511367180547682764757,0.999755403616880311545856,-0.0128210657721905332828705,-0.0547694793967195003858706,10.8021053364546357755671,-0.0953726312308800228123573,-0.0615422236583733489601045,1.12993659722265027411936,7.63422302848186440371592,4.21087261882873953311446,0.457953013556243071491281,1187.53996134503609027888,1187.95634799800404834969,1186.45743073583139448601,1201.32894870710197210428,-418.118183421438118330116,498.599608296899077686248,526.004019633864572824677,841.664882908661752480839,157.36797739928633177442
0.0850000000000000061062266,2.57232571216022920523869,-0.669379190049764760672701,0.426334862168775585722358,-0.031482190421257834345159,0.0887646396482798805127601,0.0292841555461932114001744,-0.0155046289799202034742631,0.0127957134494363702903463,0.00945741955216635940550951,0.999752986867372794854703,-0.0182058629218682585526601,-0.0574405261154010415847182,10.7961810490121568051336,-0.095206605016151080178588,-0.0608847212541112972616908,1.13243822173414110388023,7.63406073190456702093343,4.2108052654545407023079,0.460795227007704311095182,1186.4563765278069240594,1189.21239394815961532004,1187.58553988768881026772,1203.26896939326479696319,-415.571696186088615831977,484.156452631713818846038,361.989773252207328368968,686.824427763257858714496,157.369005242670652933157
0.0875000000000000083266727,2.75689499110170865847635,-0.76288289947471932261891,0.370841808825474184008186,-0.0250462027117093616324084,0.0868368189902748860431458,0.0310192352998079449999391,-0.0155254377236905740516937,0.0129114985362221313530684,0.00949235897507258799543628,0.999750841552656366317819,-0.022943393211311259582974,-0.0596993870156292127937547,10.7898698504363181882582,-0.0950427065701007767195563,-0.0602275177478131529262839,1.1349079926096719006523,7.63390116668571039326707,4.21073984765453879219876,0.463644405614513810398591,1185.46210286410564549442,1190.37713026116261971765,1188.26737960209243283316,1204.76307084591826424003,-336.098109194018149992189,421.653890473863498300489,152.551175866392725311016,457.813148320202287777647,157.370195739805922130472
0.0899999999999999966693309,2.8149849609730508426253,-0.820158296451983126473806,0.285443143205726168609715,-0.0171136129465854248954404,0.0844371312696913789430653,0.0323613407650792522796124,-0.0155371361380220902870253,0.0130242045555906665182944,0.00951984382505401127705369,0.999748934150330059722478,-0.0270484258311811873176644,-0.0614539633688878372819175,10.7832580050715272079742,-0.0948854029429275630524998,-0.0595712526275775089423803,1.13734306217755687384852,7.6337442813587861323299,4.21067689878681328252696,0.466501040162626168239512,1184.77588598183683643583,1191.3206634005289288325,1188.34829576702077247319,1205.55803513486580413883,-194.335127436170665760073,344.686940350130214483215,-92.1813832898807845595002,167.390734413766352872699,157.371581699157644607112
0.092499999999999998889777,2.68912776830990818410783,-0.847479162249859196975876,0.166441981279787015735039,-0.00619888736105801436276908,0.0815267053686047626914757,0.0330589597971393533981654,-0.0155413817752450920256502,0.0131333400912343016553319,0.00954146030793686684978727,0.999747235627887587128271,-0.0304775742953406411639428,-0.0626465554602575191989189,10.7764329677196251111582,-0.0947313879058070545946535,-0.0589192805863476831707004,1.13974217678771427841866,7.63358990060593711746151,4.21061682799622971629105,0.469364665558703375580762,1184.49042722692479401303,1192.10056496291326766368,1187.80647268564302976301,1205.6000245179870944412,-7.96249183617873512730512,223.022562269806968515695,-280.173281776523936059675,-132.423243222910855365626,157.373469604721520909152
0.095000000000000001110223,2.41205209915252583030565,-0.842730287480670248179138,0.0709891563864073621425987,0.00291376133720654476033651,0.0793659438634509578625043,0.0327781164943201155925756,-0.0155428295878084540143638,0.0132425820291439486769969,0.00955774314722059384341613,0.999745623568418562143734,-0.0332915882893238188056095,-0.063289054317913151503916,10.7694792175648448306902,-0.0945860508904173280519956,-0.0582815430758010163958538,1.1421042646036629886197,7.63343668622226712017209,4.21055964494630696748345,0.4722343506241280519653,1184.73607352265594272467,1192.43577621187796466984,1186.94742935813815165602,1204.89591891875124929356,182.119481086055941432278,77.2737947287168225329879,-386.338879873892096838972,-405.486547697273294943443,157.375229036304375540567
0.0975000000000000033306691,1.99124372136730221072298,-0.822625231521992628103135,-0.00423851503009455704562569,0.00985211436628487605138282,0.0773772732692733083981196,0.0320717674480530540170875,-0.0155412276286194840635435,0.0133503513328739123466882,0.00956887660141212889608475,0.999744120229179689118837,-0.0354513818965067409316738,-0.0632972844609394069692598,10.7624766235944182568574,-0.0944417893565805410815983,-0.0576564776341913359791747,1.14443123413016212275295,7.63328363376481888735725,4.21050611767084337344613,0.475108241794515051559245,1185.40102463235507457284,1192.48693393655685213162,1185.87477828627356757352,1203.57259177950072626118,347.09146074856079167148,-19.2502588684419428943784,-470.280878461380382304924,-664.285601467371975559217,157.377180276734918606962
0.100000000000000005551115,1.40990221560384476617855,-0.797608362670039428010682,-0.0662814846437304872051044,0.0144258197658910531507859,0.0754152298497740430915925,0.0312982800772899152907947,-0.0155369746596894023338287,0.01345599341081736219361,0.00957675892394134475882339,0.999742708365771282075229,-0.0369526236441140229493918,-0.0626127102884115604997106,10.7554964823374419324864,-0.094292411903226153180313,-0.057042950728556904294031,1.14672601707329047115991,7.63312954777789354210427,4.21045620530346020871093,0.477984784707848220364212,1186.47153082639874810411,1192.33952491753575486655,1184.59602496583124775498,1201.5744909114143865736,400.386830026081611322297,-66.9985831473695157001202,-436.426542906610450245353,-746.307646002878072977182,157.379741936639646837648
0.102500000000000007771561,0.937502689374494990737219,-0.786258923696416034410106,-0.100318338689584451994818,0.0157029653905238937572353,0.0740319143443153721007022,0.0309120714351695663468789,-0.015528426538764697473205,0.0135575331620947925337362,0.00958452519351253064139318,0.999741408596378722251075,-0.0377772402631316103760462,-0.0611476213357996511987835,10.7485992783352379831285,-0.0941281137237129500450195,-0.0564339214322192792017141,1.14899296297625608254123,7.63297398730736720295909,4.21040901726165817109404,0.48086415622497225008658,1187.40295878248548433476,1192.1519410208200042689,1183.69264557174051333277,1199.84105354948633248569,338.11323421628065943878,-63.7408941427567086179806,-304.102402291210296425561,-644.295548872243102778157,157.382059061487183271311
0.104999999999999996114219,0.552232562355471578996458,-0.790299174452942287949497,-0.129250271304162001051452,0.0154318524709941840011851,0.0723897359298607406818959,0.03084228038436359620178,-0.0155176118772172161319745,0.0136568262269922500312669,0.00959607763419133633076008,0.999740125003111379520249,-0.0380051672830440875894276,-0.0589096278051108590556595,10.7418315564135706807747,-0.0939477372370897678699464,-0.0558292905585162230197582,1.15123577332956195107272,7.63281644939349934730899,4.21036298692153465594856,0.483746896483101207486754,1188.16209699748014827492,1192.02082044682197192742,1183.07551295437519911502,1198.35301316705317731248,255.970026535761036257099,-23.3706706958401326801322,-196.624730151188856552835,-543.697153891435959849332,157.384564337193950223082
0.107499999999999998334665,0.239484663564138028357675,-0.811631138840470445217079,-0.17320770453001788080627,0.0140659595889087787878857,0.0701652029910911634313919,0.03101236977843853381831,-0.01550818388249905824261,0.0137551860233631976365709,0.00961527326905338257378997,0.99973874542877416704556,-0.0377190276243700231550982,-0.0559606161637756505111696,10.7352251282258883691156,-0.0937490824728460792059082,-0.0552314293016966939564583,1.15345817446229736980001,7.63265697584692670574213,4.21031689102263229074197,0.486633728896455342027849,1188.6828089151642871002,1192.03508766734080381866,1182.70952192098457089742,1197.12256778002915780235,109.264701211350157450397,42.989588666614473311256,-75.9379955301027820269155,-339.159331592372552677261,157.387786915130817533282
0.110000000000000000555112,0.110447026512143331444804,-0.840221411106701787652185,-0.223562098140216214403608,0.0128761981924191502152377,0.0683400266805560124838692,0.0311842568472734428530746,-0.0155045189368382269057278,0.0138553155308109871707289,0.00964571185873055667037157,0.99973713050213630637586,-0.0370438673691632427975584,-0.0523988298217969994396981,10.728796003450918661315,-0.0935337944262673859352475,-0.0546432623469088885048706,1.15566335350859938913004,7.63249614335182702262728,4.21026951660990977899246,0.489524662316926151284235,1188.70842050353689955955,1192.23576839015504447161,1182.69582297672468484961,1196.65721650909131312801,-77.0538953090180456229064,123.554733669970914888836,39.5027132329232344432057,-73.4654520016191980857911,157.390651730335662250582
0.112500000000000002775558,0.0955942823905381600102515,-0.875077834078697991415652,-0.285761590821373590021182,0.0126546032439700389948811,0.0664114575119010563941657,0.0310393145766705673416208,-0.0155073739047860668927026,0.0139555889639852229167083,0.00968576063291348536565817,0.999735305065132751067836,-0.0360228759980172272281429,-0.0482673423505745324835203,10.7225450150870376120338,-0.0932941162114963584706118,-0.0540594545678720894699154,1.15785524958103813730759,7.63233532096330957728014,4.21022054389613931135727,0.492420220855169787910199,1188.29753943861919651681,1192.65286133569065896154,1182.90703548714918724727,1196.75524052002106145665,-223.883296529674936437004,201.868331911236793985154,102.115155423189122529948,113.218572345795010392067,157.393701703872039843191
0.115000000000000004996004,0.144976812103074587101403,-0.909814348377748660645636,-0.348890807676881908871991,0.0133618785850780127238968,0.0640719613008324251346437,0.030369773998621184957214,-0.0155162263508907792564084,0.0140529499141054253774641,0.00973359481189181238725006,0.999733336189816079730974,-0.0346761280860379481061351,-0.0436050777003029466083461,10.7164574730055974782772,-0.0930202552452839281915686,-0.053471357939666397385281,1.16003754633084543712584,7.6321758005166255856011,4.21016995849058872636306,0.495320813600976628254813,1187.5890040208885238826,1193.24511004971122929419,1183.20639875384063088859,1197.22330937082028867735,-322.688067764420054572838,274.985700411980133139878,107.210064653645432031226,243.454426924108474850073,157.396904519877665507011
0.11750000000000000721645,0.234758078946450787771738,-0.938960174519080981170305,-0.398264130969943896953822,0.0146448536636083273543285,0.0612176347688236505151238,0.0291590941976623170550642,-0.0155289954936014898412289,0.0141452080180310170443025,0.00978655118504532725576261,0.999731312892183199281249,-0.033046990063874452647763,-0.0384398553187731417679629,10.7105034290686269571324,-0.0927057564369396791548184,-0.0528668711987679840191845,1.16221315356656540451752,7.63201850227807909732292,4.21011799266059139057461,0.498227274499111472128021,1186.68409909979709482286,1194.02778983775056076411,1183.4430858104174149048,1197.97251265464160496776,-387.36814233338992607969,380.714787901116153534531,38.9287081943621871005234,354.772343360128388667363,157.40029082172264907058
0.119999999999999995559108,0.354364315853198164063542,-0.96941529206924792472222,-0.42517588624115837392381,0.0162377361396373806612381,0.057820946454335941933067,0.0274900472042079180301499,-0.0155447253822088259089806,0.0142298082166970648460014,0.0098415094376225701472416,0.999729317905601044813579,-0.0311729983456125944729642,-0.0328448005987735103250458,10.7046387995447798147097,-0.0923447035978099406428043,-0.0522371208211208776228673,1.16438414433553694138368,7.63186381004149794193836,4.21006525719713486921592,0.501141110121650634745549,1185.65216330922157794703,1195.14868398921680636704,1183.40104229481244146882,1198.99717108762092721008,-325.909056925957600014954,434.059992999983364825312,-103.672888741630430331497,375.509083702900852586026,157.404565463847859518864
0.122499999999999997779554,0.448802744902208228250373,-1.00101340659108650754661,-0.413725438533673273155955,0.0175717251710334788905588,0.0554719159387223673118861,0.0261986533867347437531947,-0.0155643606506157983898619,0.0143073525781955996488692,0.00989484680854179482478727,0.999727365812995261151741,-0.0291582660381558902984445,-0.0269517609424409776419651,10.6988062462588544576647,-0.0919398238938311102019796,-0.0515786539408113475779771,1.16655120718024996051554,7.63171203475241188840528,4.21001253479449477623575,0.504062665500280226993368,1185.05455381516730994917,1196.19808980275047360919,1182.92472136670926374791,1199.85005807315610582009,-139.686554753325140154629,430.743276736347581845621,-306.424538838927844608406,326.256290007495124427805,157.408302801706241780266
0.125,0.528325282591075806593039,-1.05570904723513048217853,-0.364713515544978106319718,0.018841325812307289921943,0.0537702102046046931382861,0.0250653284471733725502496,-0.0155893939009996759098575,0.0143782260138108214375663,0.0099458755998785789570471,0.999725438398823773589186,-0.027096612722560441122166,-0.0209203965882901743444933,10.6929371383432005870873,-0.0914946849485631097387284,-0.0508902351037622893703549,1.16871472800644227163502,7.63156388190329693088643,4.20996082565997475910535,0.506990783264185451706396,1184.95373053545495167782,1197.30240037289854626579,1181.86891960061780082469,1200.62845253765840425331,105.214627244777048531432,473.519315914881701701233,-595.175683880733572550525,315.611756743919329437631,157.412220999582729064059
0.127500000000000002220446,0.600688872106843074760718,-1.1594804817461150658886,-0.265042969923606652749015,0.0202291282746858702701331,0.051913924949039125245065,0.0237276965988862838241591,-0.0156195427258367224715441,0.014440933897020349907514,0.00999492317041392186460769,0.999723562658934139513178,-0.0250334187480917499946109,-0.0148846440494974363577541,10.686953199537375880368,-0.0910093479032777763482187,-0.0501679933773914732419996,1.1708755849185685793401,7.63141982092767445777781,4.20991057895726417115156,0.509924010725974374835801,1185.58062695139119568921,1198.56568638232488410722,1179.94884294730559304298,1201.42811685687570388836,365.322423080214889523631,427.038966396957732740702,-788.387003446631979386439,262.656905037920068934909,157.417130812876536083422
0.130000000000000004440892,0.636825960028998494522057,-1.27305988954013993286196,-0.153815758852780232190938,0.0213546671779307160876638,0.049942938015998750156399,0.0227130533482621799201695,-0.0156532603368021057399506,0.0144987132251746583117002,0.0100451590179353681536734,0.999721687249331969482569,-0.023104031532321399333707,-0.00895829689543115037508869,10.6807673073949818132178,-0.0904956386486621133791175,-0.0494062916864170670327994,1.17303397719286084388557,7.63127945051379708019113,4.20986241353528622965996,0.512861756932979528933458,1186.78034265085602783074,1199.43759520488333691901,1177.92698458338463751716,1201.94173706284800573485,614.366321014949221535062,275.225823347227333215415,-847.216385488945093129587,157.340009487142964417217,157.421394781231470005878
0.132500000000000006661338,0.637451429716748285692063,-1.392383059772202003046,-0.0274956151827945444177104,0.0227333979589896852113728,0.0471320340541778043386145,0.0222173178290571357584859,-0.0156867652173628933931493,0.0145497398208048658169167,0.0100973079728140079786014,0.999719891654201053832196,-0.0213244885097256045569658,-0.00321064455961031502972958,10.6742862835213809802326,-0.0899535198660219165178731,-0.0485965134043195370883161,1.17519121106459345504902,7.63114231035337553521458,4.20981726055065585967441,0.515802773056470598156409,1188.65245855646594463906,1199.94181549906102191017,1175.7127610198608635983,1202.21481690431141942099,946.87038077267891367228,99.8067193690984879594907,-949.478163471757511615579,37.731177040677685852188,157.425836666772823946303
0.135000000000000008881784,0.580062215588554197509552,-1.50274348231195564729035,0.116944987856970897266429,0.0250678437372931564586231,0.0425651810358055743277461,0.0225521360874885758163177,-0.0157149052585753498667565,0.01459333062004641856646,0.0101501054002460823488807,0.999718280843286954961968,-0.0197231668975814469768615,0.00232107117386506911493882,10.667412065917602603804,-0.0893853879625730041169618,-0.0477287689523237523836485,1.17734825527548436774339,7.63100775754399407446726,4.20977577680138814741895,0.518746611829145165550869,1191.51469455471942637814,1199.93662880172882978513,1173.17959376602584598004,1202.13039294805139434175,1112.26752909938022639835,-118.066739829327971733619,-858.472894401165035560552,-117.915102106371605827917,157.431371264829238043603
0.13750000000000001110223,0.473736304150777443044973,-1.53838086520301686732637,0.212594870643733030446398,0.0275592255857428254650632,0.0379378432026043280189675,0.0235891804368301566396937,-0.0157359299485625471481942,0.0146285321801948170472585,0.0102023522358338850080095,0.999716910334336406052103,-0.0183103430085309396013749,0.00753384025907063992200108,10.660044448481654555394,-0.088792822976061724915553,-0.04680271939814031889604,1.17950520050101803626319,7.63087523216540741799463,4.20973835325406930962799,0.521693269630116085444627,1194.21379620196285031852,1199.35148179991438155412,1171.42039654785503444145,1201.62524139377956089447,1081.50590819263834418962,-348.485046792484070010687,-582.269243886229901363549,-300.301005933806379744055,157.436152756530958640724
0.140000000000000013322676,0.308987843323543842632972,-1.49242317787367761994233,0.267161167836474700010285,0.0299794911649240262974114,0.0331034118304135774324415,0.0250532970442234777241897,-0.0157461706370073117877695,0.0146581733870631367860904,0.0102529414896299960607839,0.999715808679185635732267,-0.0171632928829771394529935,0.0123777314191396425879788,10.6520826314874614837436,-0.0881859468907087579170323,-0.0458147419271039552102209,1.18166071898363211900573,7.63074446896272906570857,4.20970497857533398899932,0.524644130955169041286013,1196.92222409568262264656,1198.19420356776640801399,1170.26824754659469363105,1200.62888791838236102194,1030.94604210582383529982,-534.643378653708623460261,-338.24222682724183641767,-469.772109423683616569178,157.441109101197014297213
0.142500000000000015543122,0.114378805335286173883169,-1.37532883264881955476255,0.285618859624086951498612,0.0315149451393964066814313,0.0286097539906085863992136,0.0264250078980397817840498,-0.0157477586444752376548806,0.0146846505762382971427282,0.0103028163058391988154971,0.999714896037176892207299,-0.0163375126424312663853122,0.0166940131570705585506431,10.6434289142891529422741,-0.0875737670826550185232406,-0.0447757888739338666406198,1.18381184657035110063816,7.63061570476393491446743,4.20967581606897400803291,0.527600497105092713923113,1199.3685264124919740425,1196.67826490664583616308,1169.72918541371882383828,1199.27638084666114082211,851.971180158856782327348,-648.196592118714193020423,-63.7615821466173002818323,-596.78763744537081947783,157.446209973982007568338
0.144999999999999990007993,-0.0751274413866512696946742,-1.1854869905512164240946,0.26999990511692062433724,0.0312017274125431509634865,0.0249528847137218540153114,0.0272254276756631538591868,-0.0157393313701168942320141,0.0147111749390426253814024,0.0103511903782217695724199,0.999714152266190980711258,-0.0158935919419600016344596,0.0204176776912015356391095,10.633990038366444963458,-0.0869666767173775112631517,-0.0436897198157556801434431,1.18595459219358789759724,7.63048894318512616052885,4.20965141626624994586336,0.530563735732959118607255,1201.182079996476886663,1194.95322060717285239662,1169.94943963586160862178,1197.64494973115552056697,587.104111349802224140149,-742.487996708135824519559,248.112885254023495917863,-733.881694927780472426093,157.45148478797545976704
0.147499999999999992228439,-0.238801568495941696212981,-0.906129111516155827388275,0.231532155558655167171267,0.0288796272305165517557679,0.0219168306748983784948415,0.027307640557410139958705,-0.0157227282897146013185274,0.0147387306357247820781664,0.0103955277681017557028786,0.999713557892316195818694,-0.0158351672265628837243945,0.0234367184308651443913618,10.6236803867652316313297,-0.0863693816769152133971943,-0.0425689607955900412017414,1.18808399536532838247638,7.6303644354663884286083,4.20963243212308757534856,0.533534574895554891682536,1202.30404696924097152078,1192.96582492310517409351,1170.96974983998893549142,1195.606972372022255513,209.080664751945533907929,-672.753156546922923553211,463.979840571482384348201,-728.248744054189273811062,157.458015477954006655636
0.149999999999999994448885,-0.293310339850221701851751,-0.658674823972121070703167,0.194503651298202490105282,0.0262151637657465665098844,0.0205085749190948817000102,0.0271003338360724342626096,-0.0157022935914752082009471,0.0147682569501946837908779,0.0104336289549379537117124,0.99971305280676547866392,-0.0161557108349909619993134,0.0256089427683004744462636,10.6124236224839663123021,-0.0857861025058531123654859,-0.0414322244290693392221314,1.19019414631302877793928,7.63024191806498741641462,4.20961901517147563112076,0.536512877545388566780105,1202.2274833202366153273,1191.58945482443823493668,1172.26933883871902253304,1194.00370601088457078731,-243.156739254254489424056,-459.771600822613947912032,554.961307712118923518574,-594.795743134636154536565,157.463625186867574257121
0.152499999999999996669331,-0.258667624275582486159664,-0.425827605638815998023716,0.155361489230293636776281,0.0240584742534889033105383,0.0199734751599245155539997,0.0272754521574641965731001,-0.0156804272312931411437198,0.0147975532809653149979301,0.010465133678292248484154,0.999712635939130622730886,-0.0167727300783271429662769,0.0268563894376499801008862,10.6001538386819724735233,-0.0852130950325664104916257,-0.040293442357827932709391,1.19227948569724695460081,7.63012126934800694044725,4.20961107339565998586295,0.539499061521719003309272,1201.08826327296969793679,1190.66696691899210236443,1173.74455637854953238275,1192.63299365634907189815,-715.353356260674672739697,-294.341624902244518580119,615.00762585787867919862,-535.49876705551423583529,157.469408947918623198348
0.154999999999999998889777,-0.146218847074813224073964,-0.18506623073435668480613,0.0994556067882531591450856,0.0228405087682828598916185,0.0198849028274567449225962,0.0278681902045516925736646,-0.0156559226525112768491077,0.0148221946062255943710184,0.0104892530239809791264838,0.99971240071060141207937,-0.0175498799971724669943818,0.0272009168063547246418921,10.5868161151529722729947,-0.084640587405153400180069,-0.0391576478427382093649989,1.19433515393401168402931,7.63000227512477202651553,4.20960852188749878877161,0.54249325436227202601458,1198.650716538933238553,1190.11774669992701092269,1175.34437696800841877121,1191.3262121756069973344,-1031.42467107459106046008,-125.461883197931342692755,508.482293718452183384215,-422.217228736598883642728,157.476551096789705752599
0.157500000000000001110223,-0.0311442726516173717943303,-0.0227734024476307882201009,0.0403384451217693174029932,0.0230755678376369129101153,0.0199549909094067293158226,0.0284455502350238753628275,-0.0156275887509475727710218,0.014841077011251330858288,0.0105079561654926306041302,0.99971236214960523813744,-0.018415679748857181896593,0.0266866971540002939633496,10.5723668993896229295615,-0.0840662281003047018312913,-0.0380286324770268413519858,1.19635616636469599427528,7.62988431553645440885703,4.20961028215508292760205,0.545493887354579598536475,1195.93113991759673808701,1190.03965750300244508253,1176.28696784714179557341,1190.52190751266607549042,-1168.69893846232912437699,6.07030498099447335391687,254.132286232834076145082,-270.768258290945368571556,157.482671071551322938831
0.160000000000000003330669,0.0608076850044922678772963,0.100642118868339125459244,-0.032824756698071284877205,0.0243258128202194431888294,0.0200221256373014078189243,0.0289339789368082064835441,-0.0155951094466073407474038,0.0148514447218300767172838,0.0105231954696509751728817,0.999712546706454929790198,-0.019261389501695376502699,0.025359837442562899179066,10.5567746595327704994816,-0.0834831722660434316640732,-0.0369112359839334353006635,1.19833852520615113945723,7.62976724987070653583032,4.20961541942408956629151,0.548499619271011318311082,1192.80722184662158724677,1190.14809822483198331611,1176.6150383991725902888,1189.97237088415226935467,-1389.3673972695057727833,28.2362736876166060540072,-13.900293680899254766814,-202.833522705168263655651,157.488965176832806491802
0.162500000000000005551115,0.109479927533031623498871,0.207908542195510304129158,-0.128685112915122135124335,0.0262491300649605324712965,0.0202258140758339900744378,0.0291341666330877172019775,-0.0155619623318167272368884,0.0148524993748776115015664,0.0105395858221815387489873,0.999712864043031501637415,-0.0200185577817146229118173,0.0232048385267837886658526,10.5400195939602809858116,-0.0828889807980288662037083,-0.0358177745174258002625045,1.20027854782996712401655,7.62965125410822686546908,4.2096229133771414510079,0.551508801772941148477969,1188.98430293124920353875,1190.18083887144052823714,1176.2174663787372992374,1189.50773989914023331949,-1360.42888196020498980943,-49.2784984144236233305492,-267.016091231380187309696,-159.509166299539941746843,157.496717936705124429864
0.165000000000000007771561,0.0915399711570184931863636,0.264479727841111567077093,-0.203341668349881987687411,0.0275962590864476386975923,0.0206138152921203458844968,0.028817704402765875748571,-0.015528790115113700470717,0.0148452692258002061365119,0.0105595507728270705805063,0.999713264368025100736759,-0.0206583079531865512756816,0.0202829478996827405890002,10.5220922225396780191886,-0.0822850960312720980383006,-0.0347527801440509556685221,1.20217331027607143845159,7.62953582859195655885287,4.20963209893491363544626,0.554519540276786182531055,1186.00507743682055661338,1189.90170573275986498629,1175.27995794301568821538,1189.1748250526545689354,-1099.96050844347246311372,-216.864536402954200866589,-468.34797238302559208023,-154.140906790962475270135,157.503343352108345243323
0.167500000000000009992007,0.0253664096904618815986332,0.285194336048090357760287,-0.254739838712054855740519,0.0282051946000040007489496,0.0213330467482800156808764,0.0279328990436380625306256,-0.0154922287171996211213587,0.0148330289771260170894607,0.0105853218581462866360043,0.999713730355736518440324,-0.0212000329967484760218532,0.0167528523164579834503485,10.5029927445044233280669,-0.0816780566172563837756826,-0.0337099261555083573593805,1.2040203089346792619807,7.62942088401530149610608,4.20964262428155677753239,0.55753165586073272219636,1183.48450038903183667571,1189.09651618942575623805,1173.87572651682216928748,1188.73703536518542023259,-912.84341555415187485778,-425.829267638618659930216,-607.876465892922510647622,-217.683292025003339631439,157.510136904010636271778
0.170000000000000012212453,-0.0611042455172912182814748,0.273898220800592118173711,-0.274849407438994608465777,0.0280932790315558157667741,0.0223405068499831112316389,0.0266534059233335778038576,-0.0154482365425756690280323,0.0148190774705032907859747,0.0106168464670500888036297,0.999714279886255829943309,-0.0216671844823157419557269,0.0127967615003649892724269,10.4827313441056144682761,-0.081074337243072031045088,-0.0326804593115346125875575,1.20581710647575812700438,7.62930693033398821256696,4.20965475712952486020413,0.560546403590976072273122,1181.44086035904979326006,1187.77255939456676969712,1172.24057561355107281997,1188.08640859252955124248,-701.888412285870231244189,-653.911232003610507490521,-673.418882049599574202148,-336.242253957516084028612,157.517067083980492725459
0.172500000000000014432899,-0.145264062422630763071751,0.224254785558559543989787,-0.250142581761192861478094,0.0272167495376923265770763,0.0235418665484274543253651,0.0252371878534121581172389,-0.0153994177739136400839826,0.0148072346035349727139119,0.0106540010629585669282848,0.999714817756986562358179,-0.0220992111565056145727759,0.00846334700935899575391375,10.4613285991709386024695,-0.0804819250080148346215836,-0.0316707392125828157691814,1.20756039251033442383232,7.62919420128955128035386,4.20966858665422272167689,0.563564774355667763572342,1179.97505832760248267732,1185.82696002940770085843,1170.5086321065741685743,1187.05582409539783839136,-533.732917209817514958559,-972.737472632114986481611,-747.438215569808789950912,-557.758174448508270870661,157.524157834832550406645
0.175000000000000016653345,-0.216620326892876247093511,0.130166898335826841659468,-0.173706276339144871645459,0.0256945264998564362746158,0.0246886621060330435639685,0.0239572992487703216590855,-0.0153430747121452645820305,0.0147988321354655706640902,0.0106910919105448875415787,0.999715421783376134712285,-0.0224888335392851232419353,0.00391591308532512893947342,10.4388142174554516827811,-0.0799026733548628270709102,-0.030674315177186536884868,1.20924707198067338254077,7.62908285504209704441791,4.20968434929860979565319,0.566587442817771957948025,1178.77219577300070341153,1182.90887203140619021724,1168.50338453570202545961,1185.29761772028700761439,-374.026166338264317801077,-1131.28666962325564782077,-705.777604197422647303028,-730.409929991586750475108,157.53284595437730786216
0.177499999999999991118216,-0.242033768740610527592239,0.0382088709479077512365386,-0.0841371775089926193791356,0.0244450169074802055313445,0.0250250050667261449144352,0.0234661050136744549210466,-0.0152793584205990224528238,0.0147932281044809120496009,0.0107228609024415770523131,0.999716150009133497356117,-0.0227930574010012168550965,-0.000742624867045044156910194,10.4152276651010922137175,-0.0793339242324086063584687,-0.0296909024207290886399058,1.21087359047403708700585,7.6289732936398788609722,4.20970200256588533704871,0.569616135443672622074018,1178.10492749591116989905,1180.1705266812914487673,1166.97974408558707182237,1183.40377444543992169201,-229.060843769503833300405,-1104.79879944119215906539,-570.227270647822365390311,-831.311302432144884733134,157.540230198595537558504
0.179999999999999993338662,-0.23385612243346370897612,-0.044191867919381858098582,0.0106008823812396377889167,0.0236554132251295748390341,0.0247008275725876039197182,0.0236242493816170018305911,-0.0152096143884610998653351,0.0147887779763273656541411,0.010746834714057433221579,0.999717028728814960381044,-0.0229530465589682722282738,-0.00543757890194704329722697,10.3906175072917932311611,-0.0787708240104809387371887,-0.0287221757126314876373829,1.21243605237791074458187,7.62886549209297726292789,4.20972155298249894883611,0.572650515053845676760602,1177.62689155415318964515,1177.38487803420025556989,1165.65224818246292670665,1181.14106120812630251748,-195.817515129010473629023,-1175.26789930825430019468,-541.681631209120951098157,-1050.48924839666051411768,157.547757620223080721189
0.182499999999999995559108,-0.196953354693782889395237,-0.106535605736481381322633,0.105835457852285319546581,0.023262693392861199387367,0.0238546509473682444291143,0.0244249989474306858361352,-0.0151310648516667957397264,0.014783345758292472035822,0.0107643212825332054705108,0.99971811441016267263393,-0.022903980401796093790967,-0.0100142715164651119330586,10.3650404788316521376146,-0.0782073720353455292819689,-0.0277588095758900532672442,1.21393072233068166632108,7.62875937966634243281305,4.20974283129090487420854,0.575690133835537687367889,1177.12583992026611667825,1174.29418718475017158198,1164.27133592954146479315,1178.15132820345661457395,-185.481165228884322004888,-1058.70717133302514412208,-479.069719404332829526538,-1113.89874302085354429437,157.556948386878076462381
0.184999999999999997779554,-0.152350978263869007989229,-0.115275146905341685510393,0.157410070276881808304381,0.023085557741932837688692,0.0229528924253396549026718,0.0253117719161211791878419,-0.0150443199151175655003954,0.0147746171911206387178384,0.0107778799237413756839654,0.999719401684334485480576,-0.0225849091079944122584244,-0.0143957041179335054614796,10.3385612830160837916083,-0.0776372548852239940941899,-0.0267990717233664993424114,1.21535377837452140958874,7.62865519533460556544924,4.20976540905380502977096,0.578734869517204320032988,1176.69948572800876718247,1172.0913421775351253018,1163.2568995854412605695,1175.57156749302203024854,-180.580221944182824245217,-788.504431363571029578452,-390.543677201412378963141,-1012.74503126955914922291,157.564733163185337616596
0.1875,-0.0999924751497678898637389,-0.073613328416660628317203,0.174688318458623093043514,0.0228654652737668544204563,0.0220950141724098360340722,0.02616864696251391259052,-0.0149505015849321874765732,0.0147629366685374831258404,0.0107886004667251539368422,0.999720855268907859780825,-0.0219980067929306175034121,-0.0185226499446167203188907,10.3112509892327679494883,-0.0770605716183683647768632,-0.0258422157943468087937244,1.21670130705240797652777,7.62855333972814531051654,4.20978881758584666528122,0.581784897127582856235506,1176.22293881054520170437,1170.35166502793231302348,1162.31861754353440119303,1173.08760304710881428036,-222.540621512780290913724,-672.859392296458622695354,-410.669245014105058544374,-1028.98188049866712390212,157.572641448569413569203
0.190000000000000002220446,-0.032470997776074164709037,0.0276694452382562003367461,0.1604209229223125532382,0.0226387199902577142263116,0.021389782050634055521332,0.0271605969426913715358829,-0.0148542090434097082823905,0.0147505333917713459673804,0.0107969507669585240705601,0.999722368125072757827354,-0.0211925047241434891254208,-0.022415805652347742249475,10.2831859791685271687811,-0.076481986442083219057686,-0.0248957872002020276502865,1.21796955688308217169435,7.62845432241967102982017,4.20981266957184718791041,0.584839609160897944128976,1175.58678262044486473314,1168.72704521605282934615,1161.20355336037073357147,1170.42665809052869008156,-241.124767614337315535522,-546.845449532338079734473,-416.769876235775484474289,-898.862946184407633154478,157.582265657648804335622
0.192500000000000004440892,0.0249756319742837455677442,0.141586235412916344733603,0.129001464307319985147515,0.0225246429301081650675709,0.0211993811889432566542002,0.0277974851121351070049048,-0.0147635927508922935175173,0.0147423661831822330747777,0.010806088917289694006918,0.999723712448463919244546,-0.0202805480633139537105514,-0.026177265583105430168942,10.2544463234840872445375,-0.0759126982238731567997903,-0.0239756486132732919702715,1.21915509983313086195267,7.62835796077517169777593,4.20983652963328758289663,0.587897279872885314411235,1175.01731497247351398983,1167.61743778027062035108,1160.23476816235552178114,1168.59328831618677213555,-231.271439741794694100463,-438.519695315471437879751,-404.520636573078832043393,-639.504218065484906219353,157.590391263811085309499
0.195000000000000006661338,0.0793804112625071112141484,0.262876297860207386314357,0.0947230066925595359794698,0.0227312772007324942480366,0.0216454897321616927807764,0.0280015348510697335837616,-0.0146881242760701427596537,0.0147473479249217043901554,0.010820324599746068000572,0.999724570686431390775795,-0.0194616275796135537734521,-0.0299432846875566927025147,10.225113969209308706354,-0.0753731796934689890488102,-0.0231009851117680783949559,1.22025490493812394099393,7.62826333718374538506168,4.20986030590889548363975,0.590956581475203690523301,1174.43042542173589026788,1166.53444673947547016724,1159.18095017750533770595,1167.22913700020126270829,-236.368047993846431609199,-462.481717725085729853163,-439.970697111038646198722,-469.261998768615342214616,157.598618281811098995604
0.197500000000000008881784,0.127829957321330206498899,0.370010467034118939455567,0.0727487416389236835057019,0.0233013815773755843252513,0.0227121210053032977771448,0.0278421761645896541359502,-0.0146319392650545478107293,0.0147716147957482196728662,0.010841496437902104280071,0.999724771522608079976635,-0.0188837501936786403278212,-0.0337484161684634687006223,10.1952717714717788766166,-0.0748764387116663404642125,-0.0222789169889374069621901,1.2212675926901945810954,7.62816970401339311536049,4.20988463878774954451956,0.59401697502578199028278,1173.83547473250428083702,1165.30502919164518971229,1158.03491467680032656062,1166.24697832234369343496,-244.932946343442154102377,-555.314916885299226123607,-484.764678122246095881565,-315.70835292172858999038,157.606923140462384935745
0.20000000000000001110223,0.168047152518666781384482,0.437744591203256594447168,0.0801797197202183120623431,0.0240934343660070722503708,0.0244241008815006127585789,0.02747733883429541099086,-0.0145979899850128703314711,0.014820575926107052919245,0.0108700346392346536977813,0.999724189286332109993793,-0.0186861181290215935812959,-0.0376104850165224491309601,10.1650019984155441932216,-0.0744331364128512779076985,-0.0215146311750886651270598,1.22219269431729293806654,7.62807590814016744928949,4.20991047832323683763889,0.597078888089387693760557,1173.2057606900186783605,1163.75787215504897176288,1156.75712678689410495281,1165.65059523559261833725,-301.378636124945558094623,-763.453294073814731746097,-600.936672556917415022326,-204.903557297120471503149,157.615313941728317104207
0.202500000000000013322676,0.212910666091803396637872,0.455528367318382143569266,0.132833603479942552461068,0.0246879810260735195470705,0.0266996436665033337609643,0.02720106969568896956857,-0.0145844825315772363971689,0.0148950923615207963396356,0.0109034506250297140439454,0.999722868083687821183503,-0.0189208793755666140889993,-0.0414582821627182962487268,10.1343854460921676263752,-0.0740422911842702480278433,-0.0208030203810965659549925,1.22303116423262348000378,7.62798065233007172025737,4.20993864835570352767036,0.600141873234258826919074,1172.32858155187955162546,1161.48776272127611264295,1155.03023131401573664334,1165.22246053585809022479,-358.791300308530139773211,-886.66579080727308337373,-676.078387967890535037441,-137.573617660927880024246,157.625471529048013508145
0.205000000000000015543122,0.255290472287027558895289,0.415394393924586491362305,0.213065035484900716644674,0.0246383679333231735142373,0.0283025199268938758290215,0.0272691088599734780817396,-0.0145859112279705608467006,0.0149874867148405942207656,0.010939014512287899977272,0.999721037154679748049091,-0.0194722727073159199151497,-0.0451542995481335751595253,10.1035009665147406110464,-0.0736818726339082685772297,-0.0201309588252699400712231,1.22378570174631207123639,7.62788273188687071524328,4.20996940353407911317163,0.603205150525841671260707,1171.41180418847602595633,1159.32454320101260236697,1153.37673484705464943545,1164.96272714728797836869,-426.429278899558596549468,-884.570339576065748588007,-724.00792954690518854477,-119.743361923883540498537,157.634001824318232820588
0.207500000000000017763568,0.307481179696086293073876,0.327355653361166065717924,0.324110999057285853464094,0.0243819872890899784489971,0.0293240914252708255449686,0.0276133291253328819192525,-0.014590988089323766313532,0.0150841193904109570345096,0.0109753871216213966244268,0.999719086943503087994145,-0.0201088642401591674579997,-0.0484529922641054322518528,10.0724246517264148792492,-0.0733155125830307341505687,-0.0194718388759683898314723,1.22446018546808010896143,7.62778325313879257407734,4.21000315567417526807503,0.606267956847900579830934,1170.19643515738175665319,1157.06491102339577992097,1151.41019166628120729001,1164.62374372623867202492,-623.307053685314940594253,-963.103999744821521744598,-960.536776289204567547131,-206.345929515374393758975,157.642589953864273866202
0.209999999999999992228439,0.370806272112583767963656,0.184248203569179147542911,0.47816121941370021142248,0.0247363484241616866932123,0.0298625721920307007906104,0.0283586011323864461974864,-0.0145852249053583116894517,0.0151720404166093628117729,0.0110130396781550239648784,0.999717425214367017005657,-0.0206177189976409561134041,-0.0510523091421442309911782,10.0412288038177308635568,-0.0729093510153783763705349,-0.0187914659145386152283574,1.22505825187054395719599,7.62768402401856704386773,4.21004053129250799258898,0.609330316556506379477298,1168.29526892004946603265,1154.50902320228851749562,1148.57405096560864876665,1163.93099749971111123159,-779.079358032371601439081,-876.566388896121225116076,-1131.74193804871333668416,-324.842934793925167014095,157.652949951101305714474
0.212499999999999994448885,0.406180606040755620700367,0.0466269104705514594866322,0.608558032300264950542612,0.0259873301187925620503449,0.0298087842780215515892106,0.0292843927833246371605913,-0.0145671705137416715447607,0.0152450083794991690655518,0.0110542825246845687059416,0.999716139782953816528277,-0.0209262388326686213368966,-0.052917972662569062736182,10.009980616190153668299,-0.072447554722198451160331,-0.0180874705243089239914411,1.22558149192014220751901,7.62758718209424735334778,4.21008154927496214270377,0.612394181485924726793257,1166.30103836721991683589,1152.68207907891519425903,1145.75148197603766675456,1162.99952905226905386371,-884.369867894201092894946,-644.150342980992149932717,-1226.91757558281892670493,-463.998964105666857449251,157.66161879795978961738
0.214999999999999996669331,0.400516260324236816892096,-0.099145620420443988929371,0.717080776143308673553634,0.0280717991049181901652698,0.0293475579449894441452784,0.0306645986775687592884587,-0.0145359649890732210708588,0.0153004666955394719174421,0.0111017568053962574492477,0.999715250154075585342639,-0.0210349644655085168953867,-0.0540312122709828146494004,9.97874242805980316006753,-0.0719246446611101070134353,-0.017358801006330887295448,1.22603033138000339086204,7.62749381426889083712695,4.21012656972576770897376,0.615461100172469688374122,1163.87341958057845658914,1151.28827148738355390378,1142.43946308769454844878,1161.61100267918277495482,-1160.03780431960763053212,-517.581540209857394074788,-1551.57708761735057123587,-720.854302115503060122137,157.670312364921045400479
0.217499999999999998889777,0.334782671781964802359965,-0.278608448309981882040631,0.7883315545836629967269,0.0305080087110591556542882,0.0285004468219960220565223,0.0331047745047056696243715,-0.0144974559092653203923318,0.0153347291037431703725202,0.011157429452108107853503,0.999714701521206006162856,-0.0209198587263235355471203,-0.0545113268793596394967693,9.94757211298140298083581,-0.0713336828414986023894073,-0.0166206731010023547878696,1.22640466682902427031365,7.62740464969305165254809,4.21017502296810164352792,0.618530715112090456742067,1160.50084934562187299889,1150.09417137786590501491,1137.99359653795090707717,1159.39525754169153515249,-1300.7654301324225798453,-382.370157669901914232469,-1679.60357020656215354393,-894.05217610974352737685,157.680758735179409768534
0.220000000000000001110223,0.238555772806451876766332,-0.432964745285501273475148,0.774070509309813914455844,0.0316429680365692758692298,0.0276757694562678700778147,0.035880385200291659009153,-0.0144530744010338621508005,0.0153511308629812829457117,0.0112180044748340698029798,0.999714451300097506347697,-0.0206907092918433219153052,-0.0543908434286374531385633,9.91652257104386691821674,-0.0706856720832052393133083,-0.0158772190589721168274551,1.22670339803165351355574,7.6273191300583569329774,4.21022651446901718941263,0.621602450616658863680186,1157.36959242991633800557,1149.37642069903404262732,1134.04144523666172972298,1157.1407417986340533389,-1296.81558381457648465584,-274.079683323998096966534,-1583.55481549128717233543,-958.34701450744353223854,157.689465468564918637639
0.222500000000000003330669,0.121854136216182420970888,-0.595739807725374714841848,0.663726503440798643040921,0.0317535966937702238133134,0.0265774017907053385079141,0.0391231379371878920658823,-0.0144001284254243987204003,0.0153550764348302400119639,0.0112812592625671035545531,0.999714475430821036816553,-0.0204874947758279316034624,-0.0536259028417525596132975,9.88564230373671826157533,-0.0699971044791200674994869,-0.015121413364188882391681,1.22692538886773538919783,7.62723645379470127636523,4.21028059729545578449006,0.624675557298469130707019,1154.01677142654898489127,1148.72377296124591339321,1130.07582246049446439429,1154.60352246915431351226,-1355.30920749697429528169,-285.005154154032197766355,-1547.95979267523625821923,-1030.28835280683688324643,157.698161904882539374739
0.225000000000000005551115,0.00637841957720503959644587,-0.767256801940359167701899,0.47387330196431182161021,0.0313982421069302977678639,0.0250753055608318835278947,0.0420830042941527024402681,-0.0143387532167187550097287,0.0153502955973104857068101,0.0113443023838946908943281,0.999714745813418903530589,-0.0204064630394777055122368,-0.0522360416764076906925851,9.85497549665508820737614,-0.0692807204463959241946824,-0.0143522527894002320525413,1.22706993261677022033496,7.6271562724516321907231,4.21033658863488646773021,0.627748690377937679230058,1150.59304639243146084482,1147.95139492826388050162,1126.30164627328554161068,1151.9893000345998643752,-1352.49399333342694262683,-368.869973438131296461506,-1419.09647691022519211401,-1019.60156050813475303585,157.706841386660101989037
0.227500000000000007771561,-0.0917320531332515010092266,-0.94959722790873657416455,0.21167052170910136132953,0.0308099121764394273670362,0.0231925545562770493712712,0.0437174253433505397015146,-0.0142700338412617075412037,0.0153396227796900701256799,0.011402558060563065117643,0.99971525643108882785981,-0.0205147269521707906192454,-0.0502671422887194241369002,9.82456176469931463657304,-0.068547219088428035238536,-0.0135701332989194515393772,1.22713675259901111580518,7.62707820161221583532551,4.21039354609277793883848,0.630820808193906845673382,1147.25430145988184449379,1146.8794230940552552056,1122.98034007594333161251,1149.50551466661363519961,-1401.1773762692416767095,-558.319820551650536799571,-1314.34625161941653459508,-1008.08330697641304141143,157.715490666333494118589
0.230000000000000009992007,-0.17859197946705945847512,-1.17838124382372266829577,-0.133738846413955392300466,0.0300506985985646637993263,0.0206716968487297356182886,0.0434761193967026365880812,-0.0142008169547191680920362,0.0153233689420113495388565,0.0114549634794318764413612,0.999715917754578908827057,-0.0208177908149522680747445,-0.0478877380862202661759852,9.79443598236783685706541,-0.06780125715944529396495,-0.0127882252422566768113033,1.22712600372968716477828,7.62700261352294806016516,4.21045025218023560853453,0.63389186718393031316765,1143.58715951108524677693,1145.15979582550562554388,1119.72991501518845325336,1146.94888349971779462066,-1255.64180921810361724056,-698.83493442775886705931,-1051.81289436313727492234,-837.690666232446460526262,157.725822774071417597952
0.232500000000000012212453,-0.222890739188922104574431,-1.3711102526009122382078,-0.404920928815448111226516,0.0294444107262392985868704,0.018242320655825088049351,0.0416348595964100218203008,-0.0141418129576584492013147,0.0153069969749304295864034,0.0115047863399367587822208,0.999716456314382662107221,-0.0214093350605249130302887,-0.0453492792666975730320189,9.76462729325597145191296,-0.0670601068351689283408845,-0.012027714993831321171891,1.22703717419344937589187,7.626929596867526583992,4.21050555487216460193167,0.6369628327841908577156,1140.97609241379132072325,1143.38524842191645802814,1117.72127560412764069042,1145.31706133545139891794,-925.388121807554057340894,-760.519983828725571584073,-653.219224345547786469979,-537.683373446088353375671,157.734385163047164724048
0.235000000000000014432899,-0.238846696910047950890288,-1.54997772253637489114908,-0.621322252360619886601967,0.0289205569843209754632429,0.0152053167109795790007398,0.0389268055662647105563678,-0.0141021256609264091647082,0.0152958600431567035698999,0.011556204289808512733484,0.999716614287565641383537,-0.0223670806912023498180808,-0.04287909508664677904477,9.73515941533875839297707,-0.0663404795282627329777725,-0.0113052299745496093869024,1.22686990578567955978428,7.62685879473210270873551,4.21055881742441240334074,0.640034221719339435630047,1138.96021890204747251119,1141.35719590636199427536,1116.46381889346071147884,1144.26046663248735058005,-742.053701712620068065007,-915.943210887461759739381,-392.021131251157953556685,-355.866218660866820755473,157.742888243770607914485
0.237500000000000016653345,-0.227229012925544870959982,-1.71909697630693814041081,-0.802441737553809653071824,0.0283027727877688470292661,0.01039330566154335507012,0.0356231014914211857602666,-0.0140838250875781091642214,0.0152923638607848910719866,0.0116118898253347348215048,0.999716295814620292681241,-0.0236978152528130106557747,-0.0405752322803349108060189,9.70605044969709140900704,-0.0656513335719880325447306,-0.0106203175236436533901418,1.22662452312789493902301,7.62678997438502914718583,4.21061026142090177870614,0.643106206562396809367499,1137.26582390522821697232,1138.8055323674791452504,1115.76116994787184921734,1143.53773024214706310886,-512.831914302708014474774,-928.555452360028311886708,-142.079358843648805077464,-215.474959273661710312808,157.753012680858461180833
0.239999999999999991118216,-0.192770394997701766115483,-1.79799680127584782241001,-0.894465016672062573910296,0.0276485186740722498066614,0.00523281956042933801831474,0.0332871187183513411733671,-0.0140840373220285988709044,0.0152925508826800976569515,0.0116737502078794255777616,0.999715579920185559714696,-0.025273520526400965191538,-0.0384487298346385120151325,9.67731262901862443470691,-0.0649854926034321850325526,-0.00996114405954158857459113,1.22630249278744996033197,7.62672360855080988528698,4.21066059506786594113237,0.646178122579431635230662,1136.39605933053394437593,1136.71441864456187431642,1115.75342209924247072195,1143.18309183611904700228,-267.375059774214037133788,-803.494665487554925675795,86.5042635353351556659618,-157.730161735208469053759,157.76137663937618071941
0.242499999999999993338662,-0.134434821565784234920216,-1.79272562013265712721477,-0.944557960200026358599246,0.0268558223908631071852326,-0.00029830386068799936635787,0.0315650956732053955544615,-0.0140949388600741451482712,0.0152932275652930202425317,0.0117393477570195969850175,0.999714653189286206469433,-0.0269731469342606791639305,-0.036420880796247723232284,9.64895091944705640685243,-0.0643371175283168339475992,-0.00930508664371677320092946,1.22590556040334930365532,7.626660047456350177697,4.2107105422030173258463,0.649249294214294558891254,1135.92894860635715303943,1134.78805904004138938035,1116.19369126554852300615,1142.74907943347102445841,-150.716401768158760887673,-732.164506373873564371024,225.13923936508015799518,-238.663280898981412292414,157.769657434408770768641
0.244999999999999995559108,-0.0609469065532005638274882,-1.71659755112827294709632,-0.973800636737595648462218,0.0261847352774419311893794,-0.00509783914824824338496434,0.030163625687906214095646,-0.014105900917521623991191,0.0152924256197062412993004,0.0118076399284779125914424,0.9997137072349751019118,-0.0286919144619886615221738,-0.0343644269123309364921681,9.62096238178508755822804,-0.0637026912454352611803188,-0.0086238407743247386810781,1.22543570377614607913586,7.62659886121840102646274,4.21076114769820275540724,0.652318789360661455134505,1135.64247732169314986095,1133.05359611269250308396,1116.87911829606787250668,1141.98977543162413894606,-105.734524674335162330863,-644.756659539052066065778,304.354925433426330982911,-429.693526009577510649251,157.777864573666789738127
0.247499999999999997779554,0.0190418330905536212216411,-1.56747700573621173703032,-0.984433734371789603834202,0.0261199306088856497698458,-0.00877303959477353234586161,0.0287220484597859558595356,-0.0141082290247169644947789,0.0152897491530538023191133,0.0118768090823225414692788,0.999712892733183644544681,-0.0303512723989837127080982,-0.0321918895832629392561586,9.59333566713281093996102,-0.0630818905179324901366655,-0.00789549751274372033083004,1.2248949714315335857151,7.62653939964908644810748,4.21081364238422573009757,0.655386075213120866678196,1135.40027598298547673039,1131.56427574234612620785,1117.71546589271565608215,1140.60061180342313491565,-126.966254815852039428137,-605.659824076928430258704,372.047498574783844560443,-782.43333935215491692361,157.785978120938153779207
0.25,0.103469644909448918457251,-1.32290005452857317713722,-0.966669252828639358199325,0.0268364489361017644064589,-0.0126863949416528322411413,0.026389029277600114381519,-0.0140955591856237461012569,0.0152851897987972863701689,0.0119427545435585036326387,0.999712348880610224277632,-0.0318784870015203711246521,-0.0298594961176097406507779,9.56605084031524555143733,-0.0624746499617641753987485,-0.00710575667053777934589753,1.22428555885990530960328,7.62648059940008327117766,4.21086894680566903303998,0.658452101874160367067645,1135.00764604761388909537,1130.0252969923078580905,1118.73935578894179343479,1138.07760873486336095084,-170.236158481111345963654,-532.192318648958007543115,362.023420472041493667348,-1057.15092542682123166742,157.795601117626517861936
0.252500000000000002220446,0.153375182760674494408804,-1.07508750536490960136859,-0.910735576625047560384019,0.0277173385593956871086885,-0.0157785560311246991771483,0.023703069188251029569825,-0.014069086402681278691329,0.0152811391111494828537465,0.0120048919475369813419929,0.999712027526289737089371,-0.0332467311853693811563026,-0.0274636794270612383250807,9.5390791300533130936401,-0.0618861732156715110830802,-0.00626007754131666267760625,1.22360948658573076563982,7.62642201203120251307155,4.21092765483338649090683,0.66151801273732580011,1134.54909519057991929003,1128.9033141491013338964,1119.52558299507586525579,1135.31485717628902420984,-210.323697210696792581075,-426.235946824544555511238,286.271572754367070956505,-1200.59279004608356444805,157.803522975357935820284
0.255000000000000004440892,0.177861754186480008899096,-0.794300328033869962318647,-0.793845569604460621349062,0.0285071583102184111790933,-0.0182678575971222077745093,0.020426142452439358110361,-0.0140335670010465901613728,0.0152776786778258035631728,0.0120627828181059364859307,0.999711863654541676993404,-0.0343870802013178031297791,-0.025160551666965236261575,9.51238365219567505448595,-0.061315464712341768982462,-0.00537410903110260677884025,1.22286942631912443069098,7.62636403129866113914659,4.21099032804232553672819,0.664583429501838462982732,1133.95602756156040413771,1127.89411725818513332342,1120.17071365271362992644,1132.07464478463293744426,-289.295812897580333356018,-425.420380522245579868468,238.18167488925590191684,-1468.1952927029656166269,157.811341212697357150319
0.257500000000000006661338,0.183207570611710224284252,-0.438934877318811367263862,-0.579776055928808431438881,0.0292463312211265619167122,-0.0202197145432429330191848,0.0166565037901085268023937,-0.0139897218949204087123928,0.0152709385070942289808205,0.0121179437794670889078086,0.999711885949531420259007,-0.0351577949218074767290254,-0.0230190485855109872037616,9.48591984334954752000613,-0.0607511969603544074725043,-0.00445471211432301068822159,1.2220691940320673740672,7.62630699717131843584639,4.2110571663194100722194,0.667646008436544868835938,1133.10261612609201620216,1126.77621224649010400753,1120.71649136952214576013,1127.97388071277418930549,-340.559833606812105699646,-396.019578314598788892908,152.244785422226271975887,-1489.19571212722848940757,157.820601179141021930263
0.260000000000000008881784,0.175568188458507967730782,-0.144900704137890024014723,-0.356870182203467833925714,0.0296405896451040484773642,-0.0209231421957921000231995,0.0144747651513660521849225,-0.0139372706380439526085979,0.0152571699150521895155252,0.0121712525590610409764736,0.999712145022675469085982,-0.035425829416461850074338,-0.0210762085945262467312489,9.45963566550851808756306,-0.0601819141221981643297134,-0.00350717480319450228276601,1.22121319816365025978655,7.62625072686072780214772,4.21112870137423733751803,0.670703269668258439395458,1132.25322839352634218812,1125.91401936661213767366,1120.93193757982476199686,1124.62866622399678817601,-383.485049823138638203091,-330.794624417512466152402,22.8566038336793795338053,-1275.73130618552454507153,157.828215062767839071967
0.26250000000000001110223,0.16596778105752818532892,0.125102998106030260938581,-0.129144544354260842888849,0.0296249935086023291619384,-0.0206138373225267131083616,0.0142540580707848328623211,-0.0138751450400107414345774,0.0152351753906217312478644,0.0122205734820991594041795,0.999712702464773617094806,-0.0351151663601369443123978,-0.0193394217715924798817184,9.43347242689304010809792,-0.0596020924993349437981394,-0.00253545860171034559416015,1.22030584212158021983896,7.6261951237098237754708,4.21120561493209599746024,0.673753233218422620254273,1131.18519087697632130585,1125.12223912440254025569,1120.83077438869054276438,1121.59522418184656089579,-544.888657707133006624645,-336.566187961943512618745,-135.107171306299164825759,-1232.12614940325579482305,157.835721253643953332357
0.265000000000000013322676,0.159559415755979400186604,0.399493606256934197240582,0.0945382834615732525751497,0.0293877660311257192515821,-0.019192397112787695778735,0.0160086818249869332342339,-0.0138026720300754805054178,0.0152079468092216566615926,0.0122623818233064414001676,0.999713569571491045273604,-0.0342382924120158901870603,-0.0178084310445632831854113,9.407366358122583704926,-0.0590161748344548015010602,-0.00154440800124704645523988,1.21935073911805225144178,7.62614005754559709515661,4.21128790384955919989807,0.676795603934199241358272,1129.52878510499067488126,1124.23118842680241868948,1120.2564017232932656043,1118.46803547698050351755,-683.870944322551963523438,-326.860186638077436782623,-297.595388472245474531519,-1056.68152216016915190266,157.844603364926229005505
0.267500000000000015543122,0.156630642201574132865716,0.57692831060424520916996,0.212474326467589458289353,0.0294509646037018069097968,-0.0175846600959251343765377,0.0179446636168523188104018,-0.0137261865598684688893893,0.0151808797484116846099322,0.0122937433650300385196141,0.999714617539277705660083,-0.0328637996827358738749503,-0.0166004720599523536428421,9.38125158457510011089653,-0.0584343855298883191329296,-0.000555230973716073356039047,1.21835020135813620889564,7.62608535658732389350689,4.21137473840346387987665,0.679832023970953991387489,1127.76583615536355864606,1123.48793819121215165069,1119.34279744632931397064,1116.31181657104571058881,-787.172899424421530056861,-319.626430235120722045394,-464.238944738735483497294,-781.791582995355611274135,157.851900326460025780761
0.270000000000000017763568,0.146375751672619597298919,0.697877923548379963669674,0.252975190558297702292379,0.0299241237134403349762213,-0.0160249258064486289898642,0.0193297008247810715719783,-0.0136537676628363992964443,0.0151594688523336608432235,0.0123157344345518181966126,0.99971564596021056381403,-0.0310712800217154069826186,-0.0158522385458011449976823,9.35506319620761139788101,-0.0578668974619596515607256,0.00040805476430595330472606,1.21730497100580481451004,7.6260305946088635664637,4.21146457214813718650248,0.682864648542671370812229,1125.59292060786856382038,1122.63305627562681365816,1117.93520699959958619729,1114.55907756200372205058,-925.654691078715700314206,-383.019263531650381082727,-645.421590629075012657268,-652.562103746321895414439,157.859088310135746269225
0.272500000000000019984014,0.121099653164630796653434,0.77277185960171601575297,0.240070798224444853508075,0.0307266190173838028842912,-0.0142883418773453538946905,0.0201581622475099191127423,-0.0135918700195662885132908,0.0151462851306344969265494,0.0123304310310968345126836,0.999716509961495969349698,-0.0288956154942823437159483,-0.0156586894411661625703402,9.32874067741215462490345,-0.0573165849810897271021659,0.00132677909997269347086579,1.21621421933864648501356,7.62597522479754186264245,4.21155560399563988482896,0.685895085194265119454826,1123.13756269996997616545,1121.57284187355389803997,1116.11568949318393606518,1113.04900605231409826956,-1023.36745695292756863637,-501.156248777578639419517,-819.875165116763355399598,-570.563338314286284003174,157.866185926522433646824
0.27500000000000002220446,0.0714657336338134357989205,0.793365113037638236548332,0.183971642802058299448476,0.0318499330665176147436846,-0.0120762152797859560748872,0.0204876735364107227799213,-0.0135335343890488485341095,0.0151344622186208328101786,0.0123347924400610577111426,0.999717441921422089734506,-0.0262059171257979020563944,-0.0158569426576021521579918,9.30223129697242612223818,-0.0567632979429228065604285,0.00221564937793832655854587,1.21507614217492232455697,7.62591973632989095222001,4.211647395462553511436,0.688924525975066814886816,1120.47608332310392142972,1120.12727503173891818733,1113.83583117401576600969,1111.70626087043228835682,-1178.11563097466091676324,-749.401683457107765207184,-1091.24751409039981808746,-578.798108237969586298277,157.8731747342426956493
0.277500000000000024424907,-0.0103522820325940446278823,0.760370363067973120685394,0.0940621746586392248890007,0.0330174537189131325765068,-0.00928421708092848005366982,0.0205227292837820117499259,-0.0134719818610356673049822,0.015118925212566724711194,0.0123280622568335811867213,0.999718614431419294596992,-0.0229172349813344181090891,-0.0162831796684435176070238,9.27549236880214778011577,-0.0561916322105626281357971,0.00309039590513660727966183,1.21388676880875090446921,7.62586473317409652139531,4.2117402967831347737615,0.691953495564164189346457,1117.24698454509666589729,1117.82583345626835580333,1110.65945192273193242727,1110.1550155111242474959,-1163.74508147609844854742,-941.856592870589452104468,-1219.26486200991234909452,-570.772696299763538263505,157.881435953546372275014
0.280000000000000026645353,-0.0800064131663374700220714,0.694173081021889681885284,0.0168303841631181512472626,0.0332723431489246393444326,-0.00721371229119299305770907,0.0203579146083278476886402,-0.0134081773628665860270681,0.0151004355282939890098293,0.0123142507574924790075821,0.999719948278533721008898,-0.0190656623369432412506974,-0.0169147487684120356732365,9.24849384847275146626089,-0.0556010043469082199107945,0.00394957274632294977334546,1.21263989744237732359977,7.62581078792270616872884,4.21183426703079888397951,0.694981932467552798726729,1114.65735791572342350264,1115.41799206738596694777,1107.73950686396619857987,1108.85239738893346839177,-994.464780190354758815374,-1049.82307802474588243058,-1196.8637811357427835901,-527.605282465674008562928,157.888216475966032703582
0.282500000000000028865799,-0.120184762120104093874318,0.605587623581220535484704,-0.0483260816481094479524216,0.0327286331237586214371049,-0.00562144796877201563534143,0.0200507052040076981513916,-0.0133433638541088708806548,0.0150826434015573548202971,0.0122993829954377610624849,0.999721294794546411210945,-0.0147510185871620111419666,-0.0177332961643606595858458,9.22122032799635604760624,-0.0549983671498499582241948,0.00479230340146106353893529,1.21132786783341139802417,7.62575896650343221239154,4.21192887402133475660548,0.698011740550911752301033,1112.27466064414488755574,1112.5767180661446218437,1104.67513301705321282498,1107.51698909879587517935,-992.428176875499957532156,-1313.04797585403207449417,-1344.85419942279690985742,-588.821601555218308021722,157.894890465073501673032
0.285000000000000031086245,-0.0977425807036359922674862,0.49788208484809115539349,-0.101871088827719807889949,0.031464096507600694541118,-0.00451055992195796822546994,0.0195296373561312519573363,-0.0132802799500830077950031,0.0150728879116917430236455,0.0122901128269944023840843,0.999722423278984195782471,-0.0101508437027868700375244,-0.0187490519916409525968959,9.19367211779097104340508,-0.0544001533139788981396912,0.00561509072972722275696178,1.20994209013866638180446,7.62570974426166880988376,4.21202362291447229836194,0.701044593623003864379939,1109.69521703134591916751,1108.85275218811580089096,1101.01523586685220834624,1105.90828938115737400949,-901.001904772009879707184,-1383.33139425767399188771,-1311.56564759130446873314,-580.164970302120650558209,157.902778115032958794473
0.287500000000000033306691,-0.000996205696262020268250126,0.422353221060127570485321,-0.121803015755186039292823,0.0300296466893802543873804,-0.00397730730058647435204433,0.0189765013516634932499993,-0.0132183070345688654517735,0.0150704033570135467745565,0.0122916662530718565765619,0.999723285539017236800419,-0.00530197657717512010888683,-0.019915641594073843489987,9.16586604884317956987161,-0.0538035182557171642869775,0.00642284776556458977814223,1.20847511918951333598216,7.62566376678148039047755,4.21211880147473394231383,0.704079159080950423010847,1107.76965112028483417816,1105.66006109485624619992,1098.11730477909668479697,1104.61616424728526908439,-729.619311188487927211099,-1253.1737362843741721008,-1098.69108467311184540449,-491.633351020896498084767,157.909252053365179335742
0.289999999999999980015986,0.182154790448485148779412,0.371875654761630647371362,-0.115668527334117421379034,0.0287139528175138769583441,-0.00330778852449364673890542,0.0183711486102847189327836,-0.0131561946140319446091338,0.0150709747745343212305125,0.0123046158165972321918424,0.999723952030368900878443,-0.00018871533249118638275732,-0.0211804382663512008599938,9.13783375135867537153445,-0.0531977112193239426440883,0.00722196825730388874964305,1.20692099472373870483466,7.62562131093387307601006,4.21221464888294061523766,0.707113510205611639491963,1106.04712047540351704811,1102.58688350669399369508,1095.52178044348670482577,1103.45012262605291653017,-715.751452807178793591447,-1281.53938557581068380387,-1050.14017907184256728215,-472.668037525550346344971,157.915625729719209857649
0.292499999999999982236432,0.478120508664003629473171,0.343392257776534870483687,-0.0840497905763106789578387,0.0281951747269588021138631,-0.00239571014999866681305374,0.0178437029151364105750144,-0.0130975849938648226944427,0.0150702288813310148613001,0.0123270954993054300541377,0.999724462252047252341924,0.00519629465682163588224896,-0.0225857787378885566109687,9.1096193560404454814261,-0.0525718725019805599441014,0.00800707656330548744882947,1.20527565206514086781908,7.6255823683387804479139,4.21231096164906926304639,0.710145592014534199343245,1104.19089385624897659,1099.25236416697725871927,1092.86660388373752539337,1102.25282405965754151111,-645.113754918747304145654,-1140.74364504126515384996,-892.318511786424210185942,-406.176047884309468827269,157.923161724405787254
0.294999999999999984456878,0.751510066734837778312794,0.346198319261576681338255,-0.0454391371544907440860328,0.0293637427356296838720784,-0.00162119337775514242745711,0.017896384435140171714762,-0.0130454591872907355726285,0.015066016642833085156794,0.0123592731121977671832068,0.999724807560314343568564,0.0108118175027567056667444,-0.0241673285448779501249916,9.08127621357612646590951,-0.0519201039251681872865873,0.00877468333650921472610662,1.20353704153278795452309,7.6255459614197054207807,4.21240646299786902773121,0.713172189372587417288685,1102.82155170080977768521,1096.88316528148766337836,1091.0601878845545797958,1101.41924238663136748073,-506.711521196529702137923,-848.463752082033465740096,-647.451652781318784946052,-311.840331140774367213453,157.929350876571476192112
0.297499999999999986677324,0.996609861745601066651545,0.375303045278014613117534,-0.00342941398767139526970738,0.0325260801685841732799886,-0.000734594103320986729389885,0.0185420544044804999628262,-0.0130014862086216057002197,0.0150610657888933241466134,0.0124031504641707781416704,0.999724901496813700418897,0.0165212334556468984358979,-0.0259415777706364647503534,9.05286353917080433006959,-0.0512475635036459958859822,0.00952451712736834127381869,1.20170490109422689606333,7.62551019118943784746989,4.21250012588356792520017,0.716191266431876139009205,1101.65733625026632580557,1095.01004540656708741153,1089.62934561983092862647,1100.69362240395366825396,-428.471439106669606644573,-667.12746128914602650184,-526.117775624333717132686,-287.873040562589949331596,157.935449294767948913432
0.29999999999999998889777,1.1803932578781237694443,0.425169133474897098512457,0.0398693621474601675447325,0.0367987595744870901737222,9.16742342896568383975656e-05,0.0191974893920352114584649,-0.0129629015535185198454426,0.0150563668206589243436788,0.0124585176255044196430566,0.999724769695644388534106,0.0222135813423314301684464,-0.0278494639246638087115571,9.0244432715470139783065,-0.0505545800256701344244092,0.0102661059135133962000319,1.19978107175929782357571,7.62547420506635909021043,4.21259221664989080835539,0.719201366819856580114845,1100.67919450527642766247,1093.54752797504193040368,1088.4295990064329089364,1099.97987718381841659721,-346.783228765206956722977,-498.106943865195262333145,-449.429871343863453603262,-303.920436928592323511111,157.941474933463297247727
0.302499999999999991118216,1.26505685872297468641534,0.49798573380438732050024,0.0926046636592079974725777,0.0412370934025596547201076,0.000710998906891332658683491,0.0192918807013484766565981,-0.0129206524941549352053505,0.0150536374660273121472986,0.0125209856903615336654045,0.999724560081296953484298,0.0277596121327103387277369,-0.0297216327079762865359669,8.99607666021569052361428,-0.0498428174046728483803648,0.0110226503857445683881577,1.19776861440840076689085,7.62543749498549594534325,4.21268439590510279657565,0.722202397046324273688356,1099.92342010644028960087,1092.51951068724110882613,1087.38219626311160936893,1099.17402021931070521532,-290.494006973449074848759,-379.138030654030103505647,-457.184968110231750415551,-399.531338670749050834274,157.947415278275400396524
0.304999999999999993338662,1.25053489149316199302575,0.60292043780306148192949,0.181482816691611592574418,0.045664609584912668749368,0.0016537328483358566290351,0.01878691209961958624719,-0.0128706303040913017099456,0.0150544879940515755056829,0.0125842121730852535971268,0.999724382808366396346855,0.0330262892382955156045377,-0.0314804223730108800882732,8.96782171344189116268808,-0.0491138091999631792861081,0.0118038425181993585771911,1.1956714716784593299792,7.6253994206010613510216,4.21277843379836802739646,0.725195183559434575215619,1099.22672447040918086714,1091.65183782177177818085,1086.14367416588174819481,1097.98222049046466963773,-233.603147472831352615685,-282.414459423398284343421,-468.138662417004127291875,-484.488484590883217606461,157.954447568401803891902
0.307499999999999995559108,1.15587579298488885015672,0.691329719339100923214403,0.281848919109995488252451,0.0484645769331909573307549,0.00296744374627623151360889,0.0181913113680942685468356,-0.0128158573589413141147197,0.0150634045998636213054001,0.0126441222796215592405478,0.999724184456630249329123,0.0378256152552490301776977,-0.0331760260764206449390912,8.93973078515735863902592,-0.0483763170961748756315757,0.0126010307531774761596877,1.19349372422783162051019,7.62535992638852899716539,4.21287569985381171733252,0.728180876143141087020183,1098.75540436907613184303,1091.10743839012411626754,1085.04150295102658674296,1096.75157779635628685355,-186.727489279837584490451,-213.220425485951437849508,-464.86602154022835975411,-540.91075066889925437863,157.960228990478299238021
0.309999999999999997779554,0.997333911103709835899167,0.758250064334956896949791,0.399721720483508291543728,0.0507899894590184836085101,0.00503436751368411660595426,0.0182140569450821403207907,-0.0127588442954894194791837,0.0150828345434128353874659,0.0126970702859758241554111,0.999723944446516132877889,0.0420063524868966378655877,-0.0348470640402911147059939,8.91184862464214155863829,-0.0476348487586334273791167,0.0134054855066337557517597,1.19123957402069691191571,7.62531985132091971735235,4.21297722870621615953723,0.731160830099843228602197,1098.29308702400999209203,1090.58573569434201999684,1083.81934405818060440652,1095.2776667371201710921,-227.321944063169013361403,-260.1832301607371391583,-562.655655651451070298208,-687.323635110805639669707,157.965929476736988590346
0.3125,0.755524441814511504844631,0.78888803767590165438861,0.530009617339459726537143,0.0537034230955456548528559,0.00813208258885418644457133,0.0199794143965026753384517,-0.0126979479049182421290798,0.0151040743380926895805816,0.0127442027459227797542285,0.999723798353677861605604,0.0456196531257459583774683,-0.0364577967094074917309143,8.88421085591855685947849,-0.0468680507516789218724895,0.0142173592266671179606963,1.18891393318729554628987,7.62528085488725704266244,4.21308299087096482793413,0.734134792503622124471008,1097.61879464876028578146,1089.80652223932042943488,1082.22822467276932911773,1093.31495962080225581303,-283.573990049899066434591,-332.526781223805016907136,-595.464799320324686959793,-730.554389155667422528495,157.972676649436039042484
0.315000000000000002220446,0.528039604578227406150859,0.762466959302625646444085,0.603358371568275986263075,0.0561868369724691230082669,0.0108888410680680770142859,0.0226437404444732592878609,-0.0126258464303528154804024,0.0151182703273349504369261,0.0127859740029184851956012,0.999723963958378036842589,0.0487229311525536126770142,-0.0378671915265168662623196,8.85684344084010533038054,-0.0460555345542796590319057,0.0150496287659056069557773,1.18652119527987509606248,7.62524409507162737043018,4.21319348689693029541559,0.737102530013587164958722,1096.87521707376049562299,1088.92310178822299349122,1080.84202006157897812955,1091.62489479134183056885,-347.572226258534726639482,-417.237878105833772224287,-553.632717631125615298515,-657.060321482367157841509,157.978220978300470278555
0.317500000000000004440892,0.304302291972754379578703,0.683275886844678215226168,0.623398988457320335498935,0.0578568801567020674081476,0.0134835683342284622099339,0.0253553135518407718462797,-0.0125401307733611026146159,0.015124225269318045117295,0.0128208860963039961156085,0.999724503958912769085998,0.0512422817481081940838017,-0.039014736515290207585771,8.82976314267174444694319,-0.0451968124483880170916272,0.0159035006998663741573097,1.18406477159241507735032,7.62521019032408542415169,4.21330872132432521226519,0.740063776936708106468643,1095.88093351746761072718,1087.72033284879125858424,1079.4600610846136987675,1090.02965801339041718165,-498.252504729861811938463,-604.80972237305593353085,-594.203154182968660279585,-649.106731070968976382574,157.98368278470408654357
0.320000000000000006661338,0.0924564640337126181224292,0.547235170718419983160175,0.593133029502415420886052,0.0577767894377504351299812,0.015620528159810190965695,0.0277874745738555424534599,-0.0124412167306158193136323,0.015118927227798799675651,0.0128477935483544188771665,0.999725469860510584929614,0.0531453232793469357297944,-0.03988518582940006607096,8.80297775480256738944718,-0.0442884339766821608086467,0.0167737900928182359638896,1.181547941238264121111,7.62517977601894791916948,4.2134280943801947216798,0.743018162806913240459039,1094.38395455011118428956,1085.89905317635771098139,1077.87100429066413198598,1088.37936113598698284477,-594.568833266611704857496,-721.293680204552629220416,-566.500956189747284952318,-548.741709146997436619131,157.990139686147188058385
0.322500000000000008881784,0.00243572084425565859797103,0.422617664344335786097417,0.540743465175752002771503,0.0558009766596377007608076,0.0163116188118797161843432,0.0289878897293487196307193,-0.0123293639701012262138713,0.0150998067832360492734889,0.0128676408251061254184311,0.999726884731499843006475,0.0544049763756220342014736,-0.040456242657240695792531,8.77648699378307028950985,-0.0433289493106000095368202,0.0176566204295888588837737,1.17897350406967671432312,7.6251529058989930831558,4.21355063553597730674483,0.745964918334155235868366,1092.90808935113454936072,1084.11386444776849202754,1076.627556303664960069,1087.28594946765542772482,-625.838504074271781973948,-747.028251397431859004428,-482.060404248704344354337,-381.463168655818321894913,157.995438028950815123608
0.32500000000000001110223,0.0270361161514724723797798,0.312153121512921627456194,0.485090049922768717927113,0.0527696028738677269664947,0.0161529042361636884783671,0.0294923319546451859207714,-0.0122100008351799863004494,0.0150706700353230287764417,0.012883980764018830578177,0.999728578373122678257801,0.0548971510856684011270268,-0.0407918910078058361001752,8.75028398519314976056194,-0.0423327328754894288698196,0.0185374034112746471913979,1.1763433541340961863142,7.62512943694605471733894,4.21367494136748010902238,0.748903977155859879033528,1091.25476202973982253752,1082.16391191937054827577,1075.46070226942060799047,1086.47204529270788952999,-678.530547633862965994922,-784.259783125525473224116,-459.600604262459057736123,-293.034958994894338957238,158.000649267325940172668
0.327500000000000013322676,0.133576027515279222024347,0.223692810340598846607918,0.440299748643106891865528,0.0506205381417685132405815,0.0158822984979976843111782,0.0296628795669926538514094,-0.0120912028704316335675495,0.0150394222684162130743157,0.0128978388650184926100817,0.999730320050978393808805,0.0544437373331785670615979,-0.0409976255078720736024778,8.72435661553142693946938,-0.0413244851979148036802414,0.0193967147858799746074077,1.17365852673039405829059,7.62510932887470094243554,4.21379969593647007997106,0.751835925003036864566752,1089.51543661296523168858,1080.19256553214086125081,1074.3295532823526627908,1085.82077467268095460895,-698.824921958429854385031,-763.082801050313037194428,-453.222077913414580052631,-245.395313094831863054424,158.005787122223409824073
0.330000000000000015543122,0.283079315587775104390289,0.159767864987213292771173,0.412503791427638710764825,0.051369025021980770084884,0.0162060043053591368300559,0.0297934911683123242187587,-0.0119764074216054238614104,0.0150141512452363155155632,0.012910276164369112114616,0.999731933986719889517758,0.0528856479601001530643778,-0.0410966179740618192672841,8.69868886423836507049145,-0.0403293556360270755156705,0.0202274143735521223785856,1.17091919360249518966555,7.62509227930058930411406,4.21392393205075510564939,0.754761093573007912915784,1087.76063741994767042343,1078.34849791411897967919,1073.19459187985353310069,1085.24506872723372907785,-752.345487553383691192721,-746.168523770256115312804,-510.668498035692664416274,-266.138262708136380751966,158.010835095445855813523
0.332500000000000017763568,0.423063578126859962669215,0.0995626952238388984728346,0.386133580850180679888695,0.0553314267579625221338269,0.017042591460327011915199,0.0304032117185184733165748,-0.0118704229279917462119842,0.0150008964551398612380373,0.0129265773633172199180708,0.999733204707689671053572,0.0501220866375584397922616,-0.041138834566007337345539,8.6732622386842237460769,-0.0393674438812514279617538,0.0210203833434475031993749,1.16812502528674899693328,7.62507831732496299537161,4.21404722808983667192706,0.757679701820876183582243,1085.75370917519830982201,1076.46172291328957726364,1071.77621079217419719498,1084.49008335914027156832,-705.62380678875274497841,-618.291506660170284703781,-532.986050260660249477951,-304.840305826337214512023,158.016786931311969510716
0.335000000000000019984014,0.461134042655771292373856,0.0564616645882880449636154,0.351340531066382133484893,0.0595067383328354362892476,0.0175576436658813755942177,0.0315177467927245658074753,-0.0117735428904351593221156,0.0149991975018284057902251,0.0129482000933565429695582,0.999734116672785000368151,0.0461871862930245194456269,-0.0410992197088735078391863,8.64805716758351827877505,-0.0384436870859113516418759,0.0217774774385187906700079,1.16527529852708067181766,7.62506743675735609855337,4.21416994522588161942167,0.760592229257594620861482,1084.23251838600390328793,1075.2570403808181254135,1070.52966162855022957956,1083.72086719810204158421,-569.994041929930517653702,-395.351141740865955398476,-510.213520624165084882407,-349.787304672917969128321,158.021657321402557272449
0.33750000000000002220446,0.410182660539963550583309,0.0188113233229373760790892,0.279296922939533343033247,0.0625438293638482245562216,0.0175436668323727638918452,0.0332114166416611900078948,-0.0116831504261408446188053,0.015008284437407376152307,0.012973537631614712184458,0.999734734299327132411861,0.0411413638664564554336955,-0.0409070707156957563688238,8.62305473896388008370195,-0.0375623033571782019568452,0.0225076206540848408610422,1.16236852386228739497653,7.62505961679676058651012,4.21429288559537340574934,0.763499538083002082800022,1082.90373896554865496,1074.48496720458524578135,1069.22514318905336949683,1082.74114683577568030159,-547.603099181287234387128,-247.762083996030696653179,-580.305459990267422654142,-484.281214876045396522386,158.026433150110449332715
0.340000000000000024424907,0.291193109712413744638582,-0.0199413466159604341187972,0.134547334718877753534372,0.0638056796816402344019181,0.0169592959626775272030663,0.0354997321103109539364162,-0.0116011056714135467327065,0.0150279687339354151021098,0.013004883944494016051463,0.999735009086628378938144,0.035054980135562498200219,-0.0405769161784824694549911,8.59823791479641208468365,-0.0367284587182149097062123,0.0232096749370755070507322,1.15940293722059784009559,7.62505487770918755074945,4.21441633707111762419117,0.766401500777824096211077,1081.49450289009746484226,1074.01822996083797079336,1067.62813432859888962412,1081.29946112372181232786,-500.632988463484707608586,-113.938893856948098459725,-585.797424985502743766119,-568.779689294251056708163,158.032052752499424741472
0.342500000000000026645353,0.19227409685784979664902,-0.0509243447701078696954191,-0.0291081791720252808230995,0.0629540906312789499965632,0.0163207885669829320940405,0.0369455951675897106833979,-0.0115271017476685725539065,0.0150522809042499504383894,0.0130424533520441341544194,0.999735029915101658382071,0.0281166367045298445925816,-0.0400941279297938601988704,8.57359241144852823879319,-0.0359335951690879784603538,0.0238873583396784633370302,1.15637697744678535904939,7.62505323268181367524221,4.21454092357134868507273,0.76929710133065376531647,1080.40057402323122914822,1073.91527273530050479167,1066.29615606412585293583,1079.89724838930442274432,-445.07029119367831526688,-17.9183782795007431332124,-531.493298787199364596745,-588.947351506748759675247,158.036641327668121448369
0.345000000000000028865799,0.140868508732140379491327,-0.0940624740252104935001043,-0.208179299870477507727884,0.0610935923925618601382226,0.0161727502354807109452572,0.0368747734260052306698441,-0.0114590598813098572955615,0.0150779127988925187170421,0.0130852734150490035425207,0.999734882256012591383865,0.020485712317555200556729,-0.0394213078109668518811404,8.54910739606527769751665,-0.0351748621668762570524613,0.0245485149735327617959157,1.1532889141352136164187,7.62505466481845672888085,4.21466705150828158110698,0.772186607201180930104556,1079.2691514341290712764,1073.92863806944046700664,1064.9706678346628905274,1078.35472436618806568731,-535.598777720587804651586,-18.5167885375903829014987,-588.362738838304153432546,-687.207377064259503640642,158.041129853449035636004
0.347500000000000031086245,0.150308016058092519529055,-0.180865454284065085843736,-0.391085737253510978828075,0.0595637030248450660696591,0.016806859199059380471919,0.0349242080587840175720515,-0.0113980970494276627469343,0.0151055601928699496927511,0.0131328778830944598032815,0.999734548627509878038211,0.0122670332746063689977056,-0.038583830516369571617119,8.52477539066600797923456,-0.034457983719557924717769,0.0251937392214090921660485,1.15013725627399177042776,7.62505845559619110929361,4.21479403631474447422534,0.775070165084847273462287,1077.72258013462828785123,1073.82268879261255278834,1063.3543423699343293265,1076.46121150398312238394,-615.927914774328542080184,-97.3856748937577378910646,-606.392759087065655876359,-682.177943428040975959448,158.046397867650028956632
0.350000000000000033306691,0.201960020696449554788998,-0.291397984970209189548029,-0.485407242459070520368414,0.0598167244800871869547798,0.0174393081712692667173403,0.0324863003512825543328546,-0.0113432147611526260716497,0.0151367267634087369204687,0.0131828850675121227176145,0.999734049054030959879924,0.00356415832201852772476158,-0.037578852684748337287246,8.5005918894729930457288,-0.0337896884053876592202137,0.0258284676268501281470868,1.14692101917920585840704,7.625064085001331370961,4.21492099339273096347824,0.777947315368790359713103,1076.18951186025742572383,1073.44170969497167789086,1061.93870403922755940584,1074.94383464904785796534,-675.835147045434155188559,-252.321216872317421575644,-593.389681124842013559828,-575.199417925620309688384,158.050687364490130448758
0.352499999999999980015986,0.265743719599432159927943,-0.435191511196966862584645,-0.501389378967022403266185,0.0615411612996862103508455,0.0173508477542231760726299,0.0301579060611794833035582,-0.0112892209542561575835729,0.0151682089453682219376551,0.0132356995598995174495682,0.999733485203439076194343,-0.00542864629248001467898277,-0.0363423800333282503993715,8.47655518290286735805239,-0.0331645758291898018477184,0.0264675414630762689816024,1.14364024164251376625145,7.62507194738567939396034,4.21504761324276788769794,0.780816717435136919966965,1074.34340439940115174977,1072.56108270825097861234,1060.38739396431014938571,1073.58521441435505039408,-790.799050709264406577859,-453.975741542449327425857,-651.196084081545791377721,-509.468193277012460384867,158.054869955225456124026
0.354999999999999982236432,0.320011910977134605982286,-0.589174576584249209965094,-0.455062031762296148595937,0.0636070625421885499362062,0.0162877132712783839751935,0.0282522204950838191905849,-0.011229052955684919873347,0.0151963388389494118840828,0.0132917420987134424215093,0.999732987313940224538555,-0.0145036823145139812107907,-0.034787054752037721572222,8.4526657407342575822895,-0.0325751502719418273290586,0.0271295972520342043576846,1.14029591250838380211974,7.62508209421738580857664,4.21517402636324423070846,0.783676563390196867509019,1072.23551660671114404977,1071.17183098725945455953,1058.68272361881986398657,1072.39649368266282181139,-895.801467760883610935707,-681.796500613472176155483,-725.302239132224030981888,-437.088859647746687642211,158.058961817002568750468
0.357499999999999984456878,0.357986341934244722828851,-0.727503491618435194077108,-0.351262728529999290749686,0.0650824958955151799955274,0.0139409367896832087074799,0.0270062546716204124330751,-0.0111612853695779810220268,0.0152185622563276862218018,0.0133485984071490763197554,0.999732641842340008508927,-0.0234723063434274306637839,-0.0329272015006497054123713,8.42892555883076077805072,-0.0320157825373194315776715,0.027819670924117221449956,1.1368901979010155312011,7.62509400850402485616542,4.21530046865877938699896,0.786525378264031349573315,1069.86439706059672971605,1069.15210020518361488939,1056.7608827686490258202,1071.39977011611631496635,-1078.13212342680253641447,-1010.25331470641413034173,-899.510386302335177788336,-413.614098393736298930889,158.062941674151545612403
0.359999999999999986677324,0.397521824113227728592079,-0.846611217918900149648209,-0.192615862248004254819733,0.0657722435911833880339827,0.0101365713853012254230812,0.0263338562356569827471731,-0.0110858108421392331094379,0.0152346276870627562322058,0.0134041750087870812496726,0.999732481772770631422986,-0.0321865897136222808838646,-0.030803813903729229672912,8.40533750326004813757663,-0.0314848973805015378002459,0.0285391325771024786939201,1.13342588815442257832444,7.62510654642508001188617,4.21542743682606246835576,0.789362031716366652212002,1066.84485598957712682022,1066.12056441372737936035,1054.18517168730818411859,1070.32842319069413861143,-1111.06267576255868334556,-1176.7499908927209162357,-988.614189026929125247989,-395.566985793947992533504,158.06758542209740880935
0.36249999999999998889777,0.43715463923288683245616,-0.900367524166919230843575,-0.056972869029125829121174,0.0657232096045727159916439,0.00700123062339272610871133,0.0264572811031397181480429,-0.0110066442751091432550314,0.0152440282361041030273485,0.0134579679389339318396068,0.999732477880373227030475,-0.0404997088403757990460186,-0.0285302669873336578465484,8.38190549624083658386553,-0.030979107069854190659175,0.0292792200639067287659678,1.12990628148191674107181,7.62511804553921024307783,4.21555553181520004102367,0.792186054106723047674166,1064.30908368178393175185,1063.26835025072000462387,1051.81781182351437564648,1069.42193518714657329838,-986.871456749485332693439,-1152.22024135191418281465,-987.204341053483403811697,-398.13583184554738636507,158.071344348851255290356
0.364999999999999991118216,0.486240774686256427283837,-0.919002870465172261305042,0.0570104801627725893409249,0.0658898027415548703800141,0.00469093910458317272377249,0.0271655474442374228472019,-0.01093039477853507621119,0.0152472235537246623288121,0.0135097780816019561594965,0.999732555210094409048338,-0.0482895278686834780734749,-0.0262635235605917227719175,8.35863469843676121229237,-0.0304962072890263349855822,0.0300245858423790340507864,1.1263344784475906035226,7.62512779143757413180538,4.21568544305230297197795,0.794997380016589372253577,1061.91049870582969560928,1060.35946320696780276194,1049.24914998204076255206,1068.33774403146639997431,-993.41317340294972382253,-1227.11596326007452262274,-1162.73713265468245481316,-550.955735136084967962233,158.074988656595365910107
0.367499999999999993338662,0.538408716918411967000679,-0.927302865830947897762826,0.151472419453524465016159,0.0671820148513879861207343,0.00275975161752108066881561,0.0282445689140839034658725,-0.0108638849519720696173986,0.0152467418601930533583744,0.0135598621734569855373786,0.999732600736416010533958,-0.0554789917217766367918408,-0.0241618627827852455736135,8.33553191526138803624235,-0.030037860087004777942532,0.030758828579675268066751,1.12271261051175152978487,7.6251357639762780138426,4.21581710498576267553972,0.79779707294751689428125,1059.34201781476917858527,1057.13277043441962632642,1046.00412616024095768807,1066.66715651146614618483,-876.346055430803176022891,-1101.95997611776783742243,-1200.81750803551472017716,-687.618359283760014477593,158.079231593816928125307
0.369999999999999995559108,0.55580089100346929953389,-0.938598825797161917527944,0.191795686318229546829528,0.06904365126732503465945,0.00139961757349373223935363,0.0290418443844327155145546,-0.0108093596928464097395306,0.0152431333399547438989252,0.0136079192305540563195931,0.999732589204142096939165,-0.0619698678604191574570415,-0.02230441449177809898341,8.31260703536846534689175,-0.0296007840398013061244953,0.0314751725273942906113689,1.11904130527401313166536,7.62514214777115206800318,4.21595033535731289475734,0.800586588153121225808206,1057.52876842867567575013,1054.84966332637895902735,1043.24506244186318326683,1064.89965223504759705975,-652.171022538868214724062,-807.275259798142769795959,-1088.96465918714875442674,-783.602375371764765077387,158.082661655619034490883
0.372499999999999997779554,0.525230026103449154639691,-0.961268027740283192983384,0.197206125477263488621205,0.071168130708302218545569,-6.35371449803478344220409e-05,0.0295977178699151945162615,-0.0107585863682375416916503,0.0152369373778398833896297,0.0136474808529039957211149,0.999732686623977295781174,-0.0676775676539157489131071,-0.0205923534255559870231878,8.28987352844493585735108,-0.029181880301989551740327,0.0321894851597392048225821,1.11531887272359653273668,7.62514846045920702266585,4.21608640588274941052305,0.803368603194813180046197,1056.08116270207483466947,1053.09639413542890906683,1040.55930286430520936847,1062.74914463460731894884,-557.851237176964332320495,-654.938720095832991319185,-1129.14617214364534447668,-1012.86369474942057422595,158.085986674897696957487
0.375,0.423416369502011891157167,-0.991963119312523566861728,0.174114674304196859200289,0.0734323109256665024213717,-0.00227845898610609665091431,0.030001605683870950086467,-0.0107032123197453449270355,0.0152294375648922789695527,0.0136783086628022645947489,0.999732961172356104917469,-0.0725447798929644005472284,-0.0189222052627767561849836,8.2673495574889344084113,-0.0287793970893255625365104,0.0329173421183866637962367,1.11154193830179948143666,7.62515630265294142020593,4.21622603628309189360834,0.8061447579894674975165,1054.73951224279085181479,1051.57496972589979122858,1037.59933158114495199698,1059.83533376130048964114,-434.589802309892149878578,-481.055017490870795882074,-1015.50724709513724519638,-1099.98595683496114361333,158.089862375351003720425
0.377500000000000002220446,0.28840347805330646124844,-1.00428859173569384743985,0.137893285768378809352797,0.0748173322599920281872343,-0.00472177668066872321950278,0.0301767616013972096722373,-0.0106368594993423697808721,0.0152222232188417433418337,0.0137045634332872787869428,0.999733396804853624573184,-0.0765358938321061554876934,-0.0172194384158955576813455,8.24505875677421862235406,-0.0283921360375714061652364,0.0336695647362652838996411,1.10770600793794171678996,7.62516603536526904605353,4.21636931908298517868161,0.808916071741843878406542,1053.90821369052537193056,1050.69111904797455281368,1035.48176662882951859501,1057.2492148504325086833,-285.716724820303852538927,-306.02598028999608459344,-748.489998599915679733385,-1038.09836853965771297226,158.09300312224686990703
0.380000000000000004440892,0.116760579701535693875059,-0.980110680337303530329507,0.0904992349288039621413304,0.0754996070044550299238395,-0.00773968249627457732103819,0.0302584377313851737856254,-0.0105542375775977727292432,0.0152142721109259047851392,0.0137311808007804254244677,0.999733997689015940757429,-0.0795901661192465470495705,-0.015423663150814545530487,8.22303089434978673466503,-0.0280131487188822955736178,0.0344543868840911995943266,1.10380622947131135092036,7.62517696522976429207574,4.21651588544710875794408,0.811683395437241439474008,1053.31092861868933141523,1050.04483982444980938453,1033.8568815881453701877,1054.64484191860219652881,-210.53462248905796627696,-241.871553375585563117056,-555.597582851396055048099,-1027.74679995441056234995,158.096059938720202353579
