t,ang acc x,ang acc y,ang acc z,ang vel x,ang vel y,ang vel z,quat x,quat y,quat z,quat w,acc x,acc y,acc z,vel x,vel y,vel z,pos x,pos y,pos z,mot 1,mot 2,mot 3,mot 4,dmot 1,dmot 2,dmot 3,dmot 4,vbat
1.68250000000000010658141,-0.0389582593778260988237605,2.73767562801476582734495,-0.0151988732019362610126123,-0.0995670038727443224013669,0.13935700905083278633434,-0.00709662873333594644564837,0.000524820972276509797871391,0.009148411839717179860898,-0.226407600687095339475619,-0.973988964416443669946943,0.0241286735877293267993338,-0.146105584946836397630676,10.400943558112176745567,-0.0693629011683806889765336,-0.0132765178758016879484449,0.822554231605540975280633,-0.181855189090189217626659,1.55517799762536812480107,0.190644216170672148313869,1207.24738186472859524656,1205.23059817440093866026,1244.95541303356480966613,1177.14847659441534233338,-44.214971436030168661091,-854.814253465454612523899,-391.526302993488627635088,262.394187882540165901446,160.612321428739448947454
1.68500000000000005329071,0.0842218181274959898363619,2.39469349433759415290979,0.269737999745092049685979,-0.0956061466644972934858515,0.14458398112816581160267,-0.00641870323576702699053254,0.000705818016046650970746201,0.00901504157256605501147284,-0.226431932846087702326798,-0.973983892166083053965053,0.0148208928411816820425173,-0.14548072118559535192972,10.4556144498332432846155,-0.070331729739763648723283,-0.0136688916458710812973365,0.823904871899271529223086,-0.18202479634586726797707,1.55507439258836854811818,0.19268947314685419547331,1206.80379632339577256062,1202.95830121549465729913,1243.50629955306885676691,1177.58030797968922342989,-296.219081771511753231607,-829.214359390898039237072,-665.101112433345065255708,55.4674001382420982508847,160.620898526127490413273
1.6875,0.0836064618112051238796312,2.09277580038919808202991,0.490082664433605152964901,-0.0932473912948724031890535,0.149563092805127167972401,-0.0041998158949431256548035,0.000892703870301336322237717,0.00886220642818978839028166,-0.226441211570468925451394,-0.9739825365449465977008,0.00627346310259183082003176,-0.144378282246767630780937,10.5110477257023404717984,-0.0713603949502900625212476,-0.0140485781249233138145982,0.825429186771567402480798,-0.182196021277998776444207,1.55496577446783268428021,0.19473582477801562595765,1205.7662864558710680285,1201.08452637744653657137,1241.62990747139815539413,1177.42581359510654692713,-555.671279212686386017594,-768.256958875706914113835,-862.596243331718369518057,-140.112931635715796119257,160.627735930224929461474
1.68999999999999994670929,0.0327826611336066095492292,1.77576169953280205149326,0.66725119618578354607763,-0.092738131386821423540745,0.155236757132453939700412,-0.00158569741909254501716076,0.00108445514351296020717774,0.00869328912547368513885626,-0.22643805293312541104811,-0.973984251655722554907868,-0.00165958771764967982775829,-0.142888413276837267229524,10.5671109552400608322387,-0.0724390044559415913205669,-0.0144181364565298050783859,0.827096732822251934358349,-0.182368582757418351558698,1.55485301446639634370683,0.196783080828686091079405,1204.02543992733239974768,1199.11701642111620458309,1239.19331833641035700566,1176.87974332151065937069,-799.972421976171744972817,-815.15898302548453102645,-1035.75081001033481697959,-248.607834498710587922687,160.634252897986186781054
1.69250000000000011546319,0.000156709432601524284662045,1.45054317545237942965741,0.805728882969525606050354,-0.093577648646970670864853,0.160532981349916864521887,0.000481115164168120941750456,0.00128336773128885249170561,0.00849782250605100701601469,-0.22641766265615625997043,-0.973990455703576230028773,-0.0084731083658163286465026,-0.140812105475407262078491,10.6232409863738190836102,-0.0735763350602864352190124,-0.0147555180105157952852313,0.829011827380080612570623,-0.182547396961666219539211,1.55472820186099003336722,0.198831422551686842759011,1201.7664243459901172173,1197.00873146231901955616,1236.45115342134636193805,1176.18277442261296528159,-997.926054243293606305087,-880.521320930327078713162,-1124.13993521801921815495,-269.875952509112835286942,160.640504864689205533068
1.69500000000000006217249,0.0579730968690324865999486,1.13923906680247166711695,0.905543379223093358731944,-0.0957150471791739509974661,0.164339323248334501226253,0.00183343417145856099614853,0.00148482760107376647595867,0.00829291228570952498877489,-0.226391143079152784567398,-0.973998256467864420571345,-0.0149261717808212152069913,-0.138549347166295688804638,10.6793942049738479482812,-0.0747359452778867672240182,-0.0150823682074011401754721,0.831014258317527843011874,-0.182728435262247190795648,1.55459910214028096397954,0.20088015044870183301029,1199.03580965611581632402,1194.7144098164644674398,1233.57261866032013131189,1175.53036355896506393037,-1261.4408468597771388886,-1038.41021696550728847797,-1239.15378632985175499925,-230.862601489257400544375,160.646437628143218034893
1.69750000000000000888178,0.288326544584749600019791,0.832854924258175310924912,0.985895886118798192576662,-0.098358272129089679980396,0.166473950679059123913817,0.0035705592204968326572323,0.00166727097929814517367209,0.00806526204491367360027709,-0.226374650291945644919878,-0.974004728258632601622935,-0.0196196953035972232459727,-0.135128775163898651179295,10.7343798619294759078002,-0.075912064492505482160567,-0.0153109774075803912324334,0.833333017286912447474378,-0.182916491623314719783266,1.55446272602169788257243,0.202932303868816332759195,1195.45922011169136567332,1191.81668037749159339,1230.25538448969723503978,1175.02846141516670286364,-1324.96376023453285597498,-1064.59826937250454648165,-1159.23044037874865352933,-120.357172731158087231051,160.653187685504121873237
1.69999999999999995559108,0.621509890760109207086259,0.672160733506968810502258,1.01302565136363020847909,-0.099457732925132935619672,0.166844824214544801277427,0.00573423149956711532965192,0.00184623105820582800520868,0.00783132133476639041846923,-0.226359984596334218309721,-0.974011073458358245247268,-0.0240518758073222649329637,-0.131509261668544652490453,10.7889696596322099964027,-0.0770930686027764267009843,-0.0155204356948078960737325,0.835713136729340111408249,-0.183105868245021952134266,1.55432611611438353804715,0.204986699686259155051005,1192.41099085494329301582,1189.39141846960205839423,1227.7764664584265119629,1174.92857769530928635504,-1193.39147303769073005242,-936.971180992055678871111,-910.87152815137130801304,24.578728492860477672366,160.658504414114531755331
1.70250000000000012434498,1.06987344205229439886295,0.638934529585062915835181,0.981652809931646386232273,-0.0983486207687656877052262,0.167167518179054480631507,0.008912403558791647667503,0.00201019651626977487873793,0.00756352224126930795800039,-0.226353153576024229698405,-0.974017246470523456736146,-0.0272097849437104161163248,-0.126911443202089774251462,10.841271807983019925814,-0.0782865226883980441785482,-0.0156364175204776224836767,0.838374601901107574519756,-0.183301039060497189536747,1.55419200605852170227195,0.207055900453156749296824,1189.49226274650277446199,1187.13182447253120699315,1225.70102684894027333939,1175.15135505763100809418,-1213.66725149757189683442,-913.304388126768344591255,-825.009887298509966058191,151.272928977910993353362,160.663500229373340744132
1.70500000000000007105427,1.67195077663836988435264,0.752422711719628156679107,0.862549248319153472053245,-0.0944444677870400067787315,0.167980174925488140447172,0.0132263408486940937935916,0.00218047307159084050726117,0.00727969976702733286011426,-0.226346662654555413896063,-0.974024085337082512481288,-0.030186968784403939158878,-0.122243907959478523284069,10.8923959014831766012321,-0.0794917207544174470035259,-0.0157413872866325015020816,0.841119459753550180458603,-0.183498791570726488275866,1.55405887855144508868932,0.209134712545817197382192,1186.34265459745529369684,1184.82489652896811094251,1223.65141702193386663566,1175.68494234019885880116,-1071.34460033018967806129,-755.088576375026377718314,-698.395892646400511694083,219.672847640326978080338,160.669123329510711073453
1.70750000000000001776357,2.16990776188520406719817,0.963798507456423259043277,0.700847707078584125639509,-0.0893710711808395757982382,0.169076629749290691107078,0.016161757019606402124845,0.00236494495894128868920814,0.00695983645857856363797778,-0.226340936705606676770941,-0.974032421886820709566734,-0.0326835872786766512554379,-0.117393671263435084295423,10.9408688198151953230308,-0.0807199835247572328178478,-0.0158203617279775929360675,0.844053202594585716411757,-0.183702350997366647966658,1.55392796105724939614845,0.211235143059948643484702,1184.13553974485193975852,1183.35638159065615582222,1222.2090473857083452458,1176.24971929583261953667,-776.657027452454940430471,-485.389504574742545628396,-554.045106165870492986869,228.782212203809990569425,160.673498843388102841345
1.70999999999999996447286,2.60059836875835292957504,1.26764465487194066817267,0.50128032991242443827673,-0.0826199496987200243669491,0.170903289619683679267936,0.0174377280208604622246948,0.0025443173323170058773568,0.00663356553736951445876535,-0.226336214896303677956979,-0.974041330596865151392194,-0.0345224745213053574310891,-0.112219050198621772551633,10.9869108475116039613795,-0.0819240381285191859861428,-0.0158718789736369721155018,0.847100401779096401355673,-0.183910953817296635159906,1.55379877373736974277563,0.213350998947283015949594,1182.45936946019310198608,1182.39794900609444994188,1220.88119149110457328788,1176.82885340121788431134,-579.227414392048785884981,-312.48171361429928083453,-533.397694858319027844118,220.89418367949693333685,160.67755169947201920877
1.71250000000000013322676,2.93768141366131940728224,1.61549045296961657491863,0.296979079014265956448781,-0.0743599096383623092698656,0.173646475600062549782265,0.017345824173345906343835,0.00271854526439822179531558,0.00630083055157573158899798,-0.226332506073235156796031,-0.974050816508016170658379,-0.035693349695051848624594,-0.106713733142029587597222,11.0305021257518891530935,-0.0831039744541527680699033,-0.0158956306223049237402734,0.850262119345158717820254,-0.184124644463406456074139,1.55367133183484518177409,0.215482416107178359476748,1181.23940267289162875386,1181.79397302258462332247,1219.54205891141668871569,1177.35419021423012964078,-391.884751745274172662903,-193.882339658644070823357,-554.342726330865730233199,182.981084194439375778529,160.681336723238473496167
1.71500000000000007993606,3.13703730561978177959759,1.96545499444953630785449,0.110054116368314441887222,-0.06467797079464018827899,0.177754099076177063398774,0.0163663978602769273618112,0.00285620462469612489825321,0.00600279331214278229905679,-0.226350005070382137573048,-0.974054068358218616552335,-0.0350744896561217406327771,-0.10032100052433108594574,11.0701475146147743089386,-0.0841689616383088229367715,-0.0158574509868371488208183,0.853556773420673042807039,-0.184337459412051152263246,1.5535480955638081290715,0.217630249807488296287517,1180.49994570146668593225,1181.42853730780120713462,1218.10947785945018040366,1177.7437588221901023644,-254.578761215412640694922,-166.186784892037309191437,-660.639194423006756551331,121.602686798908365517491,160.684798541524401116476
1.71750000000000002664535,3.22571629665949499710109,2.31433974009774212632351,-0.0894754610508552844505559,-0.0533350862735111896917317,0.184263385494259135377604,0.0154325037890524260214553,0.00297726915588703662171599,0.00572050192066548678776483,-0.226377128182856712790283,-0.974054491189648041782334,-0.0336624651064618557461117,-0.0935280020519777960386065,11.1080065215757208818559,-0.0851838398884629255380929,-0.0157913477596210924391862,0.856911375624004101325681,-0.184549876968917225816824,1.55342676780963118154943,0.219785533338880623155376,1179.96650886681459269312,1180.96303909812445454008,1216.23886293930172541877,1177.96220364822465853649,-177.252712709109033539789,-213.673093541005982842762,-712.439430491819393864716,27.9660258319387651226862,160.688578853117974176712
1.71999999999999997335465,3.21064039384414767752673,2.49294137754751243818419,-0.247660171475477780544949,-0.0453776014867607879743616,0.191167926599245419083672,0.0154357116739822705642204,0.00301407421477018671110426,0.00549442695672024312980586,-0.226444165869596286677634,-0.974038763339527324802702,-0.0297727045757139735515651,-0.0847779741007767262406247,11.1402505203516959397803,-0.0860285780819079054504428,-0.0155965252266430307037659,0.860410695583724405288706,-0.184750746317719177769234,1.55331485900204180339301,0.221941879592930435549647,1179.61368213792115966498,1180.36017184009619995777,1214.54728070699115960451,1177.88358895134979320574,-172.016745119067877567431,-308.339148644147087452438,-704.791070942639748864167,-87.5353040209554649209167,160.691417532953352065306
1.72250000000000014210855,3.16457330967213490424683,2.50478438369312339517592,-0.41599916284062915527997,-0.0387539699370974682901547,0.199818518224695401697133,0.0157806680521317271859161,0.00303382156656514107018197,0.00527924470083887282384483,-0.226517708543023610356926,-0.974020288756607288682687,-0.0254182825632527781278824,-0.0756156644774000075148734,11.1712508564320955883886,-0.0868423246118972952389825,-0.0153755552051430890991846,0.863939057430363144263197,-0.184949473059085628401377,1.55320473002212988689053,0.224097948839731997416891,1179.10642514121923341008,1179.42134335490368357569,1212.71490758458844538836,1177.52452712811987112218,-299.538247358479907234141,-476.783098429257620409771,-840.895410133888276504877,-206.727566140348017142969,160.693933340679791399452
1.72500000000000008881784,3.13721083146276136233155,2.30884856810714467201251,-0.635169130346373012052652,-0.03134490537057254416764,0.210401773813525871936747,0.0153546419791453035014195,0.00298033433095390171835293,0.00510623024214980347768034,-0.226604331139300396724678,-0.973994949348985450399141,-0.0191631731438354074859021,-0.0645522543149790462013726,11.1958512804477443580708,-0.0875234690733062564715894,-0.0150481782479499302807024,0.86759560914708677703544,-0.185140840987756460922498,1.553101045787952605437,0.226248190355909151172398,1178.11599090112872545433,1177.97625634794985671761,1210.34280365632162101974,1176.84995112064802924579,-434.538496053674123231758,-547.735678756328411509458,-899.72966227248537052219,-267.611258282846620204509,160.696580735033251130517
1.72750000000000003552714,3.16779699398115388575548,1.99854023862616081430588,-0.8215422250194653885913,-0.0254252182666185148895988,0.217397216160938461237961,0.0137644237242174685698082,0.00292716447307063334232202,0.00493442127126651492591281,-0.22668388540277384368693,-0.973971843621706967475404,-0.012796199447046477382095,-0.053334513562157868926672,11.2186112252502923070097,-0.0881962366396468883111837,-0.0147220205301362636052254,0.871277456580622389203938,-0.185334131042283190016207,1.55299704026120388711263,0.228402939520474829171448,1176.93373266095090912131,1176.68266496112210006686,1208.21625927322611460113,1176.18647083670566644287,-527.75777779894485775003,-474.824835672517224338662,-878.927246034182303446869,-262.905179699833922768448,160.698479220086937857559
1.72999999999999998223643,3.2648337724839819884437,1.61005540916102507509322,-0.99051272644157628555206,-0.0194741578584428226550429,0.22139390858198418343683,0.0109061025431350447356671,0.0028749074403111836775726,0.00476607946098901724685248,-0.226743110099306088844884,-0.973955162288317688457084,-0.00608302751301643962467125,-0.0416856979507454622480012,11.2360752203727169984404,-0.0888407897991315836927484,-0.0144023118519076270133139,0.875032884323127424508471,-0.18553294941407272311551,1.55289211064966492514827,0.230570653346186427157249,1175.47720201213405744056,1175.60213216958732118655,1205.94816742615080329415,1175.53542522214888776944,-657.523370387675981874054,-350.236521869335945211787,-1018.2645967815677749968,-269.697715554963281192613,160.700061549496780344271
1.73249999999999992894573,3.4354055245088681580512,1.1557951589399364511479,-1.15411191288404202381912,-0.011589275552300177390963,0.222964731149484229888458,0.00694083267817715773850828,0.00285781782525484006826644,0.00457913907458652822551892,-0.226782362741041548792609,-0.973945272098884040623545,8.70481489811114617083376e-05,-0.030411538614934618962593,11.2503155492157116412955,-0.0895145860241811919255639,-0.0141323777004940618479134,0.878810018872629883368575,-0.185738266622636122304968,1.5527823571826062654111,0.232752648374431742039903,1173.64611580901259912935,1174.93148235177545757324,1203.12493628931838429708,1174.83798225893087874283,-647.335904387713185315079,-96.6394375026061851485792,-1036.25903643839933465642,-243.332277330631598033506,160.701599602900330410193
1.73500000000000009769963,3.58370194738221359287422,0.845591412190270896864774,-1.25399673740580297476299,-0.00388909522191957339465329,0.222568103400872852049019,0.00393296214347928219101647,0.0028840536452591075677887,0.00436928567793897805471293,-0.226797010278972366315031,-0.973943748439769163560698,0.00558991643401980653482752,-0.0196026361310820546046685,11.2605872618618256808531,-0.0902245943328129074156863,-0.0139249051397345446900999,0.88261394290037598064913,-0.185951590245915399091103,1.55266666083851223589818,0.234952237509762074108011,1172.24052249019541704911,1175.11893498207427910529,1200.76687224395868724969,1174.31876383549570164178,-500.462467211116120324732,257.060847331552849936998,-921.695320686173204194347,-206.591950268961909387144,160.702584825195884832283
1.73750000000000004440892,3.67446991329474403897848,0.635201602628487460577844,-1.31897729336066804606276,0.00523090121033235443820386,0.222016654279728720133846,0.00139834676952389986084868,0.002978421284667850249539,0.00411441515717992506440126,-0.226782883872993612506264,-0.973951589781708593207554,0.00966625320242308488927208,-0.00965518832266343968173672,11.2663675669499117049099,-0.0910072771720482204260705,-0.0138001038882455372147628,0.886416310683662223013357,-0.186168245977547025526988,1.55254140535756390839595,0.237165231082079125402018,1171.14380347295696083165,1176.2167865884332513815,1198.51645968588741197891,1173.80502250758604532166,-370.897879047341746172606,584.910834959567864643759,-868.635009702502770778665,-215.605278639582195410185,160.70326802709911362399
1.73999999999999999111822,3.66758000186713539747529,0.49647294118918888772285,-1.35513707461441179624728,0.0152376099802770757080106,0.222446883048131843763073,-0.00104873155123767574335714,0.00311143363173577202143716,0.00383401069917755970770101,-0.226752436742567731187137,-0.97396474299893864845501,0.0129323246728686933049168,-0.000196532406928455471994965,11.2696069835606760278779,-0.0918337607902329905451566,-0.0137232216784733580816624,0.890217450529025233763036,-0.18638679169764943432952,1.55241072788653133862624,0.239385827717887272880759,1170.38603309495874782442,1178.04348915687205590075,1196.42369719544626605057,1173.24073744229781368631,-214.235859519481010693198,869.299093618492747737037,-794.508043815420592181908,-247.257910010335564265915,160.703705697534360297141
1.74249999999999993782751,3.49526778510816926726079,0.406434051448808508766319,-1.34702827446751438600359,0.0255646532868509662739243,0.22437737603819304932351,-0.00393357824365452198034365,0.00329545897005219376105223,0.00354259325465019732706584,-0.226684065442791515820886,-0.973986993793751754111554,0.0153997257328994316405435,0.00861907916971102472381006,11.2673111684903837215188,-0.092650897476856952650337,-0.0136898779672121710671018,0.89399121642274392840477,-0.186605126635601220597138,1.55227501340352080916318,0.24162357555173114009861,1170.07262417535957865766,1180.56328205652562246541,1194.5439194668103937147,1172.56873295753439379041,-37.1744432468395231694558,1191.87653730011311381531,-791.087807599460461460694,-320.971555856014560959011,160.703854214741340911132
1.74500000000000010658141,3.06608275494471671507313,0.307696664804257780101437,-1.26369658357886738286879,0.0373549778289413575427247,0.227306918283062264762862,-0.0083887668087138829442484,0.00348988096847206068565339,0.003249074221038355386737,-0.226607539133813623566382,-0.974011075735680131870708,0.0176985699043638033955972,0.0173130150843499031054762,11.263764736815355504973,-0.0934685943185037393377002,-0.0136656463650131430181967,0.897757686127238052620214,-0.186823393182993208183618,1.552138350679028278023,0.243865259525210403834805,1170.20016087872454590979,1184.0028718433727590309,1192.46825815744887222536,1171.63587966301770393329,123.871727087677626855111,1264.55860555799335998017,-750.884096164719153421174,-352.428386070724684486777,160.703708514606717017159
1.74750000000000005329071,2.52684910459560407858248,0.216486182741572719123724,-1.11824380381954902041741,0.0459949958313721207758817,0.229278952050479351010281,-0.0127968738194454215162388,0.00367398023490830534856788,0.00296550599833161248122804,-0.226515671700827259105182,-0.974032075091584514936471,0.019744692532588675737415,0.0264708544216075702948388,11.2541623943971753618598,-0.0942069803900187352496687,-0.0135541724765079509007482,0.90146279936886752892633,-0.18704032806260731391923,1.55200693964642821853772,0.246127285123176497982911,1170.69198281079798107385,1186.88607508431573478447,1190.78949898598671097716,1170.80659102718072972493,262.546698690317612090439,1083.32484692921343594207,-685.439053550195353636809,-318.089112736567983574787,160.703325758901513609089
1.75,1.8360180886053876214703,0.121054150920413938763431,-0.894258440008251276331919,0.0525671992569504420433901,0.230184076688566663371205,-0.0168287768761136019568525,0.00384403412204836715179712,0.00268416377885808722647543,-0.22643010111853198451648,-0.974050377169716541381206,0.0217800587506206191901192,0.0359290099265354018198693,11.2434229417678377416223,-0.0949293642935620102241145,-0.0134003168774765486770395,0.905148855139602193098369,-0.18725650433379034676129,1.55187654522724516326093,0.248392255859155169916974,1171.51289437217610611697,1189.41949607801871025003,1189.04106288969796878519,1170.04543409933489783725,411.587912271906702699198,973.103040352382549826871,-798.894459043975757595035,-285.090865526405366381368,160.702683144153297689627
1.75249999999999994670929,0.909577592899447506802346,0.0271528823164084234798032,-0.568447535399575265557814,0.0572497503538928198540958,0.229809540190289762762177,-0.0194775458605997951744282,0.00396067704868940679424627,0.00241128647644041089331823,-0.226368475837850802179219,-0.974058422195082984629266,0.0237551422846489779239221,0.046509670007195719199089,11.2283235769564058159631,-0.0955770393700287324012521,-0.0130793641547479588121972,0.908763839016755947675108,-0.187469795812466560880338,1.55175001672708701150327,0.250668426196564209096351,1172.74992237215747081791,1191.75159028607754407858,1186.79502669076691745431,1169.38113669954873330425,471.334785517581678959687,715.620698274671553917869,-841.231538557011504053662,-181.253774276224618233755,160.701626157223614654868
1.75500000000000011546319,0.127569274744789323827732,-0.0150600823603596802729987,-0.288879466780777471868191,0.0578842612432317951687288,0.228624823853893599512332,-0.0196085474234954544592302,0.00405414080997459208566269,0.00214309932854558557457914,-0.226319782749439618596554,-0.974063464186341820827408,0.0256664259560033247709043,0.0574278821398033489931123,11.2113483861531069152306,-0.0961953308160153341965781,-0.0126785804255574070797952,0.912333225588659146865211,-0.187682434567878503317573,1.55162353524165341767116,0.252950063107773792658861,1173.86956829976406879723,1192.99759956939215044258,1184.83490519691281406267,1169.13916522795375385613,435.133630203325935781322,355.068280894548479409423,-774.418057613939140537695,-19.6039910142185398456149,160.70051873287374633037
1.75750000000000006217249,-0.580692691097223656626625,-0.0115874144328000014403379,-0.0440517032234294947379283,0.0552280601061935910722767,0.227582363237860380023037,-0.0187523202215747683552216,0.00411258259280143818881204,0.00188199865197727833274199,-0.226290629232542173099318,-0.974063968818544845262863,0.0274772260804667031730553,0.0688510416409782721736121,11.1915322246536028671926,-0.0967666350155936966226378,-0.0121561517198456574967436,0.915833921509161874574545,-0.187894087107447260720505,1.55149712479193890857232,0.255239959601540999933889,1174.92559052317415080324,1193.52693169055032740289,1182.92293640269713250746,1169.28311674447763834905,390.920805468758032930054,109.846825792421967094015,-726.472877902976506447885,119.559604284361554960014,160.699191167980870886822
1.76000000000000000888178,-1.18128635453735331140024,0.0219097448288424756501769,0.153039587544609750890956,0.0508149696433411526830248,0.227142424232738809886101,-0.0177936438449025034758133,0.00414698265704979869561431,0.00163496530514910145930052,-0.226274986133957994871579,-0.974062617983748602057403,0.0292845848770439051711456,0.0802815178734788692516133,11.1694515038916080129638,-0.0972917441211663541755783,-0.0115376020775058464595819,0.919257361020834218301445,-0.18810484150402273506586,1.55137161014798219405009,0.257538687801134980048801,1175.82417232710781718197,1193.5468336983542485541,1181.20254080739800883748,1169.73696324937554891221,303.388913266832901172165,-84.9916768100701887078685,-604.544050775179243828461,242.14297493463681121284,160.697693133329948977917
1.76249999999999995559108,-1.62910288775912159842107,0.0710444153289041535614956,0.285417144613953288612151,0.0455801684590231154237117,0.227345299216435065003949,-0.0167902281729803981580318,0.0041645583517391981595579,0.00139777626098518971929641,-0.226268797612002969810163,-0.974059968695083155942882,0.0310971842343894591675912,0.0917142595901201673758152,11.1457855746097660443183,-0.0977851741227489107410875,-0.0108513939078485662642626,0.922626630226356936326226,-0.188314967381069175988983,1.55124672238795913159493,0.259843596419245148609889,1176.44253508950828290835,1193.10197330649998548324,1179.90021614882130052138,1170.49383161915079654136,196.392411652182090620045,-267.699190638580319046014,-441.315993769457065809547,376.909901885110627972608,160.696004378278615831732
1.76500000000000012434498,-2.00055020024859553373631,0.118789973448934021993395,0.372525761256957299583092,0.0393684573969908593871203,0.228220232097095299117484,-0.0155598673040761321245684,0.00415974678048770807325951,0.00116188561989854317532678,-0.226264555945841050466072,-0.974058611529185380817353,0.032510347554043937667867,0.102754562494685841578246,11.1198311077830780391196,-0.0982603632781399449758197,-0.0100587448254055855656475,0.925878855242882381482161,-0.188522587861580825929764,1.55112736033090614640173,0.26215797986599365110294,1176.80613438536875037244,1192.2083377451613159792,1178.99596083855067263357,1171.62151275880114553729,71.6399010120296111381322,-372.059036826013254994905,-213.546672403976629084354,429.593393412677926335164,160.693775721862039063126
1.76750000000000007105427,-2.19825341762033854564606,0.132062995941249233800008,0.392421133650942277615314,0.0345848558176890530369008,0.229216227851558512762509,-0.0144377800047590567483757,0.0041485600128072343609209,0.000926364723589307662715564,-0.226260868683603788564795,-0.974057622319628668705604,0.0338272873594659267970641,0.113677666548314348915483,11.0932252501673715983088,-0.0987324238036593054834711,-0.00923513225137803997477626,0.92909742683141838259786,-0.188729494883151854844883,1.55100957182204557405214,0.264475061448988635337543,1176.80073459456843920634,1191.24167812236987629149,1178.83248278680139264907,1172.64179858621423591103,-55.9475828759344153695565,-429.911658149612833312858,40.7754053459947982673839,402.020028627029603285337,160.691762692744418927759
1.77000000000000001776357,-2.31618652482381115476073,0.107533552525702472135727,0.36955599231174762753227,0.0302568753927284009308529,0.230120435844509085843157,-0.0134006745164396458280809,0.00411843250570454854492253,0.000663141501125415265376073,-0.226217755626074767949518,-0.974067210638518199417035,0.0340508205492584259399536,0.123774487812268879638467,11.0646642924408666885938,-0.0992449107116385037530293,-0.0083102492728977222363751,0.932153301076961482429795,-0.188941601282577448239763,1.55090105023028135278196,0.266813887845450903313349,1176.52639647098908426415,1190.05877945441329757159,1179.1998378652806422906,1173.63161290193625063694,-166.774842607768647440025,-581.295716410489717418386,233.816568097704902129408,406.832357548327820495615,160.689602144777666126174
1.77249999999999996447286,-2.39359241761734509168491,0.0363962155711517118539255,0.309811710715868438015264,0.0251861703586866367277075,0.230793670072296813744472,-0.0127385583183612770968862,0.00408891947101591452656821,0.00039563873607590001584694,-0.226165851685172419882619,-0.974078953055504404012765,0.0341077549851422356930186,0.133569588084017393248004,11.0358638561622228735359,-0.0997678647365650844713869,-0.00737714567568661418184295,0.935175779253305194949064,-0.189155567625552245569764,1.55079389617090956932088,0.269156481062303221118981,1175.96686038152961373271,1188.33519954031748966372,1180.00156562728989229072,1174.67596037395583152829,-233.229024631095029462813,-691.926704506461078381108,303.32957841650778618714,349.221141864282913047646,160.686854342143760732142
1.77500000000000013322676,-2.40727050962445199289164,-0.0490614497819135894629561,0.244455328625585416313371,0.0203750553670654817317587,0.230883087365884254182902,-0.0124797601169636795254148,0.00406595353483087985912992,0.000110207239897380644103216,-0.22607408919598315222288,-0.974100303409789036734878,0.0333587212933971824502244,0.141945997643018573253215,11.0061316604507624106191,-0.100326161635411650885352,-0.00642240222606712748976143,0.938051492873554826346094,-0.189378511786366110491997,1.55069239938539782386329,0.27151531239659698613309,1175.36025134783358225832,1186.59914593188091203046,1180.71648575736321618024,1175.377718611257705561,-262.844068803672882950195,-758.594764952232026189449,232.662741441294286914854,244.75261767574355076249,160.684445743885788715488
1.77750000000000007993606,-2.35145794209933178819938,-0.147485935630974868137955,0.170629085980908312691895,0.0143351195705459181356511,0.23051915255096275259028,-0.0121626680021551039634353,0.00405249010162920565714106,-0.000181946151814651611768742,-0.225980441113371177674907,-0.974122009322757720362063,0.03234004129882400713214,0.149547922459949939044677,10.9763107169025886378222,-0.100901621095648583170679,-0.00547636173418706347776341,0.940867358957377830641633,-0.189603801684194106513814,1.55059276678200519405948,0.273877208635459834518144,1174.65264003751121890673,1184.54222571555624199391,1181.16487933449639058381,1175.89972346233457756171,-294.326433563316527397546,-864.74393655659719115647,96.5382017894646793365609,187.011984714858385814296,160.681925597004635619669
1.78000000000000002664535,-2.22092463135105866456342,-0.246075595108780187381115,0.0916606482538672578952443,0.00739831312107368677805086,0.229801616553485660299216,-0.0116896767603895754966681,0.00405679213808022090526073,-0.000486666509442797374021539,-0.225883267806637949570714,-0.974144379972903262654427,0.0307940341890399482682739,0.155711769382737730271771,10.9463244195239148837118,-0.10150619503489798078899,-0.00454758418965281116519428,0.943571910488222642676703,-0.18983347707075176602487,1.55049661937308447257067,0.27624483488768958316939,1173.88861918001703088521,1182.27542624909801816102,1181.19917676631052927405,1176.31277853483197759488,-311.498258407989226270729,-924.650299813694459771796,-113.216271558897147997413,156.60530573018482414227,160.679321086968002418871
1.78249999999999997335465,-1.99337090084762347252934,-0.335041684447714538386265,0.00863389205114019342435228,0.000344805926595987332836102,0.22862779549520084731995,-0.0111041465876049686573035,0.0040881456480477210146951,-0.000806466364696408095913416,-0.225801062210938457974763,-0.974162993940017818417232,0.0287579517908835985418037,0.160452572776532936815741,10.916614123811642755868,-0.10214713092560392948549,-0.0036601521988482194243375,0.94619110535062223021896,-0.190065340770116331103878,1.55040099794907337837913,0.278614796565792743887613,1173.09514874547130602878,1179.91897421648786803416,1180.59879797670191692305,1176.68274999098548505572,-344.441574978819744501379,-993.806900055892356249387,-417.397716893346455435676,179.613646736875523401977,160.676623968601916203625
1.78500000000000014210855,-1.63406588096308125201972,-0.425540537776095018074329,-0.0864770918502908297886833,-0.0062962758163271079561718,0.226697336056472936727246,-0.0108610521504540966097885,0.00414267964493227232314343,-0.00113918788564821129097315,-0.225731682490679125274724,-0.974178388794435856645748,0.0263107012447008903333057,0.163976653802059280096159,10.8871409612764882268721,-0.102819820380139148596754,-0.00280841288497726132566967,0.94873712026616907611043,-0.190299079641136847929062,1.55030582724307230968464,0.280986759477169889542836,1172.16641130512289237231,1177.30639174881844155607,1179.11218818184374867997,1177.21084676851637595973,-329.632281679816173891595,-866.927969903215853264555,-658.587159962310806804453,226.645030544290648322203,160.673291323397620544711
1.78750000000000008881784,-1.30463461653389245498147,-0.492022555187059174031106,-0.149730576447897834047041,-0.00945159597474430450414484,0.224822507643709507130225,-0.0114251849272211034036495,0.00422490600141822800900337,-0.00145931273250664728796666,-0.225689698620688661279132,-0.97418711073879404871434,0.0240543881061592926262627,0.165684458749850993530828,10.8585189536367128226857,-0.103474196524553377352085,-0.002017993889717966012054,0.95119082166042456805144,-0.190532082864601520766357,1.55020990557595328418472,0.283361332157858303304465,1171.44698733707218707423,1175.58433436697168872342,1177.30586217689028671884,1177.8159751437069644453,-273.39121028931589307831,-531.074782714642879000166,-804.927535642372163238178,295.928385081157955482922,160.670441445956129200567
1.79000000000000003552714,-1.0008280922921253264235,-0.567232290385014437106292,-0.181557009950625014571557,-0.0107845207887381187850107,0.223272931633139937179777,-0.0124022673131453133044122,0.00431744886200441293361285,-0.00177474481783072325635775,-0.225657920793292388061957,-0.974193346759056888473083,0.0218920053053799357201115,0.166718161411126497561952,10.8302153688210864856956,-0.10412374147758624021165,-0.0012506462358969220108329,0.953609933515760066491396,-0.19076481203012618514947,1.5501137041459835952395,0.285736877081294915470266,1170.79945525367634218128,1174.65101783524528400449,1175.08755050363197369734,1178.69048869392213418905,-273.090676209545904384868,-174.443246264767452657907,-1012.90121539766346359102,464.150670576292100122373,160.667524229792832102248
1.79249999999999998223643,-0.713215598510687387445728,-0.699434917822721935465324,-0.175156965275852422037062,-0.0116385667987888609398173,0.222467424820363079973617,-0.0132914032134578349864107,0.00440271381798497743464971,-0.00206058471910133258683806,-0.225667924775883016463851,-0.974189832537978528392841,0.0205784367216484201379423,0.166446758935813843294227,10.8034668208637842923281,-0.10470591468073173202491,-0.000493279322596336909645398,0.955936912893114887346258,-0.190992736649427286010905,1.55001984927767000321808,0.288112962942308092895161,1170.08153395602448654245,1174.71211813564787007635,1172.24135609990207740339,1180.13672849658837549214,-261.934167089890365787141,236.111234901505241623454,-1025.64245627911441260949,603.465709477235691338137,160.663954161764849004612
1.79499999999999992894573,-0.55315360233463350958516,-0.863792039174628101250164,-0.132756008873563202676849,-0.0119963812469064869808966,0.222193849415339733655017,-0.0139309289350943148882989,0.00448341407604043243328995,-0.00234069172997026630350659,-0.225684848316915986909947,-0.974184756640701365881796,0.0194816417681266326744627,0.165996294843038794120105,10.77708812971374818801,-0.105275797066483919883773,0.000266812482511004193941329,0.958245998719040370517064,-0.191219817365837763123437,1.54992663284488352282153,0.290490417999013483818516,1169.48978441822691820562,1175.83157400975278505939,1169.95933822223651077366,1181.70781724130824841268,-250.400068596667239262388,655.00506421693296488229,-838.997881618278142923373,703.713784752728429339186,160.660926806663752586246
1.79750000000000009769963,-0.473371599426207823047008,-1.08707645384108819719415,-0.0567487690316695672643199,-0.0124041391318944135835345,0.220941313380107973163291,-0.0147031581635344733155479,0.00453196105247535233756517,-0.00259527773473561566494605,-0.225728169044974391610481,-0.974173956043028477225221,0.0193417683675436019585803,0.165011751399760098202307,10.7525984860368790663188,-0.105776115495488487461273,0.00105765416643718856981593,0.96047710848845968545362,-0.191443467165276631769544,1.54983694804958993529453,0.292878710734783831437511,1168.8295336130411214981,1177.98714345673261050251,1168.04636669181059005496,1183.65529742035209892492,-327.883455216116715291719,1125.92794366434782205033,-712.15075565249378541921,929.380580962221188201511,160.65785106210029198337
1.80000000000000004440892,-0.446770479290620636803055,-1.39842802894850382067204,0.0589068447591929930662324,-0.0132067275408289837301812,0.217445894541366230301449,-0.0154246667181837000815126,0.00457053220715001803919897,-0.00284063533916439469456661,-0.225772552469839182798239,-0.974163251302238131223987,0.0195640763562967973099305,0.163898068744054492551498,10.7288495470596405567676,-0.106252895139883285491322,0.00185354507730959867234377,0.962682174131671564154544,-0.191667821972851704082075,1.54974967248565809185834,0.295274004123386779596672,1167.85036714214629682829,1181.46121372807465377264,1166.3985844439739594236,1186.35472014611946178775,-405.803494326036798156565,1353.67858212942496720643,-486.581788727300022401323,1030.74045523078370933945,160.654110173110552750586
1.80249999999999999111822,-0.456435157075353370448312,-1.6680512856945493016525,0.156895202709444125943605,-0.0141443196188090532933179,0.21311619514779370221369,-0.0151925100639420575937555,0.00458568307573916679464876,-0.00306432738248071934172856,-0.225819430793252146072447,-0.974152771605125034071193,0.0205988935025209624063436,0.162481662768056644985393,10.7068361253195245552661,-0.106671174227730827799299,0.00266124350540410635479471,0.964826491818918885456924,-0.191893831931515046473891,1.54966805308611110802985,0.297685732979269479514528,1166.80051614141098070832,1184.75553636737959095626,1165.61345774817414167046,1188.80899969650590719539,-481.209766255107069810038,1309.7543650130144214927,-212.025517523447859957741,993.282517931650772879948,160.650954787649283161954
1.80499999999999993782751,-0.463981665590792402564801,-1.92289991766295687014576,0.229006012054940560895844,-0.01581060581654646773897,0.208005227519480473397095,-0.0137641608637199940740059,0.00460426576342299036931349,-0.00327511203465836271339628,-0.225853872877581240974365,-0.974146116531445449560067,0.0220653949734547771832638,0.160570739908905690818131,10.6861775039441937451556,-0.107057690682226813727596,0.00343496695311403237721448,0.966924751433479334750132,-0.19212404840838709363382,1.54958993332961014743887,0.300108923328747612124801,1165.44431831087081263831,1188.00998555313958604529,1165.33845685635674271907,1191.32113273577760992339,-593.567706444250575259503,1233.89691599747379768814,-60.3067020649163794132619,988.891020456207911593083,160.647763383281301230454
1.80750000000000010658141,-0.445793747698306541682456,-2.15595670422008423017246,0.264366404392660625521927,-0.0179778354182163861707533,0.202628707329446933194106,-0.0119787981971942250614127,0.00462643815107321391272288,-0.0034723954910391109304757,-0.225875306593523256237788,-0.974143462033038809444463,0.0239794597452690008698717,0.158143972469374394229646,10.6669359668023684406535,-0.107410753890533505749971,0.00417302855476327141243109,0.968974920728737920683216,-0.19235866492437994623721,1.54951547421726876230252,0.302544102457948771434104,1163.83267760918965905148,1190.92502094736710205325,1165.31192423784955281008,1193.75345479878706100862,-690.597395456991307582939,1031.86264072366952859738,-3.50154224779536082934328,924.926786607581107091391,160.644543846607433579265
1.81000000000000005329071,-0.380101402181944991731655,-2.36124409527236700512276,0.253061393696164982358709,-0.0199958895629584187947358,0.197326038000088244128705,-0.0106634848839706527362514,0.00466857879884953475002618,-0.00367257432006551452069454,-0.225884257467270838093398,-0.974145457909001422081019,0.0259574190630843734672872,0.154971299292514408385557,10.649718813594359900776,-0.107755585212269661132822,0.00484375828721787804465038,0.970956802676366859117252,-0.192600095541703375534581,1.5494417595938581033721,0.304987071767874651229135,1161.99133133358577651961,1193.16929875675805305946,1165.3209491451177655108,1195.94576666881562232447,-822.101786433876668525045,798.827768835707274774904,-47.5248267253856440106574,879.078873343378859317454,160.641291521353451798859
1.8125,-0.245744482115631157626012,-2.57698400465099464184959,0.20054525589120583695113,-0.0214202599137263346995574,0.190774758102461250430792,-0.00971166234566036255804189,0.00472016807436818376653154,-0.00387412318825064048641305,-0.225887301680732788256023,-0.974149654259917952003889,0.0279722977897445407302612,0.151446558861923707972608,10.6334613906946220396321,-0.108097398542986361524854,0.00548253420216424612598782,0.972906346092097806810273,-0.192844750471333620245318,1.54936839724945052410021,0.30743372725362427821949,1159.72216867702036324772,1194.919159791545553162,1165.0743001042226296704,1198.14884916550386151357,-800.845131010936484017293,482.485328909716656653472,-159.31647028724339065775,720.219929119700168484997,160.637351079575182666304
1.81499999999999994670929,-0.0974823385870565300992396,-2.7283215377301761606077,0.141945031933845472460476,-0.0215519217750004647704554,0.18459120582586943659642,-0.00925264686377058609423329,0.00480486714844074319641365,-0.00409138456458854604669284,-0.225904620399740241332154,-0.974152534649619150641797,0.0297236086235334664995555,0.147026432139008012001113,10.6199070083087026006297,-0.108442937471867895116162,0.00603797948719476691020747,0.974777228443656218459523,-0.193093550447310496886999,1.5492941909715500781175,0.309886486655566506520643,1157.98710567853117936465,1195.58172540130658489943,1164.52436679368156546843,1199.54686631441404642828,-608.943339548872700106585,118.705021563570866760529,-294.94389194023142408696,455.048354624330784190533,160.634035329157114802001
1.81750000000000011546319,0.0753917903305822423298821,-2.84155372194354693959895,0.0912022998130563450347452,-0.0211392641888743099132242,0.177855504971449501772085,-0.00930627619373477869835209,0.00489582001526466057544917,-0.00431041099364979675423459,-0.225925361538423907781237,-0.974154889403266888159294,0.0314588224963201559813974,0.142430945011543214073768,10.6069483352485836036294,-0.108786663250012349823947,0.00657707305371205835919923,0.976632841315034805340645,-0.193342768758727939770736,1.54921968740677962195207,0.312340284593401240620381,1156.67745197927592926135,1195.51268489936342120927,1163.59958064452143844392,1200.42409093862556801469,-426.410292092750012216129,-159.589082950465979138244,-465.214795568170472961356,259.523613920731293092103,160.630684542551676941002
1.82000000000000006217249,0.303431175221200499780849,-2.92254222465669366570751,0.0630024460739001673781345,-0.0208648699356195656273716,0.169742210094676965193017,-0.0104662313968310119460803,0.00500684182559002401852188,-0.00451974172850115683136574,-0.2259663602621486688804,-0.974152018845981015893187,0.0334209160260029169986495,0.137169981547212077588327,10.5969473530502558134003,-0.109070715539303336738541,0.00705957123131870610543981,0.978434422220139765613567,-0.193588673519038106940471,1.54914246892547335932022,0.314795954623548923656529,1155.85505421806738013402,1194.78377998655423652963,1162.19829281584065938659,1200.84448438401773273654,-154.459005617221578177123,-340.460750449263287009671,-526.697893760876809210458,53.1442540384443802281567,160.626619937529568460377
1.82250000000000000888178,0.506267279935101122134711,-2.93584261367694709932152,0.0733828394080545537425664,-0.0205675747836419238467887,0.162918419990063484403819,-0.0119794517556273960590119,0.00511734456062914837282118,-0.00472661226080538406091325,-0.22600876044155807087499,-0.974146759837061004816405,0.0354368191681078067989397,0.131864077956745207043099,10.5877109335661110378624,-0.109338322720658298603524,0.00754223431979971718069899,0.98023074135334331558056,-0.193831938850162199816651,1.54906432059170606763132,0.317250058120571443165403,1155.90515695118983785505,1193.81038114711714115401,1160.96609117571711067285,1200.68981220881778426701,173.485795935861517591547,-425.37500851345612318255,-456.399295300944402242749,-148.238849538941821037952,160.62319386266176479694
1.82499999999999995559108,0.709961702190982757443294,-2.88024535555083893711981,0.103067632877539977487302,-0.0192427504703033061539408,0.155847121338477917484866,-0.0128001049472881156532367,0.00522628121500253849801565,-0.00492606021733882088603496,-0.226055388895188363873601,-0.974134294729094185605334,0.0375958959805956921540471,0.126418504982964641225607,10.58077533108439638454,-0.109553071649776859186609,0.00802626533283506971017118,0.982011066897724105295708,-0.194067240868205231896226,1.54898336683837944960374,0.319699435295026257453088,1156.72248319774666924786,1192.65690494398700138845,1159.9162963393359859765,1200.1032901363230394054,433.26687751158624450909,-465.973744981363950046216,-354.236807304588182887528,-282.434231725249276223622,160.619725474504548401455
1.82750000000000012434498,0.899823129315644343328984,-2.75755816969745248812274,0.119354240805221001320291,-0.0168029977197911607744718,0.148585628237194039558133,-0.0123676991008589576975796,0.00532481335241570541416678,-0.00511869226530433339694692,-0.226086683027071966289867,-0.974121864287575633944982,0.0398650487752685300790745,0.121063103829604390426766,10.575107377315388745842,-0.109731977629805632634685,0.00853207681994429603666852,0.983798328081271433731558,-0.194298862533082095094272,1.54890220737743611323367,0.322147114636300579970651,1158.07149133874781909981,1191.48051242221026768675,1159.19490713919412883115,1199.27764105019150520093,618.657373394566320712329,-453.379848335897349898005,-176.479934987533425783113,-350.130460396249986843031,160.616221734413016974941
1.83000000000000007105427,1.05850093677917089785012,-2.54681447443762731808192,0.0775633049074662406230374,-0.0133309763036902392124849,0.141459176014041426716616,-0.0104881838007466615669827,0.00541004862719078258304073,-0.00530261365420434376688474,-0.226098380057937503595511,-0.974109478149411511793687,0.0422718174190254078470552,0.115822395972433184185846,10.5710587376943063731005,-0.10986462534472693497456,0.00906594368601752048641984,0.985594425975543919626887,-0.194525780745535531446322,1.54882078502433406796968,0.324592624164725784829955,1159.81577006471957247413,1190.39000570230746234301,1159.03389666439829852607,1198.35263783434174911235,776.098708137777293813997,-440.80421867921387502065,82.5866882583358687952568,-376.565852741904393496952,160.61267651921289711936
1.83250000000000001776357,1.21101643563229077749099,-2.19625413337959418669243,-0.0741790966054119704775616,-0.00905057363748498419631083,0.133565065667292565132485,-0.0077198222682550513007449,0.00547741411833813432452622,-0.00546967638597740946071468,-0.226080666517143619165253,-0.974103838202747152053007,0.0449091336026765097777513,0.110694747738848076057394,10.5686684353722561979794,-0.10993450213317773611621,0.00963723301272861529453984,0.98741706127001593884529,-0.194752950111538924993226,1.54874018151558967559822,0.327042274252325848582501,1161.95198487943662257749,1189.27649132881424520747,1159.6078405804857993644,1197.39481178648202330805,728.125238356476188528177,-368.773778725843499159964,340.795181531946582254022,-288.543121545814528872143,160.60837769683016063027
1.83499999999999996447286,1.31918307508339327505098,-1.83783947965937488611132,-0.282435652344370347055502,-0.0060382873206689833753269,0.127879571060401514559501,-0.00618930412152313234180889,0.00553424086521066803390223,-0.005626796687557753667841,-0.226045608026900379794455,-0.974102176837387090380105,0.0476824988586127679335291,0.105634192853744313111974,10.5672571618329875775544,-0.109967863340134711092055,0.0102306112525467583773686,0.989255398950790065804028,-0.194980267595901923805002,1.54866006092211017097782,0.329494366243823944007119,1163.45639625650187554129,1188.54613680867828406917,1160.73787257205799505755,1196.90992222661270716344,485.665635498742346953804,-251.188564321722537897585,572.658856030453080165898,-92.8333552918026185807321,160.604762052008567252415
1.83750000000000013322676,1.43001099793875985355385,-1.44312437378791935671529,-0.536560521923108657560419,-0.0036757325950176117021484,0.123722935682230333886977,-0.00651318843401777706342282,0.0055682146547616356846433,-0.00575687795333975141365279,-0.22598012052434246488275,-0.974109994290697223107145,0.0507800349755982982635771,0.100629862847241846601776,10.5677667094902272282297,-0.109912307110576021318415,0.0108670056551511337583626,0.99113502894311755753165,-0.195212973871163264494299,1.54858352373180352401505,0.331961076539753541236877,1164.38031305693039030302,1188.02054850720560352784,1162.47113486063813070359,1196.93064501002299948595,243.42370368021312287965,-194.321426981055140004173,865.357824651826376793906,148.562082267241038380234,160.60111808304918668
1.84000000000000007993606,1.58217206988805925149677,-0.976782126064450473279521,-0.821778455487832015791128,-0.00078384707110808746807068,0.120667131648162367918431,-0.00923594107509613342077426,0.00559709132299391308451586,-0.0058810820611347562614224,-0.225907785692644108577198,-0.974119960592776279462157,0.0539438038460568203280587,0.0956370103997403742113192,10.5687210264833524320238,-0.109837880447348087975534,0.01151311413169129119205,0.993024154066023845288669,-0.195446949474982395456024,1.54850785998275042310013,0.334431169389757254606366,1164.67351477490296929318,1187.574529673772985916,1165.06466169531722698594,1197.65273263794892955048,-16.4589002646156465914373,-145.533226148202999183923,1000.08396833884353327448,379.282210039863343808975,160.596721832177109945405
1.84250000000000002664535,1.72163358916119957342516,-0.629752740606550176494238,-0.989730096742230003314944,0.00231447685246321784371948,0.119449547496476168872981,-0.0128985331207666104741394,0.00562063139428472125641578,-0.00601566456368369650159478,-0.225821777312003868498635,-0.974135910122791770504591,0.0564540499402203937995282,0.0904240170367990037103567,10.5717104768541521053749,-0.109752112945332241933372,0.0121745483749286370622755,0.994945836487182155849496,-0.195689508374385368050241,1.54844109530444962175011,0.336917941701163681234021,1164.29801855560731382866,1187.29288237646460402175,1167.47155470233224150434,1198.82705606022227584617,-229.629895091834782760998,-110.4296485624696231298,965.299899200702043344791,562.409842360250991077919,160.593046262989190609005
1.84499999999999997335465,1.85328120357591785705154,-0.359097851202066886688868,-1.04019876090515506206202,0.0065179329973959936397887,0.119142194869506390375591,-0.0171692970769522328111645,0.00564165465253414332574833,-0.00615960771575452432913256,-0.225740628086320560541367,-0.974151099496904149255272,0.0586890373476201265834362,0.08523861125534443194951,10.5750573322771685980115,-0.109679971982776694461315,0.0128417778562953041610051,0.996869566074052637638658,-0.195931772758923539168308,1.54837697306442612088517,0.339406209566798233723262,1163.52536529944381982205,1187.02238143096064959536,1169.89116119132063431607,1200.46478184975012482028,-350.441622954796116573561,-128.265632480903832401964,1014.30006808484381508606,772.63731062692420437088,160.589366841819185083295
1.84750000000000014210855,1.96834290152198354562074,-0.144517229922659362628679,-0.948198508863197897511554,0.0127595140265337678164848,0.119344532449092821657644,-0.0222454851795047051088439,0.00565255787426303512449577,-0.00634118978397037354188814,-0.225679017390044978075281,-0.974163232304885551293694,0.0598152915066981136216206,0.0801595970517925415776972,10.5798345276749490295742,-0.109658886569642094466204,0.0135319783427190268310092,0.998801202311681457501891,-0.196172852907231576313762,1.54832347599656694470127,0.34190049101514924378975,1162.54581044083329288696,1186.65155421406007008045,1172.54305504275657767721,1202.69024261335698611219,-309.556165202268061875657,-142.568151090241713063733,897.353311970052573087742,812.7733972839263287824,160.584956056018967274213
1.85000000000000008881784,2.00773927929188511498637,-0.0623169880571850312578341,-0.758254185318963380701973,0.0184071195495701146749301,0.119728687028746172416049,-0.0258136433314665771077134,0.00565670654867662069109624,-0.00652825802608606852589501,-0.22562798168564521250623,-0.97417334984627712568539,0.060682949363143175169899,0.0751554307202008109456415,10.5852224196263566824427,-0.109642407686964565849408,0.0142216494146207364512868,1.00073222053623434035785,-0.196411840578697038939282,1.54827608565253171946097,0.344402223099792847982314,1161.97758447343244370131,1186.30954067550942454545,1174.37792775117100063653,1204.52864883616985025583,-125.035819551160727769457,-130.016219520305696732976,623.780940809560547677393,684.088410356494932784699,160.581290021698350756196
1.85250000000000003552714,1.97685145491106539772375,-0.074529520467706958375409,-0.495221749451435822031442,0.0238654867037741552637797,0.120111479584333324943657,-0.0277888306159140736906199,0.00565025525741121373290987,-0.00672393576523137425499099,-0.225593541401442526650456,-0.974180304813525577145583,0.0611446269332276276520233,0.070268156592413449912371,10.5915671493946295100841,-0.10963226337123598008727,0.0149104165676050871847114,1.00266220571902486824456,-0.196647544509346128283056,1.54823827863953566996713,0.346915647528172166325078,1161.92063134307750260632,1186.00147311645855552342,1175.6619597468043139088,1206.11068466513938801654,78.2343483085713415903228,-102.000539992652548448859,402.746439737765683730686,568.455349986891974367609,160.577640190205443104787
1.85499999999999998223643,1.88921316794904625702145,-0.153261504662477093807738,-0.21818898537438771723096,0.028890685186360450659171,0.120353312154973676739722,-0.0279423489013712472717188,0.00563664346205216236496138,-0.00690039786145064601430299,-0.225564100611660711681594,-0.97418647760533372270686,0.0618034825573128901443631,0.065414369488838386423879,10.5987108201386597272631,-0.109582323651597840497018,0.0155677432279533976833275,1.00458758348116394820693,-0.196882714245368961591964,1.54820504944727943552607,0.349447310782668663087236,1162.36875621497529209591,1185.79953797554617267451,1176.3916599498597861384,1207.37092558610424930521,292.394087492272660711023,-38.4326675213750590387463,142.039441064346959819886,421.122009024256726661406,160.574007881611379389142
1.85749999999999992894573,1.74338845192725289123814,-0.290102808962095171096962,0.0212511512226622178989288,0.0333383668958265808046626,0.120245058630292875334611,-0.0264975479135787297946258,0.00561783059785023967253048,-0.00706290257695882470884152,-0.225538291230271775722471,-0.974192082260002201188342,0.0626043329111997531866152,0.0605856101727403062451316,10.6064354050985389932293,-0.109503661793284814973681,0.0162023715539220611314697,1.00650961642612424284948,-0.197117495966387556993737,1.54817514537857636724993,0.351992221901981483522803,1163.38260178053883464599,1185.80930977885168431385,1176.37215695212603350228,1208.21629471026062674355,539.182749194047801211127,61.1772919892231996641385,-186.041013932931747376642,291.846384029297553297511,160.570400950036173526314
1.86000000000000009769963,1.51903824341493898231192,-0.484081813332763510882017,0.219433582928101611475569,0.0380279139867693988241726,0.11943236093708969880467,-0.0242733547800796610471874,0.00558572495160033610089867,-0.00720405423793764668194406,-0.225506624427743412875103,-0.974199095163819639431324,0.0636636801892163373128852,0.0560859200028233362278485,10.61506932108511769286,-0.109381438970664046639314,0.0167979910467345519564653,1.00842428397547090312969,-0.197356049191911103735109,1.54814162484021800025857,0.354554299245269599616392,1165.06466996094559362973,1186.10542443549229574273,1175.46145488019510594313,1208.83015750625077089353,659.26973567578284018964,147.804547522079019472585,-467.810526652863813978911,179.556567856657636639284,160.566106572174987832113
1.86250000000000004440892,1.3049436460935670556438,-0.638518772604592776964694,0.299666512084661273984665,0.0412412952114106154399842,0.117968281864417809390311,-0.0225592340476738449639438,0.00554963303355333979066666,-0.00733880249301202807615807,-0.225473201087523555941061,-0.974206530376815593719186,0.0647980367900949788539933,0.0516869150254655879139776,10.6239776871419753234704,-0.109246823047349644886239,0.0173823084465364423312206,1.01033673182126304546102,-0.19759573342537459228474,1.54810701978614684293234,0.357121524437536641549684,1166.67895045891782501712,1186.54833251646209646424,1174.03310431886166043114,1209.11407754954393567459,653.668376902046816212533,193.774127700321088241253,-671.118823868769823093317,93.2045420267533586411446,160.562558861492647110936
1.86499999999999999111822,1.07793944804196240028205,-0.746564479148170145883512,0.301428347843173405351536,0.04391365887784338950528,0.115513312139851054283213,-0.0212878254579728781736847,0.00550314441211235440276628,-0.00746654597509866565369085,-0.225434592302403813413036,-0.974214532668847055241201,0.065912097739843480970201,0.0479054405483910067387043,10.6337900026455276503157,-0.109098729304459560185414,0.0179226751477351738117694,1.01226284503435093320434,-0.197831782003035666628321,1.54806947324889065953357,0.359674136818066259024818,1168.33301184545575779339,1187.0742950739938805782,1172.10586076085132845037,1209.29618021638452773914,713.240733440322173919412,216.607221294730209137924,-896.428834919262044422794,79.5112142268879864559494,160.559045389254492874898
1.86749999999999993782751,0.804914326425608894766128,-0.787578369379677400985429,0.241541582845978985982782,0.0468911020125002409031367,0.111607728233805408857293,-0.0204224701931961724610254,0.00545632354700843064110316,-0.00759369376316031737678136,-0.22539538353573806972463,-0.974222440454362570427804,0.0670068330232803099910655,0.0442506841264742184494096,10.6437359896230834266362,-0.108950838582105885565809,0.0184543196778231242960455,1.01419923958395741259153,-0.198066532828722635661833,1.54803166401976888266745,0.362221785070070967371691,1170.24515412611935971654,1187.63136862293572448834,1169.55096014426544570597,1209.51163362067836715141,685.516369218687600550766,173.077197813741435084012,-923.857383789324103418039,85.7742321436470120943341,160.554869860497205991123
1.87000000000000010658141,0.588030329733230439082092,-0.738005994286725197639498,0.165198784108866042474872,0.0489757604248714020767075,0.108165698120592790321126,-0.0202278619957981485588672,0.00541011955268835831311947,-0.00771913993734146819392095,-0.225354009757699813576437,-0.974229673303590448796285,0.0680131257797671057163669,0.0411537068034786568393457,10.6542140505970444053219,-0.108803118874430476692439,0.0189441373897770992673628,1.0161909737921561713847,-0.198294771694292049080133,1.54799306881172382688305,0.364744694234662159004756,1171.76059369154927480849,1187.93968106306260779093,1167.48657384190460106765,1209.72505137710277267615,598.793877487000600012834,84.1300519191898814597153,-756.691841665525089410949,89.7093496506820144986705,160.551423961786895233672
1.87250000000000005329071,0.400914333284364376996933,-0.61526296792987389405738,0.0893321060081557621890269,0.0502955159533445689268305,0.105411078356935333788513,-0.0204788989560907228049125,0.00535969823343389936004533,-0.00784242360470164233399171,-0.225315856058970920283713,-0.974235523945822912139647,0.0690529989320015913367712,0.038424685370444244814081,10.6647683376215187678326,-0.108649248290779723569166,0.0194332655600997494804716,1.01822246079656864026219,-0.19852126184676971432097,1.54795359631437934311293,0.367261914292751789901104,1173.23912351355443206558,1188.05201888253168363008,1165.76750093593773272005,1209.96018036893178759783,596.957905491775818518363,20.4388457945701524920423,-602.137253304921728158661,90.4532364727875801690971,160.548011782748403675214
1.875,0.256205123862252581723453,-0.459842083844929971903071,0.0294761559351636899528604,0.050819651566465590120103,0.103637105603388915420204,-0.0209925072460221857906237,0.00530106973545956677851265,-0.00796149889821376813281439,-0.225283968836455100737126,-0.974238684726587145235044,0.0701620731362979366263488,0.0364087540095468786827126,10.6754687928946889741155,-0.108482463768699050055133,0.0199205292832353719756355,1.02033130337104838147866,-0.198744348893938549416305,1.54791241655705902324769,0.36976806299292186430705,1174.74538321900809023646,1188.04187529203545636847,1164.47588757538005665992,1210.17731755946670091362,622.408916693907144690456,-11.7653966160562735154826,-400.602544379043479239044,75.3684254175839356548749,160.544625820718721342928
1.87749999999999994670929,0.183094662670088031974913,-0.311098361899832975829838,-0.00149000904516918830644556,0.0503202618126021572475537,0.103318123569232339642454,-0.0216287920118357103460571,0.00524348912577381979366331,-0.00808989117489630933655054,-0.225263596904374252538616,-0.974237979227279171645648,0.0710319957174078420170105,0.034921290786046110810048,10.6860501914481513807686,-0.108328375030774498588571,0.0204077249895994114470277,1.02251148717761486395261,-0.198969293596988672234716,1.54786939439769399839975,0.372278906505776552293696,1176.35116809702390128223,1187.99319189945140351483,1163.76448821404255795642,1210.33702249601969924697,737.860684901426111537148,5.16410756599713671732843,-188.126267055345323342408,58.6385007171416035021139,160.541268408276948775892
1.88000000000000011546319,0.191074316578639630259673,-0.197199290063833410080463,-0.00588623503418521723529189,0.0490249805041748781819777,0.104441775475780845860996,-0.0221456817779506209831197,0.00518683971225941068544651,-0.00822656290192796263438524,-0.225253457927925865300622,-0.974233837994181617325751,0.0716882170398091822516307,0.033903724254812597771469,10.6965257830522002535645,-0.10818580791919504835441,0.020894972899696207663256,1.02475507642288832244049,-0.199195889088642080766434,1.54782473500490524997986,0.374793922020212999512978,1178.43468664351530605927,1188.06769582986544264713,1163.5352562401033083006,1210.47051006305241571681,786.777056334976805374026,75.5251233490963187477973,-0.659296794037785072184477,49.7114936927107322617303,160.53726739236651610554
1.88250000000000006217249,0.269020625321087447634483,-0.182514931836242233487155,0.0095762806761506922420546,0.0479469073393105071900777,0.106102412737386464502976,-0.0221498289006010033730387,0.00513830047849500592960226,-0.00836905722762018924876237,-0.225246779007484021484231,-0.974228319173733314784158,0.0720987891250527701547668,0.033456195251627296460839,10.7065332947153368792215,-0.108040240746110668967894,0.0213711619002837083236557,1.02708516017768314299019,-0.19942847573028635310699,1.54778002847393292285005,0.37733208165482062801388,1180.28505337869887625857,1188.37081751619689384825,1163.76119173007236895501,1210.58557996448325866368,748.19833776611403663992,197.059430251424259949999,145.057845184058720633402,65.4522753695814856200741,160.533952123959693381039
1.88500000000000000888178,0.384540580098475026638027,-0.251821827648731788595882,0.0316043426960271600645314,0.0476753416837115071014175,0.107348115749661285334149,-0.0217669104596542074825383,0.00509292261476599044528468,-0.00851382121804255924402138,-0.22524144882624616559319,-0.974222263366003926599035,0.0724104136550568489028024,0.0332325790728320025202436,10.7163589963512997371708,-0.10789430642758067457887,0.0218434766291114232372728,1.02944898441288801294036,-0.199663397738425923977346,1.54773530356836919175123,0.379879262930163830169761,1182.17567833234579666168,1189.05299298112254291482,1164.26054546602358641394,1210.79777143990031618159,812.446436583531067299191,404.604933966092630726052,248.981484548408701584776,133.732287870319055400614,160.5306513088891051666
1.88749999999999995559108,0.496287346432596199186094,-0.392180641597577150925247,0.0536692812725973397713908,0.0492630152400106574583916,0.10682390151051711357777,-0.0211349819420851049722732,0.00503237447842823891475117,-0.00863292315924549594208237,-0.225233635714853802634039,-0.974220633496012622387639,0.0731486837516074767107099,0.034072705434170347249534,10.7252862906624883976292,-0.107656139564573677391834,0.0223404762263891276674599,1.03188636547559009493114,-0.199901205444992569049134,1.54769645575814074334176,0.382470513033584702533574,1184.34728556161644519307,1190.39384218602731380088,1165.00609915281438588863,1211.25424140383483972983,757.564503319809546155739,578.271199884634711452236,281.193138152177994015801,204.41953048115902902282,160.526701343889641293572
1.89000000000000012434498,0.510056662616395484199927,-0.512926974636147892105953,0.0650989513878644093791692,0.0523246724386322789590587,0.104453629583711793404888,-0.0206556728677768260127312,0.00496886324646260164189515,-0.00874697526888165190206426,-0.225225406855099841152423,-0.974220212404749097423462,0.073955063093860254341827,0.0351263804157724707222243,10.7340072880088399642773,-0.107399788163264800489038,0.0228432632045772743278889,1.03433363859595628397869,-0.200139152656422375509138,1.54765885441437922587227,0.385069441662448552765596,1185.96350084894493193133,1191.94434898054578297888,1165.66651115678450878477,1211.81986909230613491673,584.857974054771261762653,691.218241699091322516324,265.310084273772417873261,253.570940767752802003088,160.523414978598538027654
1.89250000000000007105427,0.391481706107920435222525,-0.593614338069762936811458,0.0718432202168352990190314,0.0560764233354095059658206,0.101201707787621650314058,-0.020310671714902764350974,0.00489220206587920314333928,-0.0088384443689813203121064,-0.225215651407993933119656,-0.974226739695851939870863,0.0750188249088284131449456,0.0371318981405344555879466,10.7416656833010861760158,-0.107054865886293149035424,0.0233700093667483579928934,1.03680423932555187960247,-0.20037576772295109805988,1.54762723809996871615624,0.387698172497336124298073,1187.27157543189036914555,1193.84993339452284999425,1166.33264957418327867344,1212.5220961076736330142,463.592669874934358631435,792.824870212433438609878,270.498276900758639840205,285.449973493002005398012,160.520129750791255673903
1.89500000000000001776357,0.15383283881657650038477,-0.628134322185920690451155,0.0800288256708844986109241,0.0592298040255042415602738,0.0981982344970819959195651,-0.0200675857342440602804068,0.00481718680306347877412287,-0.00893085345805903936533543,-0.225201520614975836398486,-0.974234710083059063379096,0.0759292075283633238758085,0.0393262708782559228248843,10.7489704900769069695343,-0.106702946234688830773329,0.0238970418176316611036381,1.03926982566262715579342,-0.200610592852667857233229,1.54759758685791481980232,0.390328177453758085047042,1188.28146419831955427071,1195.90847333160786547523,1167.01900254128827327804,1213.24711895977111453249,332.415734113699556928623,811.78163067381228756858,287.464412315700201361324,268.371416042197154183668,160.516842482018319060444
1.89749999999999996447286,-0.199669377050668950257517,-0.617568595718029689223272,0.0983052926391478620882225,0.0606298726681176389230465,0.0961196346334873413796984,-0.0198952713073830764201055,0.00474620781714378547899713,-0.00902556767796962138017403,-0.225176660180438165115291,-0.974246219368489763112962,0.0764667639728536241428003,0.0419791072544362930951678,10.7554077482927095132936,-0.106332852006073383388518,0.0244233653920391292901915,1.041723192808661879738,-0.200841028528220277848959,1.54757275455415022058503,0.392961306932809617542546,1188.93365410245883140306,1197.90884154789182503009,1167.76997163576174898481,1213.86395318788459007919,217.215145719496376841562,795.445516362887929062708,350.744156730789768516843,216.541378159531177516328,160.513549462558131608603
1.90000000000000013322676,-0.684695979758935147074794,-0.586134246029512140374607,0.142779524709279709293597,0.059386992627582013692944,0.0950115487847950496158589,-0.0196928257818096835718435,0.00468592951385088645616106,-0.00911629969518948368722988,-0.225146173113016573319456,-0.97425824786004944222384,0.0767834889162085643121713,0.0446709664054460997562046,10.7612984385652943331024,-0.105948525937314672051848,0.0249334859193886676509422,1.04416387967522927837649,-0.201068772607222862047749,1.54754942954370156016353,0.395592642000584193695545,1189.36753992691706116602,1199.88570091342239720689,1168.77272332494226247945,1214.32982585056879543117,117.497702473107906939731,605.665622977389489278721,379.058422466087336033524,115.073558726496301574116,160.50958737021559841196
1.90250000000000007993606,-1.07571290272038111446307,-0.569139659636929029495889,0.205473260972846905048073,0.0560895275636467335877988,0.0949033512935463230419941,-0.01948447915208904868134,0.00463725720602524687369295,-0.00920271260231232852977445,-0.225109583381117916989211,-0.974270839484279282949331,0.0768610836263407815049931,0.0474042679752037510176876,10.7665962681949629597966,-0.105548683504613063921518,0.0254257961679240813979153,1.04659084914858846460106,-0.201293597371781152194359,1.5475277393485260546413,0.398222030844003038740908,1189.52114261482438450912,1200.93716966277884239389,1169.66526374809222943441,1214.43932098151708487421,43.2173625565165053785677,255.499679684731745510362,348.541252107914431235258,-4.77168361749146452410741,160.50627448971417265966
1.90500000000000002664535,-1.3874850853279476758928,-0.576141094256558128350321,0.300285202616487501003917,0.0513994285284574067840246,0.0946971911724066861548721,-0.0192246794767973946949091,0.00460712753235792762951384,-0.00928113626430352584018024,-0.225070776783973025558794,-0.97428245542484392949234,0.076628433678091689706946,0.0499789395227991928294387,10.771236304779719716862,-0.105133733163377540709149,0.0258927617585035102498736,1.04900467264436647596426,-0.20151575727541637395035,1.547503929241444753373,0.400851888613817375350834,1189.58362673969963907439,1201.1631993118460286496,1170.51542958548179740319,1214.30596743248133861925,37.7160709113021610505712,-108.28286807214001896682,328.132187110720849432255,-75.8654262568159367674525,160.502947847088250910019
1.90749999999999997335465,-1.6252457002207374436864,-0.603470324501278798656756,0.451641318843192807186426,0.0450188731504114203474387,0.0934403387323287093479962,-0.0189111820608303254909188,0.00458614101141351353935205,-0.00935562052438689874256372,-0.22503087707689894969576,-0.974293590267378828428946,0.0762421512664234884981695,0.0524754731071268576414468,10.7755519018254819485492,-0.104711682988915602554592,0.0263473627763044157545913,1.05141206526722319480882,-0.201736603167773809186514,1.54747907383097516031967,0.40348197760566917313696,1189.70972296938089129981,1200.39575532241815380985,1171.30592468364579872286,1214.05999385023301329056,76.017854794188735922944,-444.298607157760443442385,223.686361174299520371278,-62.996595667389918560275,160.498938444194124031128
1.91000000000000014210855,-1.70130905094349693662537,-0.624842447353801788700878,0.602465743967626088384293,0.0395785886094583982952599,0.0914150796944989685322014,-0.0185452061081885360982469,0.00456468167830203878920781,-0.00942543663717210732089224,-0.225006616503404949236611,-0.974299749393067404668045,0.0754581902338891385983999,0.0551346187277903243550981,10.7791804956102161838771,-0.104279644203160853921375,0.0268314787381328037629835,1.05381229529336462036326,-0.201950541769308572481734,1.54745314902646580179635,0.406114531213521035013514,1189.96371601367059156473,1198.94170627605717527331,1171.6338613913533208688,1213.99098445414438174339,151.639505738645453902791,-714.082531564128544232517,37.9927283252518819267607,51.4516583088140535551247,160.49558234613553509007
1.91250000000000008881784,-1.66728535483245843273892,-0.626133874341522456141718,0.758382489767059686514017,0.0347284321365092588096424,0.0886388251439269581055669,-0.0175337210413428028210614,0.00454254736691816606714012,-0.00949452115575399359370667,-0.224985640643924816872712,-0.97430489436179501527846,0.0745841745970375752383674,0.0578344535336377252310314,10.7826662415584255683143,-0.103846760698203102735171,0.0273238145031978116317184,1.0562114806023763513565,-0.202163114919085229459483,1.54742708762024272495239,0.408747949758543116516307,1190.46792049807413604867,1196.82534266459742866573,1171.49588832527206250234,1214.31725214177708949137,289.497373277032977512135,-1017.9190127186519703173,-173.519702163870590538863,273.534904019385464835068,160.492211125810342764453
1.91500000000000003552714,-1.54261984638773430589254,-0.602313106272431619814256,0.911806641967102038393023,0.0301883226853493294439268,0.085543743739296768113789,-0.0150115921978857466689838,0.00450901575468364707033331,-0.00956417015457882574436255,-0.224978667181002345287766,-0.974306173423467480887439,0.0732451435507362885735105,0.0607973575955509659696219,10.7855702507439019655067,-0.103419364211658662555671,0.0278752814096878721861206,1.05861214494068889280243,-0.202371129702172525277604,1.54740174636548299957894,0.411390195317284323994755,1191.41120288005572547263,1193.85211121246402399265,1170.76626288053398639022,1215.3586589742412797932,400.155436133499620154907,-1105.47364099882179289125,-344.677746879831886417378,493.077613793513194195839,160.488149709499879236319
1.91749999999999998223643,-1.40586272685568158813396,-0.576889089121031761742131,0.9789861038119124225787,0.0275743414714089522810081,0.0842410990011159821477804,-0.0117218894840615955876828,0.00447253817177243207653392,-0.0096335869673585972777774,-0.224973311729498526290172,-0.974307157783259492056516,0.071817195850609916174534,0.0637907021572136356812877,10.7883679888609176344971,-0.102994564210961814243461,0.0284399199819629633356755,1.06101464446754145676266,-0.202579640561700163869929,1.54737809952270133351249,0.414036102807391115376845,1192.46869767874159151688,1191.29797445960343793558,1169.77249959087293973425,1216.78264021074460288219,466.330800497608777277492,-971.911697108382895748946,-433.58114004932775742418,654.05622140503089667618,160.484753758186911909434
1.91999999999999992894573,-1.27049807443830853337374,-0.572816876644691719278057,0.953922196846395675784436,0.02605084800542551218272,0.0843563904981149692563491,-0.00773794281535540931504791,0.00442672598036692246936674,-0.00970226807497821808201621,-0.224973083112165961328088,-0.974307208350091435988816,0.0701092958456399489852728,0.0668793487801797870151432,10.7908302596865457445574,-0.10257667318936233846749,0.0290453179380871298609357,1.06342288544130325611548,-0.202789723290014656242874,1.54735982159705343086387,0.416693613500442761043985,1193.74285688254371962103,1188.99255272692221296893,1168.59835718028739393048,1218.62894008126636435918,528.331169551608240908536,-843.585315409635427386092,-454.648062625336422115652,763.438974359160624771903,160.481349035497771637893
1.92250000000000009769963,-1.14694599594573420908716,-0.597655536914445284502051,0.847124890212129777466998,0.0249715141164739175272391,0.0846746381467732150971628,-0.00402998522813810457904315,0.00437680351790468730871497,-0.00977882025528912547651661,-0.224977707029948209571657,-0.974306597361074389063162,0.0681158980616732717683348,0.0699931779504347761911021,10.7931641442787800144743,-0.102181149474660212805865,0.0296692491577724218321244,1.06583308547780863939636,-0.203001719961707294270781,1.54734723475877977705295,0.419358293652243252491729,1195.11035352649969354388,1187.08004788255516359641,1167.49925927774620504351,1220.59983508254049411335,540.061436207075757920393,-649.416565881195765541634,-366.668392859028870134352,749.261421795500609732699,160.477939972177551908317
1.92500000000000004440892,-1.02405288558224505379712,-0.646977920688804886140133,0.659702052574579700383595,0.0235361846905966197451843,0.0840701054180664486548125,-0.00140579954244908597767172,0.00432143108536895380333842,-0.00986580900049364994952583,-0.224988765114915861831335,-0.974305109189134710412361,0.0657441586716884657226601,0.0731402861202843646015737,10.7953278422336182984509,-0.101815195994593807315987,0.0303176440222422266534963,1.06824587816620786284716,-0.203216254406210716787484,1.5473421939571174732464,0.422032480071412474664783,1196.44316406357916093839,1185.74546989751615910791,1166.76501521599220723147,1222.37524719024395380984,533.045322289183332031826,-460.916693800446239492885,-187.622494069550526774037,649.040975079892859866959,160.474529778684370739938
1.92749999999999999111822,-0.831511244893447409864962,-0.69671557017804153222329,0.38710215103634021405199,0.0207978047926527243038919,0.0816072693029742807224736,0.000115328692743164797507999,0.00427878229973499123878211,-0.0099757690091067663384905,-0.224996063110154687070263,-0.974305384430478205182169,0.0627099665780213172405766,0.075962492793173963523401,10.7973805688309472117226,-0.10151400143556767174946,0.0309466160704375825574175,1.07065945037763898817218,-0.203433513367350493616925,1.54734315121279264459986,0.424712949688926810765111,1197.77558013794555336062,1184.7754644135529815685,1166.56114680739847244695,1223.84503995793988906371,411.276793149054014975263,-275.31587734238786424612,51.5853515100399917514551,381.051210016456877838209,160.470442136096039575932
1.92999999999999993782751,-0.592338505500449308271982,-0.699660597727422395308849,0.159413284956922446378158,0.0177931571602380801666587,0.0783304911153970967463422,-4.41600175554131006336843e-05,0.00424393257094174414234544,-0.0100998094296025544419626,-0.225001056329589166349336,-0.974306740569502616189368,0.0592692531952291462582494,0.0785856793369494877055104,10.7993645572842051905127,-0.101253094474309995876027,0.0315638698562741293329736,1.07307354675068755689438,-0.203652442341834216676943,1.54734778502366232544318,0.427397270641000692759093,1198.49954802932438724383,1184.36889051080424906104,1167.02294197354240168352,1224.28050324032619755599,181.21947446956747285185,-118.126870779903583752457,300.564939891630615420581,-14.8667344818474003176334,160.467044328613894776936
1.93250000000000010658141,-0.233773547091493894001246,-0.643532112915428111676874,-0.0291482235086815422153705,0.0144899752157813723613122,0.0748429679444775064478534,-0.00133502828674797674804453,0.00423442196705813879431535,-0.0102366057051674411160214,-0.224997510440603620818223,-0.974311249178488658628794,0.0554026229418747712118787,0.0805253434325201578047881,10.8012733348017491152859,-0.101042100647508667488061,0.0321191382581467593793079,1.07549380354968771023039,-0.20387254150407391195543,1.5473523408962028824476,0.430088965953884461157486,1198.68167751029341161484,1184.18483005965345000732,1168.06397150685666019854,1223.77070628553065034794,-50.7519619057790905003458,-65.3094315975507413440937,542.495782610909600407467,-424.625715764195035717421,160.463661587345654879755
1.93500000000000005329071,0.339643439096834309776085,-0.522646988712988647129976,-0.188158461559594591960831,0.0111685945974823782472773,0.0715856157185082719873748,-0.00315195140055107413806779,0.00423085376063788570766278,-0.0103763928844459781680731,-0.224991961959289776817883,-0.974316497104403156370722,0.0514353124468624606224765,0.0823047954717825713810697,10.8031632728542881238809,-0.100843862609291470833206,0.0326601013857188149369648,1.07791560638294625640299,-0.204092914969281113979349,1.54735687803793409145214,0.432782391588785009250984,1198.24578821979548592935,1184.04234335281648782257,1169.73542088659701221331,1222.15737466150517320784,-250.338913992623815829575,-48.2224507032707450093767,637.059140322130474487494,-714.596378969296665673028,160.459627521988693388266
1.9375,0.903344182287423080879307,-0.410817931436771199837921,-0.267534275282196698508841,0.0105169076225651667716443,0.0701068412177643790483828,-0.00412873509895712777900689,0.00422141491666144959282736,-0.0105055800750499181428488,-0.224987733363053443724766,-0.974321249757754248577157,0.0478289059610504802000364,0.083940546159577716922584,10.8050041892936068421704,-0.100629282200057901253132,0.0331897275575295108707152,1.0803521021522692890926,-0.20431124563051406006764,1.54735492080547532012247,0.435487416696170914764963,1197.4299829403303192521,1183.94371780613710143371,1171.24926720846724492731,1220.19772439068424318975,-374.69338060528463074661,-21.4704485182214774852127,579.814248991091176321788,-831.351219630068499100162,160.456292922120809407716
1.93999999999999994670929,1.47477887620126191237091,-0.341447993531785842780124,-0.309509708519369930446175,0.0140027368913465885547076,0.070089620915693581770789,-0.00442313633426224487449341,0.00420568692659223451052464,-0.0106343398820589168235484,-0.224985536205137059972969,-0.97432454695014236722983,0.0443096116622324759370954,0.0856784274108250420987076,10.8068374037995269532075,-0.100413168010947809194455,0.0337302676752853081154626,1.0827914854204121475334,-0.204528684779393510329015,1.54735325267891532519116,0.438195528302605719073171,1196.37232131676910285023,1183.93499111022538272664,1172.6344921315524061356,1218.00061856335491938808,-420.099094707247161295527,36.5605248663988007251646,507.123782085079369608138,-848.177316167019398562843,160.452994298817714025063
1.94250000000000011546319,1.98063843475084166989575,-0.345294892157131716459162,-0.33455188140097996685185,0.0203517951636286199834647,0.0709616932185003213007235,-0.00461904029706377682734653,0.00416316730538360095514872,-0.0107612790438703417178479,-0.224991992932080053790855,-0.974321643909194623489611,0.0411644548796859244266244,0.0878508201464391347279559,10.808642103726798566754,-0.100186481893749818050665,0.0343162353046424853375562,1.08524280410197815349704,-0.20474232610424764056134,1.54735281613745234707835,0.44091678833059233522107,1195.3294874667940348445,1184.12652043046909966506,1173.78488611889270032407,1215.95683780984904842626,-365.349082741514166627894,161.137976878577234174372,392.701080142560385866091,-702.202939501723562898405,160.449731721850326948697
1.94500000000000006217249,2.3416401911573405669742,-0.463907174443406566943793,-0.348967929145435395987818,0.0279231769303114676916699,0.0721750758743765624680933,-0.00508817060922874681017092,0.00410839473253266519031657,-0.0108843866587709590249,-0.225007786846293716953582,-0.974314730551828045435059,0.0383080966519316612473034,0.0902315158334767997150294,10.8104326186462671444133,-0.0999499570167264317355205,0.0349246216150743693518166,1.08770219889029506887823,-0.204952889714893476957869,1.54735510607147586092935,0.443643073895339690171369,1194.54557590306148995296,1184.74068099461828751373,1174.59799753226525353966,1214.48960386584622028749,-242.666214815022328821215,401.268696196493124261906,288.043443874545801008935,-443.09019998814653718,160.446520207141787750516
1.94750000000000000888178,2.56813563046205350914875,-0.734505956385513081308147,-0.357778476128503830633321,0.0367168446004009357830355,0.0728909817143224836311077,-0.00605498309025514786646527,0.00403364407875624574051354,-0.0110012470479835706982374,-0.225038804772513090224351,-0.974301278490295130652044,0.0359233176092693951009238,0.0929517212051559071905871,10.8122008722744649134029,-0.099696542186897441073512,0.0355693101059581448519786,1.0901746892082686546388,-0.205158435202126010477031,1.54736184144440258592113,0.446377553451464126332837,1194.11615639271894906415,1186.13286391145152265381,1175.22510333826539863367,1213.7413868099083629204,-59.3391155630810231969008,622.063508791565823230485,187.46705610069912495419,-89.0416532665786633060634,160.442734993461186832064
1.94999999999999995559108,2.58284194553638313252009,-1.03388420296405891818381,-0.357975995763611443134522,0.043262027542297305793273,0.0718610686315121621747792,-0.00714881750075615357564729,0.00395080430988585442481087,-0.0111070114700492772463747,-0.225077801798058141358183,-0.97428602415674081527186,0.0341011468396175548845051,0.0957737821321190674339618,10.8139428903778007651226,-0.099422975773316657477352,0.0362244098207980744219547,1.09266576440083018617599,-0.205361289157563853269295,1.54737144538026116791229,0.449110182347745690023544,1194.24888032524609116081,1187.85099853857605012308,1175.53533281276872912713,1214.04439559951333649224,152.114090932214935492084,773.247352242179090353602,101.072865235525966909336,289.797187468814286148699,160.439644614623915686025
1.95250000000000012434498,2.43017260509228183451569,-1.34498208212204128919609,-0.352205793799515887165796,0.0494021018570470205055756,0.068344304611187067788336,-0.00800215710646969002883822,0.0038618673361884509401265,-0.0112044122597939714569559,-0.225122813103578012228212,-0.974269411353002379172494,0.0327031495013825057593948,0.0986728273081031448388245,10.8156650387335897534058,-0.0991342487122930937637477,0.0368876523140484954832452,1.09517079041905374126031,-0.205562114359490399895236,1.54738321150760227418175,0.451841416301317966297546,1194.87672684738004136307,1189.99910067266250734974,1175.73046766444304012111,1215.19037274725246788876,374.239914109503388317535,975.858307157500576067832,78.8001448058803362073377,628.054023771241190843284,160.436628541780237355852
1.95500000000000007105427,2.07489661257281055029011,-1.65259180003695504979078,-0.342315359866085633377963,0.0567613783275126779215292,0.0617620291969894139039177,-0.00825707521430089387559637,0.00378401890059871376381651,-0.0113047535017750232916312,-0.225181379308417833895462,-0.974250857410793980051267,0.0316489603535001634559976,0.101353969713762231963372,10.8173447008266627733519,-0.0988641536977085261250764,0.0375304018240911474446619,1.09770341624140965741674,-0.205764176063490372703413,1.54739703999950251045448,0.454568953620184956765371,1196.12007989579365130339,1192.73029007436366555339,1175.92933353679813990311,1217.18466571836961520603,522.9466067869564085413,966.636774769424505393545,75.6991789678538964381005,768.506072214602681924589,160.433104119706371193388
1.95750000000000001776357,1.65747254659475617977193,-1.81455334280603497454365,-0.329980107570317926501957,0.0619185082079936680021781,0.0555035729638364214166835,-0.00819301556313126178032746,0.0037096672998793061085121,-0.0114060220324405554859215,-0.225244220129455552381614,-0.974231691319299208942084,0.030703108550090993378312,0.103966810363842532272116,10.8190105969756587001029,-0.0986004209346269672176177,0.0381672576173321537185146,1.10024469611635078436507,-0.205966627705598120945396,1.54741151887004013687488,0.457295325183835643656494,1197.49145988131476769922,1194.83228454650952699012,1176.10896355928230150312,1219.03290310832539944386,601.605632997201723810576,738.572321031931323886965,78.7659896483563386482274,702.718493076978575118119,160.43025254932624079629
1.95999999999999996447286,1.15188899642217856822413,-1.86545709482899946252132,-0.298949494704734142214164,0.0652086896526159337517115,0.0499086659455053038847439,-0.00874348197923691637656329,0.00367284617651383697711776,-0.0115293127195293491904504,-0.2253153339733610094342,-0.974211905012978385265399,0.0297398647611212679775505,0.105895815518478847438999,10.8206349014026717014758,-0.0984029500531622830505896,0.0387395979436388343541964,1.10281238499188649626603,-0.206173931260500542528291,1.54742371075584461692642,0.460031014430597462450123,1199.12810806077959568938,1196.42315167952324372891,1176.32316348503991321195,1220.69825818375443304831,764.34758533680962955259,531.493309878248055611039,102.495000171118036291773,628.606484008227198501118,160.427497132036307903036
1.96250000000000013322676,0.493578498193122883197503,-1.81787870419630848140002,-0.212353650471258259546659,0.067434031470035613042846,0.0447906594461553175801072,-0.0105212215106690876176287,0.00364331237613584220380591,-0.011651632568040626997119,-0.2253845227223099934033,-0.974192812151942422183026,0.0288886906625988731933674,0.107662206084396805394476,10.8222588112260709181101,-0.0982065901628157572611499,0.0392973382903869516979967,1.10538298326585970876579,-0.206381774623938057944272,1.54743566141452837392478,0.462771841938888650602735,1201.31319780799890395429,1197.48975109590082865907,1176.62143856013790355064,1222.17593552836660819594,826.387141807507759949658,239.147735933551246034767,116.787597804975149529128,435.946860488628715302184,160.424310149605673814222
1.96500000000000007993606,-0.0623788766715714371180468,-1.70935461212299766309286,-0.0835940535206686208269389,0.0681648332336571294298722,0.0415620909140476182952462,-0.0125941552051802366229971,0.00364639276400146369189192,-0.011760949923803221128793,-0.22543926873298988922123,-0.974178165697711095916134,0.0287313625386690640883813,0.108649826566906138047841,10.8238947687662250274343,-0.097990823997590598137819,0.0397835668167809269890611,1.10796286422713863295542,-0.206591370091458281788022,1.54744686715819756983592,0.465541158589322323635429,1203.26004376981722998607,1197.61889035919102752814,1176.90710147406480245991,1222.87799248619762693124,790.179000144115434522973,-86.8977847363585453877022,125.943936526485188664992,181.613901032100557131344,160.421759656125374249314
1.96750000000000002664535,-0.583345665061596019285162,-1.54535263996029703648105,0.100743471205223839026743,0.0674338464179285446142842,0.0383665185261537755589956,-0.0141723926647829134156664,0.00366455062239467652118741,-0.0118658086652902797220044,-0.225479293548077247555383,-0.974167135410138995688101,0.0288058262558162220257074,0.109266712155070888634611,10.8255708116615991798426,-0.0977684725423962341928075,0.0402368824611493008935881,1.1105343209644578106321,-0.206800532452625390744672,1.54745799605503098206327,0.468323986488454524490521,1205.26409280871939699864,1197.05526217221904516919,1177.25115824277031606471,1223.08400503352709165483,797.54005458636925141036,-303.298070814259631333698,153.436001613548427258138,28.134972956832516643999,160.419324797817466787819
1.96999999999999997335465,-1.04186441231881543600934,-1.3364452549212275656032,0.307795433021887554492224,0.0652456304137897097339405,0.0347703439867588226519501,-0.0143605977579585614850588,0.00371326689107270976539232,-0.0119616308668561120709395,-0.225489482036575400458744,-0.974163434223574209447349,0.0293504974645464739024803,0.109132187769704153135208,10.8273279598859755168405,-0.0975317710033695578486501,0.040623065008845438139673,1.11308865457532890630432,-0.207008817011271772923209,1.54746896920179133338991,0.471134198442520357730245,1207.247744042748990978,1196.10240000511976177222,1177.67428148213252825371,1223.01866735098178651242,766.661471416619406227255,-410.866335723075792429881,199.087027245282058629527,-47.8583822422013156483445,160.416990191847276037151
1.97250000000000014210855,-1.38631997259876316164195,-1.0704957464739321970626,0.49700308428253558989951,0.0613323963667910809771655,0.0311124026823779882555687,-0.0125978368018179239656851,0.00377262936913132750083033,-0.0120551949430906836513433,-0.225474778972770906193546,-0.974165591367935901345732,0.0301923996754607654180447,0.108667478180408089150077,10.8292157391317989123536,-0.0972864344082432219718015,0.040988091498748810415087,1.1156138492925968819236,-0.20721420498211401417521,1.54748270882538729864564,0.473955360196987973697702,1209.09740016580258270551,1195.00093049360361874278,1178.24659337899674937944,1222.84471312231607953436,748.704419207916544110049,-428.919521631304746733804,302.024614566146112792921,-54.3268589772184142816513,160.414781311032726307531
1.97500000000000008881784,-1.63085313922575481093702,-0.691672015624854252813236,0.648019073980961812786461,0.0553816624614921898528408,0.0274622091204446312773246,-0.00928361967433463143584138,0.00384180213988285883253138,-0.0121466781969738236990342,-0.22543713878600180056111,-0.97417314686010647584169,0.0313080843421475324417358,0.107898666319844072081224,10.8312240879762882173054,-0.0970332691734166891128766,0.0413335060934430786883098,1.11811223851381758009893,-0.2074169237987856240224,1.54749899770820920075209,0.476786611997877307622673,1210.99126613878866010054,1193.95780239696318858478,1179.18440455496329377638,1222.74703305609568815271,615.650301711379484004283,-279.133952941180325524329,395.077036273013845857349,0.0887794371010405258815013,160.412281653746219944878
1.97750000000000003552714,-1.6832810133084168402462,-0.343083449370341853068567,0.685471239168623291959648,0.0500975727132519851880765,0.0255553031168828659325243,-0.00642023370301879597182859,0.0039006081134964135093135,-0.0122239002309152688940941,-0.225385541374634623679185,-0.974184146531512418221155,0.0331318342317790254236698,0.107075266219383402610532,10.8334952210869772670776,-0.0967303635808226813797006,0.0417003647097882873540087,1.1205699727004219123927,-0.207615979948571005575531,1.54752128944274547350801,0.479618935157077097564127,1212.1756516743594147556,1193.60526072889774695795,1180.2219785603617765446,1222.84515701950158472755,372.142839083979879433173,6.69246552079144496616436,470.146211146639871003572,72.1881740266341580536391,160.410328138416730325844
1.97999999999999998223643,-1.58827658552695005766964,0.00646289328004666374649645,0.623852986915050533589522,0.0449108169081828684232605,0.0253147866218805805971215,-0.00384469502008699930833968,0.00395518956058864105951312,-0.0122953107397474337147969,-0.225328256317923025786598,-0.974196549724790195057267,0.0352437598216557151920014,0.106229938809397156385117,10.8358739924496294548817,-0.0964076673541339190798283,0.0420758486870416031910835,1.12301124877774038957057,-0.207813543541572082196112,1.54754602737217994423702,0.482451694900646654851073,1212.85198033420851970732,1193.99126472456714509462,1181.53513561069644310919,1223.10797392622885126912,176.885720266951011581114,339.647290388885608081182,622.726254997982550776214,122.40773160351353965325,160.408512997101439623293
1.98250000000000015099033,-1.34267556368563800717197,0.383273133348839667444707,0.451266962360011736343779,0.039292271073330352348929,0.0268238760700326185626441,-0.00124792896904057297284563,0.0039784976120611752897771,-0.012348961351400584290916,-0.225262249914262774330709,-0.974211234204444220807773,0.0382389667504260816199846,0.105607864418912983373033,10.8386303611187777562463,-0.0960139355157397511586481,0.0425158938133954472649023,1.12542009589075742148623,-0.208010824853543663248701,1.54757639747069752900188,0.485276836943634937160397,1213.06008027569419027714,1195.30349718084221422032,1183.33560983535176092118,1223.45719567751916656562,-12.5729963101090849164621,589.320585221535111486446,666.035646380472030614328,102.775312125138398755553,160.40649874358564375143
1.98500000000000009769963,-1.07402990571066592195848,0.636323442381719894811454,0.250153336276207449717646,0.0359332420475705280327183,0.0290706015515801614867986,0.000250215538416015306332624,0.00399394071232585246011837,-0.0124000530929935879470571,-0.225196360765996167474512,-0.974225936727218799759953,0.0413902326947693105507753,0.105057496264689298470785,10.8414602767025360918751,-0.0956074643016969621944767,0.0429729443496899843335513,1.12782514573746417418931,-0.208207981453599116905551,1.54760766138646710388116,0.488100740881591166342446,1212.789115352657972835,1196.93786765067488886416,1184.86531384259888000088,1223.62185048685455512896,-173.571288006636734735366,696.169719202922692602442,561.424723607900091337797,7.71337859850989904231255,160.404959287907814768914
1.98750000000000004440892,-0.806712432984916016920351,0.811384866003963423075618,0.0317882339522654669417001,0.0349170424723798875077385,0.0317435844646330039831028,0.000584230036722183272701603,0.00396509799429698665124144,-0.0124451501712725589449127,-0.225141323239188700933155,-0.974238289901252829672273,0.0451324600481052690126305,0.104971982337921487804522,10.8446035536401872434453,-0.0951467150237840231241648,0.0435286832734249548582106,1.13022711091111038861357,-0.208404198879246355113892,1.54764165306511358721764,0.490920662348280301134906,1212.19222383566102507757,1198.78434577685675321845,1186.14273345339120169228,1223.49576257051171523926,-267.22571949254074752389,709.837467113872321533563,420.599454273005790128082,-110.441895398528316718512,160.403566771131380619408
1.98999999999999999111822,-0.587363804251223142749438,0.923305792322805962690779,-0.164815119795615888653728,0.0356344759928917051428066,0.0343817602909967726110274,-0.000119371810332184185719957,0.00392345663763330430862108,-0.0124845838349202584161013,-0.225091560983014860042317,-0.974249524859941651300232,0.0490922683092009370930953,0.104972065111384293967234,10.8477821111673637943795,-0.0946604943808668497506886,0.0441108314228577103044415,1.13263882737623089447254,-0.208600327086047671043545,1.54767527678072114305508,0.493742035830459835565875,1211.45298675519529751909,1200.48705498624417487008,1186.96831111396386404522,1223.06964100986192534037,-299.630647832152135379147,571.90438535936971220508,171.169466102859587408602,-237.003605276236669396894,160.402297713899571363072
1.99249999999999993782751,-0.455163816998774950484119,0.972153941262975829218362,-0.295797255050575635948462,0.036897031618634723582062,0.0365164640115012012477891,-0.00176044875978640432551137,0.00384900427679077828529985,-0.0125094985855464056051511,-0.225055322581349664945449,-0.974257893125584528704053,0.0536106615983946294123896,0.105189543306273419753794,10.8510497833977055393007,-0.0941080233076412864257065,0.0447601505706409844020932,1.13507545064845571936019,-0.208796226568528225930876,1.5477079571743734831557,0.496567131746538492631515,1210.69407059650029623299,1201.64386770365354095702,1186.99858078390548143943,1222.3107445441305571876,-307.834260239125967473228,310.644438441197166866914,-204.314974166522745235852,-379.139979109632236031757,160.401179075527437589699
1.99500000000000010658141,-0.386905702839212772836675,0.978084627309913523518503,-0.343044614320428098430682,0.0374856975636288919373484,0.0387615313626310659111951,-0.00427244371616849333284094,0.00376101013146922522403792,-0.0125303339607648004522256,-0.225023787190684110282035,-0.974265252166626405383454,0.0582619852909742053093112,0.105382991761983596523677,10.854199847473324780367,-0.0935263678739145093432583,0.0454369735704673247123075,1.13753933585028188524291,-0.208992460230690763056671,1.54774219815204672201503,0.499397762586295312914331,1209.91381545399963215459,1202.04027717845019651577,1185.94673624313122672902,1221.17394111431372039078,-250.904193871741540533549,-45.4042896097224399909464,-562.459004333400798714138,-419.521157086264224744809,160.400012087839598962091
1.99750000000000005329071,-0.369715872210528651020667,0.949396425686390266207582,-0.282885008933893289384542,0.0368358537007588138223468,0.0409178112844201455344795,-0.00621544709310230345661319,0.00365778573238311225865327,-0.0125465813200716092001841,-0.22499754121007331519877,-0.974271476147011816770771,0.0630629591166040753824618,0.10554924347271923967817,10.857217543604841480942,-0.0929117459510505061537344,0.0461448139195835133063994,1.1400338251143558032652,-0.209189069740022270948998,1.54777819429652940819153,0.502234618476547600707249,1209.43954962714155954018,1201.41684625560492349905,1184.18628576223841264436,1220.21313875869918774697,-146.738237944467471152166,-440.221480050659295102378,-849.575290257844130792364,-342.541063246479097870179,160.399186461845829398953
2,-0.336830401729220518802776,0.892689878029834571471213,-0.130953249045760916624559,0.0348065232470831792399579,0.0434261905830699013186802,-0.0072841387663631664006747,0.00355329811400742403421082,-0.0125831554828938936563265,-0.224994185263107687733353,-0.974272127257530984323353,0.0673001334678807877631712,0.10540582726967762106085,10.8597395200486435129505,-0.0923184545862656136261393,0.0468655189639931232803427,1.14257022394502349982304,-0.209383673572422046582631,1.5478196149225422750817,0.505082067700002079746469,1209.18012426427731043077,1199.83916977819694693608,1181.69885979184209645609,1219.46123579808136128122,-63.9565751172553973447066,-863.181333899656465291628,-1189.93916073993932513986,-241.948090058354551956654,160.39851371007574698524
2.00249999999999994670929,-0.223390556772731563306422,0.80178957607759759884658,0.125388353593776508132507,0.031385494825769549853689,0.0462617714590906475846666,-0.00762095392456604587422264,0.00344816178296547710957487,-0.0126301682568218179292252,-0.22500258424648486577091,-0.974269916480728248586729,0.0712474899022594726494262,0.10510349741166286063887,10.8620077148042408765605,-0.0917362903317359146271315,0.0475933911230496317634753,1.1451280568345072463643,-0.209577247411026762469177,1.54786382123264454335754,0.507934957015673926861155,1209.11976675155528937466,1197.10093958610673325893,1178.23658995853884334792,1219.00339830840744070883,18.0703185164478981050706,-1087.17566917919202751364,-1288.47482113490536903555,-78.4297941630501043164259,160.397883464895812721807
2.00499999999999989341859,-0.0503614145546830913047209,0.718554085999769776016421,0.371367616655899956956688,0.0284129559583289718893706,0.0481004598385980433605802,-0.00715202021665681947348858,0.00336539020401610891597421,-0.0127052064823395018111629,-0.225031260243787251118519,-0.974262555251068640416179,0.0741516027391336124408028,0.103898014312029191019704,10.8631456310666401066101,-0.0911958211336331425744817,0.0482815541662182379223367,1.14774198393920712213401,-0.209769650677886276834982,1.54790973785552021801948,0.510802385290443528020887,1209.27047585685954800283,1194.40329143230110275908,1175.25648568616770717199,1219.06908682726611914404,96.9242575578412157710773,-1088.09559235976439595106,-1144.00141467874777845282,117.847697811796720657185,160.397506559982303997458
2.00749999999999984012788,0.184000345864487158120681,0.644294986248009404761206,0.613150493973207866282848,0.0272254746740798157789154,0.0493458355650581853568681,-0.00563275288820263859285165,0.00328766955931098078455554,-0.01278454534235984145496,-0.225063153786066671990795,-0.974254372923574196718732,0.076855779592197151495192,0.102481130587444901891558,10.8640074634904451045259,-0.0906607529934418121531081,0.0489601716699235717245031,1.15036858172544320666475,-0.209961908109824346713168,1.54795574803814139919211,0.513673069650559255272526,1209.60438803934448515065,1191.66046162430802723975,1172.51658288514522610058,1219.59263679746641173551,155.606144994443127416162,-1051.40210936876610503532,-1016.9133931117125939636,271.476993193054909170314,160.397285561370267714665
2.01000000000000023092639,0.427989060019132783185825,0.588018472087894816802134,0.824417355756562275637123,0.0287085154610851149559192,0.0502647373840564778979534,-0.00334667766348555398292497,0.00323645721003193616305271,-0.0128493990144324093244377,-0.225087058115144650338735,-0.9742481299072560663177,0.0791734696832955414658173,0.0998230579491486691434687,10.8630069403400639771462,-0.0900696198932923186575294,0.0495617650040539176048426,1.15306270992374826356297,-0.210155565199115629271276,1.54799690287451174874889,0.516560341303210823760139,1210.04850658183181622007,1189.14628088545691753097,1170.17191872060880086792,1220.4264717932314852078,186.666871553221568547087,-902.35433037936036271276,-815.876936928261329740053,382.257969737267217169574,160.397196248118291350693
2.01250000000000017763568,0.62944995168125061901776,0.559136183980552314842782,0.973111488405696167802716,0.0323999622058482594777473,0.0510773077119200322182557,-0.000567111594655535667525159,0.00318618417478565025408033,-0.0129096918326744095062431,-0.22510610031012592835431,-0.974243074282856613699266,0.0814119895905516949285996,0.0969900495852155097864511,10.8614223775266438565268,-0.0894602870207955452874771,0.0501563062190380631877318,1.15577114480361453630053,-0.210350046320419925560685,1.54803702854115465825657,0.519449334367271364776286,1210.53772239711065594747,1187.14868997241092074546,1168.43719820050364432973,1221.50392664615287685592,194.839154537662182065105,-724.526788621339619567152,-616.160245999676135397749,494.965172265403111850901,160.397269793611030763714
2.01500000000000012434498,0.78544126608865982852592,0.5526706687780178484104,1.05781937421218041883719,0.0368751348068276849079261,0.0522501517503233189887446,0.00307555292818392864845345,0.0031390409595287356060711,-0.012954787761495216436014,-0.225108941741617746279402,-0.974241975080730959746234,0.0833873725461015263826781,0.0935752576359921428572619,10.8578882363528812504683,-0.0887890466604303180142566,0.0507258756529821996927865,1.15852724078789148798307,-0.210547273138878054954404,1.54807372498618067702125,0.522344063221123033891047,1211.02270235452010638255,1185.52364694235029674019,1167.0911174906104861293,1222.90129765455844790267,135.914071061782294691511,-461.017618197057174711517,-383.32213757454064761987,507.586784066517680003017,160.397553055336629768135
2.01750000000000007105427,0.848631160840256026922646,0.561888285224752315194507,1.04324362326256658839441,0.0395792174760804527089419,0.0534928359955270452119613,0.00621591076340054313892347,0.00307469261626705124210157,-0.0130051416584919862090564,-0.225116143680295893725329,-0.974239892672423946073934,0.0849859881723325355507015,0.0903460973170360781558941,10.8530739849592485768426,-0.0881072306693264362120743,0.0513317908372110942583078,1.16130071140880164470843,-0.21074251874710531184931,1.54811319160811500239561,0.525236652297009443124409,1211.21729275241955292586,1184.84360188142568404146,1166.52058751263098201889,1224.04186056648541125469,7.84345619595131537948873,-142.069392907891000277232,-139.552850946077597882322,431.389817642011735188134,160.39795758453442431346
2.02000000000000001776357,0.871504963641597352186352,0.572015177730964330393704,0.942057012535702509303803,0.0409041360652118782259556,0.0548310966908369737393691,0.00914483508133296166264792,0.00298667085531614372867493,-0.0130627302634660283353618,-0.225129345464364971629578,-0.974236457420325274725315,0.0860662506844281499640559,0.0873713535243953454134669,10.8464983299153328033526,-0.0874107378033337628631116,0.0519878092459366281108402,1.16409803373831288730855,-0.210935038306603817037654,1.54815646985847776839762,0.528126297142692213704152,1211.06191963549986212456,1184.81329997781085694442,1166.39335323588011306128,1225.05824674276846053544,-169.8463551148997510154,114.636904951887743209227,13.6527425972420317634715,403.302353558055472149135,160.398545372678228204677
2.02249999999999996447286,0.886268937660828814983915,0.567390374486380077989622,0.735124360762433814997507,0.0415829583328742452552618,0.0560824102600888732550466,0.0121498127706019306421004,0.00288943938449359814107931,-0.0131245584798246866381488,-0.225154009890417727834944,-0.97423044229846733621514,0.0865763960597664278262542,0.0844033446155952882250517,10.8378624470554711933801,-0.0867110674536140657586714,0.0526536466772401928748693,1.16690739996989956139828,-0.211120507472549345795443,1.54820960196364909577937,0.531020125479972127102712,1210.36806097684507221857,1185.41678640618511053617,1166.5888512256171907211,1226.05837233427564569865,-345.43162459554707766074,311.728163356662946625875,107.73761515474919292501,323.603184882229072627524,160.399473623684940548628
2.02499999999999991118216,0.896493249749567788775551,0.534099057345020944431724,0.509500124321025427143184,0.0422306434586620857429828,0.0570490047865542457272703,0.0139583555875864000900277,0.00278634270433528261762257,-0.0131890866952733987887969,-0.225185974306992692239859,-0.97422278418498353680377,0.0867239510388841811083793,0.0814370783919538543393912,10.8279153320403089821866,-0.0860095094514981423072797,0.0533262279070106579026422,1.16972438096533415397005,-0.211301486591070508680446,1.54826900950225110342728,0.533916618076421101157791,1209.33476151252216368448,1186.37194079459413842415,1166.93204131165384751512,1226.67626266717957150831,-504.903020884705085791211,461.033485256039796240657,151.26721640827193482437,199.118284743649070378524,160.400441042189044082988
2.02749999999999985789145,0.889102659155160957027419,0.446152322121705302571115,0.256693281369362424904068,0.0437840129139276321157404,0.0586397498029785219086918,0.0146785400771306979994524,0.00270008021700974100778869,-0.0132440232102755614529421,-0.225214550502657206987323,-0.974216096856798552394707,0.0863362875969124338171312,0.0779600724218050544767067,10.8151728080214706295692,-0.0853057564494740377947224,0.0539248310793385560169,1.17252623645241027539043,-0.211473378163691660969192,1.54833735298869079599626,0.536835148312166610118368,1207.84354587242160050664,1187.72195383246526034782,1167.34518730765853433695,1227.05396375799386987637,-744.981717476589210491511,672.227290064529483970546,173.913552526925826668958,110.556289104662752720287,160.401618625122864614241
2.03000000000000024868996,0.820183069697784095097859,0.250548197882044021422843,-0.0445237303559013752884965,0.0469983569236457343620827,0.0611683020316471023902771,0.0142467651770430796254185,0.00261800067504996134340467,-0.0132965763880229306814762,-0.225242284796182662409691,-0.974209650748487088200989,0.0858165765057563451057021,0.0743524442728964174431638,10.8017368750804649835118,-0.0846016825295471397438973,0.0545057191033515575639967,1.17532428486104389975253,-0.211643011670934383383624,1.54840791687155610034665,0.539759154441059596507557,1205.60985292513896638411,1189.73307724491701264924,1167.80160907428853533929,1227.22904411270292257541,-871.787713196349841382471,791.87786154142600025807,146.550693180269377080549,18.9533868595832188930217,160.403283938184927137627
2.03250000000000019539925,0.684100609910648693734458,0.00492781464080871423050212,-0.274914937703061912355196,0.0503347514480730132135911,0.063104421187621898003961,0.0133076059395112380329129,0.00256054138926233021411605,-0.0133066326498583031162637,-0.225239886460658289557557,-0.9742106584203047425774,0.0853762041223802975453694,0.0701349410167839970586812,10.7849639388621696411974,-0.0838476747815223993898215,0.054955805678654386092763,1.17804982446143347019074,-0.211809934631327412279944,1.54848252018126197881998,0.542725023471380851880497,1203.48460730643955685082,1191.68134314017265751318,1168.07794077355993067613,1227.14873069229179236572,-870.071888174989339859167,815.738167597936921993096,78.1070294721319697828221,-75.9315019683088223700906,160.40488787931073488835
2.03500000000000014210855,0.450516305134162631240713,-0.311229426561823840913235,-0.471557190434375994581018,0.0534969041874560208293943,0.0641030643333037886133496,0.0124649696129010070788645,0.00250761158257190377995904,-0.0133158678815331020517387,-0.225232532270725427370195,-0.974212734203629193707741,0.0848303100554057137872022,0.0658857495303215301429844,10.7676201085147500435824,-0.0831021444372266326894305,0.0553847561939384003260045,1.18074941542200928523698,-0.211977277803354374752232,1.54855707248962470856668,0.545695996137174343942888,1201.25949348426411233959,1193.81176808290661028877,1168.19214422164918687486,1226.84938660286138656375,-874.69130720275688872789,859.142567875751524297812,15.7444320776906980796639,-150.792452223416631795772,160.406722487040667601832
2.03750000000000008881784,0.145066175519019874284865,-0.6554920984385292914709,-0.634645499638210486281764,0.055825515613823019356321,0.063598789693169760495195,0.0117242179843373654085648,0.00247415900672654691730412,-0.013323131404872234906378,-0.225203998328076249180185,-0.974219335435337896456076,0.0838050203986117209220552,0.061532404730737344511482,10.7478267501978859144174,-0.0823971690972562093024933,0.0557211367673516658194366,1.18333499332153690986047,-0.212146632631036835547889,1.54863122857174495550225,0.548688336193219883263339,1199.11115077042586563039,1195.97705597955132361676,1168.15666293394838248787,1226.39476843117472526501,-797.515632701851018282468,837.398742571731077077857,-49.0024221157465476039761,-208.661000504302933222789,160.40875242070407580286
2.04000000000000003552714,-0.210477955876692213177392,-0.982023394768135937660247,-0.745810204316346148090133,0.0561575098847068437946106,0.0606486843047962728703304,0.0105195308504948421141068,0.00244602427173018195996623,-0.0133447175066151602768061,-0.225175542414190077433744,-0.97422527425822091906582,0.082340741305767031765761,0.0573754848978662024272523,10.7271458918342990074279,-0.0817428504322018356642587,0.0560332368759472176922287,1.1858513180594147939928,-0.212316055135747194793083,1.54870602092477471778409,0.551680734579399256745091,1197.2719153207549425133,1197.99876179576517643,1167.94713211107045935933,1225.80608160033989406656,-681.999297089319952647202,804.971843436322956222284,-125.728948142253059927498,-274.335159895150752618065,160.411022070255057769828
2.04249999999999998223643,-0.629558678444453567735195,-1.29216528077604886348695,-0.794472090377955075801708,0.0538279897720434566399383,0.0550742023625976420686534,0.00781133604688864432996631,0.00242690123856436571619932,-0.0133905748886924882284921,-0.225147218729147502447319,-0.97423009055205533890387,0.0801346188679039755919931,0.0535534543024582809778167,10.7049602916285877540759,-0.0811746195716944035636331,0.0563038255318510094671325,1.1882503932746080188565,-0.212485592327078059993184,1.54878189151310419191532,0.554673231812796707629332,1195.70115428497933862673,1200.00191519673285256431,1167.52801819323713061749,1225.02309263169900077628,-435.661214057390850484808,631.181784042305253024097,-173.209309112284302045737,-290.925079102368556505098,160.414027137900717434604
2.04499999999999992894573,-0.928389490477300127757587,-1.45848634168039392733363,-0.745979755497704122291225,0.0505380405645840455330919,0.0501500206809944171215676,0.00472820763389750816502177,0.00241195586918352888536332,-0.0134706814434132106372832,-0.225125184346710749405673,-0.974231716887731469256551,0.0771409449168081323700008,0.0503069538719267128623613,10.6818588247306198724118,-0.0807073368347713121506715,0.0565568941632368649141682,1.19053239333684435230509,-0.212653783388655037711601,1.54886040073523667537359,0.557663290875359485276874,1195.09360925046803458827,1201.15467071597663561988,1167.08108556550905632321,1224.3514562048280822637,-73.716867521717844624618,327.45459356270447415227,-185.698514890695463463999,-269.608578671346833743883,160.416768127057224546661
2.04749999999999987565502,-1.14273134059650338656411,-1.53077451725374347191178,-0.596858572467316883525257,0.0471542382913124960563955,0.0461058492005759074094939,0.00171468964231258455717388,0.00240027758785336638516772,-0.0135775721216172609584483,-0.225108068432213981324708,-0.974230848557795958697625,0.0735367984069490859821983,0.0475093414313297185413987,10.658040557915116508525,-0.0803194745811677268676476,0.0567963343860379554772777,1.19272293546923791041081,-0.212820921726829703768402,1.54894097346688353056265,0.560651443197885512859102,1195.33256994737075729063,1201.63918816454633997637,1166.59952561878367305326,1223.67504973834229531349,297.645123734179833263624,47.2796489678340634554843,-203.855117151401628916574,-307.298509405161155427777,160.419756162107660202309
2.04999999999999982236432,-1.28963184030086375209123,-1.53295901438004888994726,-0.319985917375423922770494,0.0432273217463876313626514,0.0421972022881860059362324,-0.00105429256027730552935928,0.0023992523708182651384635,-0.0137260544757553271805195,-0.225111728893288787212157,-0.974222164867781348362996,0.0690800214357358971506429,0.0454967980298185137311151,10.6336301214412376481278,-0.0800523523559671795757353,0.0570084925748525483957252,1.19475415331945611363551,-0.212985639195887199726087,1.54902143342980869178405,0.563647166412200473217808,1196.58183486913890192227,1201.39106896081580089231,1166.06180997975206992123,1222.81496365780230917153,593.743236435016910945706,-226.123125053284837804313,-181.423930825928010790449,-335.567831290950493894343,160.423627199982121283028
2.05250000000000021316282,-1.31963699016013924492086,-1.48223473823690077288973,-0.0396120132314835352027593,0.0400017436898098197040063,0.0392667723329591863978827,-0.00228140750631784360730192,0.0024017554699665515614837,-0.0138883120760787109188028,-0.225122270531471935228751,-0.974210892714890475119205,0.064352357822214725779908,0.0437422321077844261649759,10.6090222312302735474532,-0.0798261367419064726824729,0.0572117616085168964601415,1.19673277736035355012234,-0.213149554868255403095034,1.54910185604350814081442,0.566645397121005811591488,1198.30128612954604250262,1200.50857253927983947506,1165.69240596465397175052,1221.99721058188742972561,775.698158048492018679099,-478.99467099115503287976,-125.605214739371760401809,-363.251295580969838283636,160.427089612153906728054
2.05500000000000015987212,-1.25699429022998576677139,-1.38902610191408149020731,0.237794554913095340653584,0.0365584060859287102163151,0.0359750082418553510099635,-0.0018843910531822550581682,0.00243042244020937828891116,-0.0140519383382200230975245,-0.225153687288899007068466,-0.974191871968714817597856,0.0596556290461834198834978,0.0425750530852136988002599,10.5844665963561315180641,-0.0796287641399469614533757,0.0573391679897385792008535,1.1985237695022992188143,-0.213310236744931630559208,1.54917842772872860201971,0.569661900021401379490271,1200.46032565938162406383,1198.99609560585986400838,1165.43378390605516869982,1220.99870717989733748254,884.823033163884929308551,-692.762936575460344101884,-83.6627385102492127089135,-436.768845884817210389883,160.430794745760010755475
2.05750000000000010658141,-1.122685297290993311492,-1.26404878150035604456036,0.467359881895633544335311,0.0330830742253912166161989,0.0324430285674301918663609,4.06025344212834535099522e-05,0.00246306752639110192182326,-0.0142117184347293444568461,-0.225185267252354104350331,-0.974172727168580498968709,0.055074491761262625577622,0.041537910795396038032834,10.5600186603198249457591,-0.0794262159755784041825777,0.057454161063927623731562,1.20027938341011219947063,-0.213470467412815584351549,1.54925402163194059212969,0.572681099294623408013649,1202.72540129536537278909,1197.04475785640261165099,1165.27409227210273456876,1219.81336635246339028527,863.798569858700147960917,-861.274265168203896791965,-39.2795243947156649255703,-519.370463240977301211387,160.434698078274465160575
2.06000000000000005329071,-0.915375827258416929765872,-1.10645861276547052831631,0.593903382932965184792806,0.0304542099408750231714915,0.029076023960230103215796,0.00318909473471432752811339,0.00251122818886100789351201,-0.0143454845082092840441446,-0.225209305229322198638187,-0.974155961878865328529287,0.0511598598655895880904509,0.0411204075985792671943386,10.5362720879897491244037,-0.0791712006617033003941231,0.0575183632409964895604304,1.20187705462179050819316,-0.213629048215174532909799,1.54932473640710188789171,0.575710592726716319234015,1204.77931850867503271729,1194.68972428001893604232,1165.2373862840815945674,1218.4018548636925061146,773.675965827140430519648,-1094.54859304794422314444,14.1098556835916770779704,-660.998004691523874498671,160.438835422086071957892
