t,ang acc x,ang acc y,ang acc z,ang vel x,ang vel y,ang vel z,quat x,quat y,quat z,quat w,acc x,acc y,acc z,vel x,vel y,vel z,pos x,pos y,pos z,mot 1,mot 2,mot 3,mot 4,dmot 1,dmot 2,dmot 3,dmot 4,vbat
0.0025000000000000000520417,0.659889921238278054360649,-0.354933642434397622622555,0.338438767218547986725952,-0.0307797440472978127423698,-0.376944425141719385852213,0.0193056439506797301863816,0.000146657449872221928638058,0.00431534903111514302198604,-0.693424975948735977659965,0.720516102923423273907133,-0.18861248871423452744267,0.0123538399571658796816109,11.7854031020182397071494,0.129912589614451429165243,0.054704592112262841185899,0.90941527735204719107287,-5.56033643045692471673647,3.22498893251903551160353,0.142840312523774742858862,1232.04487920943415701913,1206.29131401771655873745,1235.2380177214402010577,1199.88900906821709213546,198.165961053928185719997,-870.502693665366678033024,-1873.34262940667031216435,-1292.46709081817243713886,164.683019489873998963958
0.00500000000000000010408341,0.721061548362291637737087,-0.175518165809060822102339,0.545576555424784670478289,-0.0279606366126808024430428,-0.375522975764185140690188,0.019897945260868410422006,-0.000239546550060203237162218,0.00391213257571671087220455,-0.693411794724643093523753,0.720530241055527431726091,-0.178465900590811687997927,0.0177653754654336359930511,11.7671209712886266629539,0.13062769825967038284098,0.0552817751965617026899125,0.913914785752524050366219,-5.56016977392687650194603,3.22465655966866338033583,0.145109745309382032196766,1232.54029411206897748343,1204.11505728355314204236,1230.55466114792352527729,1196.65784134117166104261,395.074717723127889712487,-1031.72917500201060647669,-2072.65738978312629114953,-1335.14191836015947956184,164.696447539209373189806
0.00749999999999999972244424,0.646325730746366566847882,-0.0116624774774793868448164,0.767568647618565580437178,-0.0255366145145914658076691,-0.373580419127304996784744,0.0214143959786456949956346,-0.000624229799496692607310711,0.00352276657855492411272613,-0.693396225842212388101871,0.720546526774524354053142,-0.168639720656603570025922,0.0229841969900770881629626,11.7486714271213301685748,0.131332915952077244892138,0.055844665170135115994654,0.918419539231435155812733,-5.56000250341613888593884,3.22432520845618730831461,0.147384679848128669066298,1234.02025279804979618348,1201.13266814270650684193,1224.87473077252457187569,1193.21329947641629587451,615.692398883174973889254,-1193.82933109995974518824,-1984.92579510307223245036,-1168.89604616026190342382,164.712022230518982723879
0.0100000000000000002081668,0.510598930684619367603716,0.11492729289285263938325,0.902441118414671561431817,-0.0241525790903754332406006,-0.372850015105628040945618,0.0235365720664620636792819,-0.00100478146326048655909147,0.00315346487682877704011863,-0.693380525963699922975536,0.720562719956473141103004,-0.159300732793791088859336,0.0279562363257500612334638,11.7299178379570605557092,0.132015735397350619795276,0.0563911535679019540467927,0.922930762174166030575861,-5.55983423124256948000266,3.22399450120199571045987,0.149670526890983729417783,1235.61875610648485235288,1198.14591062805334331642,1220.63003217240816411504,1190.81336111037035152549,628.812191614951984774962,-1312.35004343884588706715,-1482.05941553901516272163,-844.570434589468163721904,164.724551087541129845704
0.0125000000000000006938894,0.360881903892180611048701,0.291071960543305030544303,0.950572729420752660089988,-0.0233747290804480860326731,-0.373645060992185085169126,0.0265791732628522271719707,-0.00137806453417347544304628,0.00280344902315778077284136,-0.693363553149307532130763,0.720579892664746313180046,-0.150507815833817781836501,0.0327490219610261645843963,11.7106922355328855189782,0.132672530640362079656924,0.0569278121159004224516309,0.927445916283736071505928,-5.55966521047297490554229,3.22366422450877321281837,0.151971382817501082795886,1237.16431375612455667579,1194.57091792551227626973,1217.46443369482949492522,1188.99044730346895448747,583.551243487545548305206,-1683.3279509257865811378,-1060.99071121011570539849,-666.034656993588328077749,164.736612487290841499998
0.0149999999999999994448885,0.234135021578271373954294,0.621976938322848726947711,0.878051954722519178986317,-0.0235473573876780299662936,-0.37526525699240664835088,0.0308530451271326888740276,-0.00173583198308082807710673,0.0024738891511413905847927,-0.693343939444414636419367,0.720599346194557788258805,-0.142438541032495036287031,0.0374804911281609309803287,11.6908006806138686783925,0.133290331472564416159798,0.0574657993915331302692273,0.931961704255386602646638,-5.55949528053756836243338,3.22333561743059782145338,0.154289166916626474534979,1238.53651232392257952597,1189.7292708734244115476,1215.32507861635758672492,1187.48318782540241045353,378.648083418056501159299,-1830.16877978084221467725,-495.580324467482455474965,-452.724277068182232142135,164.750546313543310361638
0.0175000000000000016653345,0.215231302585466272025982,1.0165125132656476214521,0.702565275921885667997913,-0.0244454493962544434915163,-0.375874285337563007747264,0.0344412957992303800369704,-0.00207462526841258347240493,0.00216698789148269494939103,-0.69332215493818449836283,0.720620610485413926049603,-0.135212842134366628688014,0.0421652161585111817654337,11.6700348237316475774605,0.133860283366605548049932,0.0580094650092559879772658,0.936473464534687494165155,-5.55932476590030777430229,3.22300844319191748255093,0.156624649523275122353638,1239.0575541732148394658,1185.42007402660806292261,1214.98653207249208207941,1186.72682591812804275833,51.6200590516291342169097,-1730.55073733949006964394,118.927612750758243009841,-232.41198502232685996205,164.761708950168923593083
0.0200000000000000004163336,0.31803051841059709614612,1.515769875299840752092,0.425392588961911788381087,-0.025369789298638343449932,-0.374397233415951602442107,0.037313706600922834366596,-0.00239449016989644975980656,0.00187837182538233907203029,-0.693298148863253249629679,0.720643742409058818410017,-0.12878394439993842701675,0.0468598801952810617432732,11.6481766849651666717591,0.134386690633998051591647,0.0585668278367144981566561,0.940974058776481769861277,-5.55915352981813537525113,3.22268197281293078404474,0.158976149433663366261626,1238.79461261918072523258,1181.07651718672696006251,1215.91971668011137808207,1186.32112790029077586951,-237.837066196789351124607,-1710.07544182070978422416,512.667883382664740565815,-137.843002677300376035419,164.772407468912490458024
0.0224999999999999991673327,0.526809059373783417079551,2.06162591744004908278498,0.0974830404811096729034148,-0.0259662719498952032637362,-0.370631777388327199318496,0.0387628258402469907939469,-0.00269796700231611855103075,0.00160628458604701661142922,-0.69327122914450522994656,0.72066940845659466230444,-0.123109065483475707547534,0.0515313016186909333971045,11.6250047762864738842836,0.134873464506337636947819,0.0591387968968572277916884,0.94545724985394286044027,-5.55898203580035588089459,3.22235588369922654194966,0.16134118068766600817554,1237.86836884223089327861,1176.86969681750451854896,1217.54987148940540464537,1186.03761090474154116237,-516.74042705667477548559,-1620.18105970096235068922,708.552154491462601981766,-125.406668629057065800225,164.782722899363733404243
0.0250000000000000013877788,0.845666828558788497005594,2.59982011389147249502685,-0.233663646638583355485963,-0.0257329461157899952450379,-0.364115152570507472074013,0.0378661273625348626659104,-0.00299016085726403054931288,0.00134392630887852611645816,-0.693240511459124908455465,0.720698467020969846252854,-0.118019552596346971595764,0.0561792749081904407848498,11.6002985220457084380996,0.135334649091392256181621,0.0597289918657447418959272,0.949916082965146846284199,-5.55881023575997890162625,3.22203012344864836435931,0.163716882403331459583384,1236.21091048389735078672,1172.9756118882221471722,1219.46247745256869166042,1185.6940945571454903984,-867.096220116536528621509,-1614.67070810558630000742,764.085060080014841332741,-207.240150743291422941184,164.79257901849291556573
0.0275000000000000001387779,1.30382753993862943175941,3.16080711217776944010893,-0.561103097192314770325083,-0.0235901419095612407961227,-0.353950225768347448429552,0.034655772524911754306487,-0.00327195702872378011566434,0.00108828742975327773419292,-0.693207376210207559807941,0.720729602343666342356698,-0.113479519276911619551917,0.0608072899401173594391423,11.5738415029247896370634,0.135773170491795658332279,0.060342168851108740623701,0.954346129715155422346129,-5.55863728401709344950632,3.22170446600914095469648,0.166102133522851524993769,1233.53288774164821006707,1168.79634327697658591205,1221.37029678980547942047,1185.00141015102508390555,-1070.00004086394301339169,-1436.32951024769749892585,552.000452505444854978123,-318.848740290923331031081,164.803879230659106269741
0.029999999999999998889777,1.69541023317818329019246,3.51989644769983689442938,-0.739099202719937564687314,-0.019756289128533319199299,-0.344263858814557288656744,0.031196279384244268717552,-0.00354859582246006303660191,0.000832067577067226605419537,-0.693172311035834431969249,0.720762342526201749137726,-0.109309997246964357708876,0.065410773924573256676851,11.5454292100368718365644,0.136203774839942420848971,0.0609818265375923554416637,0.958742175098320159598586,-5.55846237247597496633489,3.22137880116509567329786,0.168494258738145830101018,1230.8609102795776379935,1165.79396433698366308818,1222.22247971509591479844,1184.09985085569087459589,-1131.20707441917124924657,-1088.83976966426394028531,129.747315263421086228846,-434.778363226496310289804,164.812859613108258827197
0.032500000000000001110223,2.0300831058182229327258,3.74985568957544046497787,-0.80566428900374675858842,-0.0138633544589501084276506,-0.334001297393892004894411,0.0280153959598028398647607,-0.00382432066869297293196239,0.000572258109928938316079972,-0.693134725462495882020164,0.720797252064418358941111,-0.105418099297724707219537,0.0699299018734463873059326,11.5148733187772158714779,0.136634389824381835554234,0.06164604876192475435559,0.963100653628621738988613,-5.55828523172515875927502,3.2210536244821486029366,0.170890899281584268676326,1227.87685236955235268397,1163.35214442865526507376,1222.01903336612258499372,1182.82751833489260206989,-1362.99521048940619039058,-936.325804637453188661311,-345.075951514354244409333,-640.673831337698516108503,164.821389920336059731198
0.0350000000000000033306691,2.30645156601568457332974,3.89236451454411191974714,-0.775833196162256877315144,-0.00524628941016608459080306,-0.322045591630378158498615,0.025170863664421869870802,-0.00410199660846026839533529,0.000308134199709379026557027,-0.693095512817662906535077,0.720833475302268822382246,-0.101770563157022750355729,0.0742888363079509117525845,11.4820069931363377691014,0.137067882305829252809204,0.0623316257256526576324696,0.967418303002618884534058,-5.55810606859551992187107,3.22072874015495402844067,0.173290483369382686262838,1224.0459342271306013572,1161.11233531379639316583,1220.49709995752414215531,1180.89648169900237917318,-1439.34626710843144792307,-705.98505132584284638142,-747.946327333511703727709,-768.030440411166978265101,164.831108779771682293358
0.0374999999999999986122212,2.41319356497117665227847,3.92849121556456770676391,-0.686086046956664197260523,0.0021832505497592080700997,-0.312951098313680620144339,0.0236030563335019837045703,-0.00437922855136958256994095,3.66287959838460175842831e-05,-0.693059663624582267260621,0.720866246721131087582535,-0.0983802749915383273338065,0.0785336960453944521454162,11.4466882726095935396415,0.137502785269535410250796,0.0630467298123853353564172,0.9716901539544302579543,-5.55792448704801156367239,3.22040342228976550487118,0.175695289413849681237068,1220.68012103401019885496,1159.82221917202605254715,1218.27930172945502818038,1178.98736613283676888386,-1381.09609610751317632094,-405.95466112754388632311,-1033.96376808359536880744,-816.070030608444085373776,164.83877819212221993439
0.0400000000000000008326673,2.40071848585227254346819,3.91800332335553269658135,-0.562758815088238661950015,0.00865842588922891877312171,-0.304598886400323398682133,0.0226613449012091142109604,-0.0046553899957208896495664,-0.000243970666889993352544064,-0.693031155946614241258885,0.720891767831769891827776,-0.0952515530010654004611226,0.0826591037334379885592739,11.4088102887491249504137,0.137938563261752022981455,0.0637944187728606004750276,0.975908824200723667985358,-5.55774002304866687751428,3.22007766432801245670703,0.178107984055158596881085,1217.1404537465930388862,1159.08256200815867487108,1215.32728111710616758501,1176.81613154596016102005,-1596.70392483085242929519,-224.065954144907465206416,-1405.20527474018194880045,-1003.29389569710565410787,164.846003029581083865196
0.0425000000000000030531133,2.2849526646770446092205,3.88404854137336741359832,-0.407400390711930848741673,0.0147957043814839397238847,-0.294759989540577471700544,0.0219995061826320746634078,-0.00492643226254794487639632,-0.000528381200780839296524127,-0.693011285515197528184217,0.720908842681816763864333,-0.0925531897665569230904126,0.0866065016839260570780112,11.3683066784520399039593,0.138361108630604245917084,0.0645716866656873139662665,0.98006600595884862947571,-5.55755210882615724443667,3.21975246946670257131018,0.180532274555088578793516,1212.69660140985592988727,1158.70188940130151422636,1211.25327535575411275204,1173.97089665435123606585,-1656.78235260006749740569,-83.5620015410768672836639,-1546.80610160407991315878,-1071.12279307630205948954,164.854159715441966227445
0.0449999999999999983346655,2.13308136275015058913596,3.84683968417842825360253,-0.286596324556616155465605,0.0187896767768999939374197,-0.286475792534954587509333,0.0216401116819153298276301,-0.00518826251417165741630644,-0.000812228284858389931212541,-0.692997585734783205779763,0.720919896522564163099389,-0.0904322861945872497058119,0.0903350891334056826931231,11.3251575059719158389271,0.13875861070514453055047,0.065375142412082198895007,0.984149721097194785102147,-5.55736056735254901894905,3.21942887786001996630603,0.182971151216421823448854,1208.85654198359270594665,1158.66475200045329074783,1207.59325060908577142982,1171.46051758057865299634,-1549.31536696503894745547,2.75391010186467743992011,-1497.81361981113218462269,-1012.75446807640082624857,164.860529456191471808779
0.0475000000000000005551115,1.94265889663021651401209,3.79390344665034939808379,-0.183247231904768687060781,0.0222276903351814325571212,-0.27791491644254018300586,0.0213048576012506568622129,-0.00543188315158471112659155,-0.0010879361144593827949445,-0.692988176456132642933028,0.720926826742983251072872,-0.0891602992118225717854685,0.0938354621919504638949405,11.2793931171563563964355,0.139108273961530332085701,0.0662041725942940917359891,0.988146352226347612912605,-5.55716592981204637879955,3.21910840979834000918913,0.185426516019947029700887,1204.9500245750307385606,1158.7156589518108376069,1203.76420725669845523953,1168.90712431396923420834,-1555.04560487906792332069,6.30000221426598194796043,-1558.11826132626129037817,-1008.81745414012493711198,164.866455010740082798293
0.0500000000000000027755576,1.71746705470281058047988,3.71349460457031099736014,-0.0961093895818489474258683,0.025769440117231989101354,-0.26873130676307382946888,0.0209421853922139300507865,-0.00565580567720997025304985,-0.00135349177944257543886042,-0.692981573260790462143177,0.720931083782415438321323,-0.0887945930343354422609181,0.0970646550498065752154986,11.2311014769440227212272,0.139405544772985751089678,0.0670554511858756224773614,0.992037650562620498817523,-5.5569684414911266756576,3.21879126717311470073923,0.187900173805938652815684,1201.08131395919735950883,1158.69625201152462068421,1199.80265930245445815672,1166.4164303098780237633,-1508.17513131187365615915,-47.3581901039324506541561,-1621.11096985772837797413,-954.604202715291194181191,164.872011841759359640491
0.0524999999999999980571097,1.43003385351126843794134,3.58051210829460231366284,-0.0291436105039202184019409,0.0298423662412016163503203,-0.258609402977319824401548,0.0206289269914701409169844,-0.00585671484984822028618812,-0.00160613334285511760030074,-0.692974706557884401192382,0.720935659635689618518484,-0.0894269550447876898635613,0.100000323584485878436467,11.1804273708754493554807,0.139642633299846913308428,0.0679269655125189636413197,0.995804586658118107145299,-5.5567682475998037006093,3.21847789862519251258277,0.190393653620517105951038,1197.40914891847137369041,1158.47886800129117546021,1195.65865240740981789713,1164.13410330039278051117,-1527.11892015636362884834,-145.853149313461557312621,-1860.06692980718162289122,-923.736592617070073174546,164.877124294141935934022
0.0550000000000000002775558,0.983525648847927591589269,3.35285713662665774137395,0.0249358230430655990195188,0.0350714989113643862972403,-0.246589185005374689207969,0.0204400078958830375142064,-0.00603368162296798443006152,-0.0018518715334454401068992,-0.692966099730845885851238,0.720941975001527457500572,-0.0909668271730535021868391,0.102718398954277617685094,11.1275719217455435483544,0.139827046078826983110943,0.068826493263777752118493,0.999425509479216600539075,-5.5565657645297061861811,3.21816760259763734453031,0.192905441352791390263732,1193.4457193584155447752,1157.96698626495731332398,1190.50232465341855458973,1161.79774734679267567117,-1351.41107850190451244998,-213.671920287970152685375,-1899.05810140689777654188,-770.673145293039169700933,164.882746939093863147718
0.0575000000000000024980018,0.517965975882594187318375,3.12382550807412151527842,0.0435783815140737273985394,0.0389903479057823951214878,-0.238014407032375058248519,0.0204682527620333003237629,-0.00618525297532418211893246,-0.00209476627953926594280509,-0.69295412406761658363763,0.720951603754514946942322,-0.0933591533251831862116887,0.105273012892980438737212,11.0727918448510749271918,0.139962360492989018601051,0.0697604457987652942785317,1.00288098049514129428417,-5.556361632189552146599,3.21785994324463153759552,0.195432434643455860134864,1190.65209352596184544382,1157.41050839985132370202,1186.16336190037532105634,1160.28073757392758125206,-992.687931210366969025927,-214.386340704459257722192,-1693.98420137336051993771,-503.203186043265532134683,164.887007402474154105221
0.059999999999999997779554,-0.0254332293021000549471111,2.8964771225342897942312,0.0275727954336915485888948,0.0412293908352428795094369,-0.231667855221363711004656,0.0206608515229985689742875,-0.00631624437606874682832325,-0.0023428146493708239608833,-0.692938472809806249586018,0.720964781095075002426142,-0.0963866140963386824891401,0.107678131147171757264758,11.0163971120702832706684,0.140065633954214979750574,0.0707327348509007441945684,1.00615255076352450025468,-5.55615597351730183817153,3.21755401584989941810022,0.197971241886085669303696,1188.48227970236371220381,1156.8950545614350176038,1182.03240364655175653752,1159.28173141657634914736,-816.52778838247331805178,-172.054929614023507156162,-1693.6217405281704486697,-315.548161722017709962529,164.89082975575641398791
0.0625,-0.705637104006291093760694,2.67516029931296106525451,-0.0395694811034054960696693,0.0409665544227158159862334,-0.225953372294699500466564,0.0209629769891798330150312,-0.00643033660579435221993361,-0.0025993426570279126903984,-0.692918665196362582037182,0.720981932467611663639673,-0.0999200203571808942548671,0.109895237727883038347798,10.9587436756749667665645,0.140144920061323063897873,0.0717427763097983617335274,1.0092267642297536589524,-5.55594930108093976173222,3.21724927314723130322704,0.200518115463649115870481,1186.56945458404948112729,1156.55023375178120659257,1177.69525319773447336047,1158.7029967653174935549,-611.094823130587769810518,-56.6405805800058672616615,-1434.19771479925520907273,-114.000572044187620690536,164.894914809560020785284
0.065000000000000002220446,-1.23415348224961718415216,2.55090133385882822381063,-0.138693291038192889619296,0.0380345517032583332883711,-0.221666609495717564781714,0.021111369214958337209298,-0.00653349866261019110447172,-0.00286588074889938555084301,-0.692895116539420596879495,0.721002607647334037288545,-0.103819139423778308839452,0.111824063823506764103755,10.9002268566393816229265,0.140207864907598567238978,0.0727847283519667404005915,1.01209424131403347146829,-5.55574204031838725370562,3.21694504802189973347026,0.203068061641303115871793,1185.42680558671077051258,1156.6118516585349880188,1174.86141507255547367095,1158.71172855635541054653,-412.18812957699776688969,106.649806096811417432946,-929.183501819760863327247,92.107178256583125630641,164.897905057906456249839
0.0675000000000000044408921,-1.64949548545267066224085,2.47759827589709669126705,-0.281445120028144257773306,0.0328664617441970230427017,-0.216711027458318938876403,0.0209496243843466205258874,-0.00663081492829867107097197,-0.00313805669668540572481152,-0.692866983658007029589498,0.721027592601491629231703,-0.10804221615039168169492,0.113293548317280251547245,10.8412720798091566365429,0.14025174997625411421609,0.0738452763974629111665138,1.01475090483603636037913,-5.55553450802232973160244,3.21664056280344379246117,0.205619481403668341590318,1184.50851393616449058754,1157.08348278226526417711,1173.04933568863566506479,1159.16353265660040960938,-419.773523621597234978253,288.954730319619272904674,-553.292625068160759838065,282.110575794967871843255,164.900471439110845039977
0.0700000000000000066613381,-1.9566496274272211497447,2.40415320207508198535606,-0.494483128663381732437188,0.025420315951288883354886,-0.209369863929611987884982,0.0203333056462524364160771,-0.00673277168991028972938606,-0.00341264987233464529500782,-0.692836142295235379862106,0.721055005057888109831765,-0.112442439622251241782003,0.114070467560515781402231,10.7823268484844412284929,0.140281905333943690550313,0.0749055361729311641738605,1.01719461645889319711955,-5.55532612291196858933517,3.2163341156746541038558,0.208173842676510595373074,1183.32793796860278234817,1158.05662531013308580441,1172.09495194721466759802,1160.12228143533025104261,-492.415266070475809101481,403.548626155771501089475,-171.45790380222965154644,407.903108268147548187699,164.903068644803624920314
0.0724999999999999950039964,-2.03416614605856560515917,2.31772679407422499409108,-0.695145464840402627082483,0.0189533602874846288099953,-0.202639460088174155893981,0.0194061847240253396162935,-0.00684912147634355282510565,-0.00368208073321031181118768,-0.692803793081899099703946,0.721083641041077583189178,-0.116944154499440303163205,0.113876603541288506926676,10.7238490493242082379766,0.140296135907677227416812,0.075940728843350208121521,1.0194267593997003995554,-5.55511680021570430909605,3.21602496324347608691596,0.210734900201949876263896,1182.04643760581211608951,1159.10122591304411798774,1172.19204616962451837026,1161.20304819794114337128,-616.205351260397264923085,435.137626118376715567138,163.807412418146071786396,478.832941918063625053037,164.90483684294574118212
0.0749999999999999972244424,-1.93372272529596256340767,2.17248444370245019641175,-0.898639939294431533411966,0.0129748155215447785043592,-0.196438292693906751962274,0.0179352718032839454631588,-0.00698464230822872043230598,-0.00393806356557567429493849,-0.692771378018718242408625,0.721112119876901269677205,-0.121548520635291895652941,0.112510008499950603377826,10.6662934299817528938092,0.140284364075514117464749,0.0769317393646324343414733,1.02145126439300137910493,-5.55490563308804485842529,3.21571405027738421722461,0.2133052757589052328413,1180.2469112123008017079,1160.23231344072496540321,1172.91398900930539639376,1162.51644614492056462041,-822.321539205449198561837,443.261953737418991750019,332.54253557442979172265,557.953750610885890637292,164.906201288318811748468
0.0774999999999999994448885,-1.7099562923165116945512,1.9665108486964777423367,-1.08289920708730913467832,0.00808435839983159300337068,-0.191083097596274592566701,0.0159565552723977197024929,-0.00713941728016359924979817,-0.0041694794931886351371797,-0.69274113986344865168121,0.721138355014717125079926,-0.126361253576216608918159,0.109808373051766133832174,10.6101017188627473331053,0.140226254198877992029892,0.0778618734735720269268811,1.02327550840955727728954,-5.55469218213966353658861,3.21540284531487952079942,0.215885749699798762391012,1177.9348299097848666861,1161.31753568173121493601,1173.85475884749666874995,1163.9928169509955750982,-1048.10304911925322812749,397.642225068193170045561,351.002095434523369021917,623.795887186360573650745,164.907236747205985238907
0.0800000000000000016653345,-1.37985095360454002033634,1.6825308198975519324847,-1.21175207902077231025828,0.00491452229701304366127346,-0.186519542615429495535651,0.0131518437439050277226738,-0.00731253596656185334001776,-0.00437141292345316189588145,-0.692713640400947738839932,0.721161851760265704136543,-0.131397798179910874072363,0.10572628977486128731833,10.5556922756117668171782,0.140110703054466656514165,0.0787233637156497939590949,1.02490778770541934861171,-5.55447668265307115120777,3.21509321446150631018668,0.218473759996062388832883,1175.00639596670453101979,1162.22052456606593295874,1174.66899948647801465995,1165.63542558085237033083,-1404.41908479456174063671,327.248108160710842184926,236.340249274962644676634,749.464194161054592768778,164.907882881763725890778
0.0825000000000000038857806,-0.914312591637706284508624,1.25152380417120445699197,-1.25824465396698981223267,0.00255659150446966090819423,-0.181528408344133362906092,0.00869764953086902409262748,-0.00749843943579433548640711,-0.00454508468207740542327278,-0.692691113332041585870513,0.721180522260626233332914,-0.136644679075797664813408,0.100386157608804787999546,10.5034486511399656194499,0.13993007500404877618827,0.0795240125250934182243867,1.02635815667837371201188,-5.55425908393799883100428,3.21478676173611921385032,0.221065640795719664524199,1170.91273448581205229857,1162.95377622253477056802,1175.0364600938714829681,1167.74013792180085147265,-1561.1129425907606673718,192.203297448531714053388,-18.9050056819723799605981,779.824979394788215358858,164.908218124144553939914
0.0850000000000000061062266,-0.498427540365565135971337,0.823430768888086306311891,-1.18041483998700735824627,0.00120798128237242568747134,-0.177876400984669363891655,0.00458538471502002633467532,-0.00769343820752599848178388,-0.00469703583282101485435467,-0.69267596991079904977795,0.721192057675638875657853,-0.141979339102599633193336,0.0939659568282372459346874,10.4537145928372368075543,0.139688565142976756083826,0.0802759269138619141470414,1.02763831353219803332877,-5.55403939827581272226098,3.21448418430797788758468,0.223657158859450921895018,1167.20083125375072086172,1163.18154105330859238165,1174.57447445806815267133,1169.53455047782631481823,-1488.50192655781802386628,-10.1221439454548001180001,-377.205928711054752966447,702.417625426323297688214,164.908138309532290577408
0.0875000000000000083266727,-0.0791519723638536981669134,0.346046458934929246353818,-0.966323826494412396748146,0.000527123732274073736152331,-0.175609679674359558942953,0.000830612038625760137726395,-0.00788783648188179364879602,-0.00483032337129273361964188,-0.692671611473614223797313,0.721193282366697219210039,-0.147421443338328517214109,0.0866901525550019536048296,10.4067836279763739071313,0.139377577941240005099388,0.0809949441396226321732144,1.02876468092378026142342,-5.55381686359953352649654,3.21418549618526983024935,0.226247215428489911737131,1163.47022485302295535803,1162.90316550280749652302,1173.15043045031620749796,1171.25222604893247080327,-1568.89356965112096986559,-263.155466230091917623213,-842.940644989086422356195,706.61026409616306409589,164.907695038253933716987
0.0899999999999999966693309,0.402103375034461751891257,-0.236719970059214995794505,-0.55943198677611094549178,0.000872020765664668863134668,-0.175358737685236298897706,-0.00287942230766459125734791,-0.00807355774035013219747103,-0.00494982142080270266087938,-0.692679372455822117693458,0.721182977047193474184894,-0.152941197107348603179133,0.0787939031278858115214803,10.3628955164568505864509,0.138994807701546818634597,0.0816958692993190183084806,1.02975551779723062395533,-5.55359036776693049120013,3.21389100407811545423442,0.228834816386950079536433,1159.35636340549513079168,1161.86576372215813535149,1170.35977123312272851763,1173.0676017983071233175,-1394.35042453624464542372,-509.466535073444049430691,-1170.74322607645854077418,604.641052036187147677992,164.90675378824624885965
0.092499999999999998889777,0.765172888870358502977354,-0.689289066204788691827332,-0.118161974929738081141473,0.00235175578607544049497546,-0.177249600976757987202959,-0.00510866889101289911589987,-0.00824627528216737189226127,-0.0050705881724302610466526,-0.692695565117238287733414,0.721164627126279378366291,-0.158305914892489935086317,0.07061396843002390455446,10.3222315393210557488146,0.138560144143714286668612,0.0824004484317329560782994,1.03062737157209527438795,-5.55335953030913742622943,3.2136004927962287247567,0.231418375731817865803563,1156.49847273034174577333,1160.35583282744028110756,1167.29671431993392616278,1174.27543130911340085731,-974.651138355783587030601,-738.630260402214162240853,-1314.25309480268765582878,406.26637929144601457665,164.905635905884679459632
0.095000000000000001110223,1.06550874409488027794168,-1.06463047580860958873927,0.380202475046175103479129,0.00520030061672812835005253,-0.180640457285763722516947,-0.005884793374298132560829,-0.00841030592479200499178571,-0.00520092584348190358628505,-0.692714320697373930890706,0.72114375101758521058315,-0.163269736456632341692341,0.062272266061785430668607,10.2849165309671022328075,0.138096666668877487982314,0.0831072336199947248047692,1.03139919130310042660881,-5.55312526470502731967827,3.21331293447384869210737,0.233998128749740963439052,1154.48310771371620830905,1158.17261242014706112968,1163.78850575910928455414,1175.09893369476435509569,-663.006596460490413846856,-1093.56262599867386597907,-1557.79689524438117587124,275.377430032540132742724,164.904180437040309925578
0.0975000000000000033306691,1.33443840014874037791515,-1.39777039625423449287211,0.961302349273949308106069,0.00990338926225120715074457,-0.185183214791461075998669,-0.00415026454626365916972253,-0.00856917049623248140710619,-0.00534969341551492973824145,-0.692731951720552574514045,0.721123777123498843621974,-0.167604087400620382908301,0.0539204137190955890002186,10.2510114379361780834188,0.137626807364177899950519,0.0838178924905931127531389,1.0320898633052979498359,-5.55288807952877139229031,3.2130273321337901037964,0.236575332767257145993867,1153.18343974803929086193,1154.88801969744690723019,1159.50772984371201346221,1175.6523184592761026579,-292.210657843588421656023,-1282.44519298250338579237,-1519.7274522063694348617,142.401619671363619090698,164.902052954311301391499
0.100000000000000005551115,1.48034812526399517373932,-1.57187937337945249360871,1.36178465096213474616604,0.0141993358478614776357896,-0.188927936595084666748789,1.00044161460196429080938e-05,-0.00872468616127898208278957,-0.00552038110989742317885609,-0.692745452014856377687124,0.721107541123282791417637,-0.171197066254304308685619,0.0456687231295041240475285,10.2205141607028160422033,0.137162524919974299075776,0.0845297398221428741837968,1.03271933361480017232736,-5.5526488744443964762354,3.21274360473001285853911,0.239151165395322690132573,1153.02205442449826477969,1151.76038645523453851638,1156.18986849807743055862,1175.81094179312117375957,98.595785491579505332993,-1278.04397359250174304179,-1218.72379892779349574994,21.994707510020798935102,164.899969059493770373592
0.102500000000000007771561,1.55949487236009565194195,-1.64040479137896433314836,1.60292570933461653304164,0.0180958987223396768062589,-0.192769576159572936235875,0.00626502897153923769130168,-0.00887421232811884917734968,-0.00571561276113120853015204,-0.692753772455932614882101,0.721096062651730873582778,-0.174025604716277565442439,0.0376883683996440121966032,10.1933604415967948852995,0.136707756061652446755161,0.0852468507838296390977106,1.03330676961288880910672,-5.55240770269233330225234,3.21246209531505222400938,0.241726159095529913312106,1153.67641867549718881492,1148.49779982948439283064,1153.41411084907304029912,1175.76229199682620674139,361.71284711204020823061,-1280.2061730756602173642,-997.226184824468987244472,-36.9313174602212512809274,164.897569592435502272565
0.104999999999999996114219,1.60208063212772411354479,-1.62423023216009965175033,1.68278668019803134825452,0.0215199899194821742121064,-0.196931400870190370655521,0.0129099547710842185721525,-0.0090142811701016418296506,-0.00593148799683575894681198,-0.692755628486108943064892,0.721090646001100399331563,-0.176184930512104487299041,0.0300770465392536101578713,10.16943072820797411282,0.136255725140852962384841,0.0859658322134820990223503,1.03387162386103970135309,-5.55216441419769424214792,3.21218405003783580298204,0.244300950384596732289921,1154.83061866005846241023,1145.35935558985624993511,1151.20373757395509528578,1175.62628520582006785844,531.204956817101560773153,-1166.73600153608504115255,-745.888752922566254710546,-58.4137218094384707001154,164.8949134977578694361
0.107499999999999998334665,1.6226440543896716306449,-1.51147114717563524344257,1.5736164458717234460039,0.0245095001554747338179396,-0.20142461844416592597895,0.0187507225921526299305953,-0.00914989765998902061794329,-0.00617082235664033300348574,-0.692751815634568779422864,0.721090436427997416579672,-0.177564281198583667764623,0.0229055377227735112999341,10.148560452134685050396,0.135821337659545515741399,0.0866818540273254778405487,1.03442853263203837776985,-5.55191836730219723250457,3.21190946852522385412954,0.246875039167506832304966,1156.33244345958269150287,1142.66411982180397899356,1149.68466708446021584678,1175.47022338777901495632,676.916941401395320099255,-1014.68094888227733463282,-534.203965982487261499045,-60.5835550824394317714905,164.891953684736222385254
0.110000000000000000555112,1.63790066382285393054019,-1.28202398843837106490184,1.27563244881786852502614,0.0280586080075915407505693,-0.206354720148575310201267,0.0237454244117367881117264,-0.00928607365686463966103492,-0.00643141837843387489254132,-0.692742405438426134267615,0.721095326300004724195958,-0.178137084371378623393056,0.0161760638756116570391441,10.1305440430682871522095,0.135412170184123381577734,0.0873835892466771901876399,1.03499127477831653898477,-5.55166927083770200823665,3.21163843614320931862949,0.249448299145785479247195,1158.2152033670654418529,1140.28595084544485871447,1148.53271774404265670455,1175.32336743040787041537,664.926881559903790730459,-690.434422742372930770216,-341.311281734351439354214,-47.3863122303555002190478,164.888057973002361222825
0.112500000000000002775558,1.64176787303607762957824,-1.03588223837202098032151,0.944736458805956469397813,0.0313536207118193036014198,-0.209433773477433443632734,0.0259255288804635490584882,-0.00942441242547847370103486,-0.00670133059763067511632739,-0.69272647045832302925561,0.721106294577428807990316,-0.178076183037935431574539,0.00980320552951047252676631,10.115142021445150177783,0.135016407048225484111015,0.0880516319525577184634813,1.03557413862301372908803,-5.55141781157059011064803,3.21137156014898561551263,0.25202131072299971403794,1159.6570778673822132987,1139.21194770809211149754,1147.97811067578845722892,1175.23329182662723724206,518.878767513842376501998,-215.735612134585409194187,-175.251232282562199316089,-42.5861167079801461454736,164.884530379009987655081
0.115000000000000004996004,1.62224939042072424655316,-0.76946173411825846688572,0.597287037166515877295581,0.0351709459393205331467769,-0.211123453854748344138414,0.0264116619992684834028474,-0.00956285422245330661572549,-0.00698083885478424388121299,-0.692704464976205969151124,0.721122921389598436903157,-0.177436232105016078453019,0.00392015790162456023715265,10.1020904908269795186015,0.134634409780769542797074,0.0886915230855530589693103,1.03618464735332516113431,-5.55116522420469049592384,3.21110826476870725443291,0.254594419975697427993566,1160.80959720463465600915,1139.20727278477193067374,1147.65646158262984499743,1175.110436846867969507,423.686843909217316195281,240.909707341142848235904,-117.577133478653095721711,-90.6599997158536154984176,164.880717879692582528151
0.11750000000000000721645,1.54799629425092044598955,-0.467213312599329577690099,0.222151258439060028671008,0.0400731320524235906654908,-0.211778002884256633109317,0.0260169366146006768303334,-0.0097015908519520865221919,-0.00726462109427400935801611,-0.692677106273244969081304,0.72114456309041852222208,-0.176329235267316503099622,-0.00146054267988388053467474,10.0911144542635025089794,0.134260717881158675446329,0.0892989869037651290417656,1.03682857205727896321434,-5.55091338510015486207294,3.21084782085821585084773,0.257168864587953571732015,1161.77551208692830186919,1140.41649624479782687558,1147.39022500839519125293,1174.77999182804796873825,283.748016873051312813914,618.344999849661007829127,-85.1607033855090520546582,-176.345762737082964122237,164.875822141325045322446
0.119999999999999995559108,1.42798984478160750910547,-0.250022787819965786049181,-0.0297084168000909705498191,0.0441362216581291655348451,-0.211670589102404133052815,0.0253768816030593667709692,-0.00983803769992312379666366,-0.00754285982667903583814839,-0.692644560201491676920682,0.721171201517872839659162,-0.174976379191680159186362,-0.00636016606401582085261737,10.0819354806195988771833,0.133878545101376922321634,0.0898686132213456778661254,1.03750974383656502375572,-5.55066288198440993539862,3.21059003286553501510525,0.259746088547449460737226,1162.22833728899991001526,1142.29899778402023002855,1147.23065806570230051875,1174.22870803318255639169,115.321816112555310951393,874.888308698293144516356,-43.8156339328089359241858,-301.245833441180934642034,164.871481783217689098819
0.122499999999999997779554,1.2357235854813954922804,-0.0767215861825809308793822,-0.206107112220532129320816,0.0482583246038898044938392,-0.211344245236689654010576,0.024494938142822785670516,-0.00997282684164913987845402,-0.00779946754445168775882191,-0.692607294605034562451351,0.721202554283378871602395,-0.173648433936612334171912,-0.0109487863186582268237856,10.0742840035801819453809,0.133465432076673579109283,0.0903823097225057714432239,1.03823031958386335915634,-5.55041455788341764332472,3.21033513264958170196905,0.2623273296373300755846,1162.35212116749107735814,1144.79093778828928407165,1147.17114683873114699963,1173.27376266084206690721,-9.41863281318545908504802,1142.247213480094615079,16.2782114840865546057103,-520.293399886076713301009,164.866879452067252032066
0.125,0.923469789527869511225333,0.0890528901343491385844686,-0.331907699275825640583548,0.0534484939909721165629541,-0.210953333947717341922967,0.0230541893607654965747678,-0.0101059411954009560619117,-0.00803078792605578170582525,-0.692567787697988990203157,0.721236280146188790673989,-0.172447014999104336618885,-0.0152313293656948789411842,10.0679066696499219801808,0.133015146320895449871813,0.0908421993380184034094782,1.03898530664697941183761,-5.55016845831300553726351,3.21008241988399145583344,0.264914096672412668898033,1162.18124412493398267543,1148.01023385142070765141,1147.31204912312273336283,1171.62724103375217055145,-107.767909551966923231703,1140.47403020681394991698,100.248489299110502770418,-672.713704293072964901512,164.861064299200279492652
0.127500000000000002220446,0.616035553191056961530592,0.205322532117786948901994,-0.3740995164630205316314,0.0572685592065245094306469,-0.210662669772281319069407,0.0217783826039993667900152,-0.0102367977244764967598156,-0.00823165472818845542213317,-0.692528234400168307693946,0.721270334592476802804129,-0.171503268246853135536867,-0.0192430417602550141165096,10.0625737838358091380542,0.132517588698985333550695,0.091249179120701781608993,1.03976743685257422278312,-5.54992446925711213623345,3.20983084054730216649887,0.267510189617606197742816,1161.8132816197312422446,1150.49330793932335836871,1147.67238928522669993981,1169.91019413937669924053,-186.004841716476050805795,861.194720233742486925621,200.872254015848568542424,-718.020329860473111693864,164.855982792148807902777
0.130000000000000004440892,0.315171403184964171728666,0.316799595463967076369727,-0.369993609829770198071941,0.0589828466909110976645891,-0.210317176523164561796619,0.0209449507300117042374321,-0.0103655593907045172341608,-0.00840914834985850498383364,-0.69249074137401389616997,0.721302606725421013855737,-0.170758272679349731859588,-0.0228774006621649539372498,10.0580860273724947973051,0.131981368733289472494619,0.0916204548470624241529592,1.0405635603775034159213,-5.54968125877726947692281,3.20958019707432917755341,0.270116423984960385418219,1161.25121991635160156875,1152.31620745258942406508,1148.3164103932019770582,1168.03713938444980158238,-251.143070924808625932201,563.965841321214156778296,299.184050187932086828368,-733.239589750655113675748,164.850666355128652185158
0.132500000000000006661338,0.0785108579672388479098188,0.435726814189021205425689,-0.344103002716667216720481,0.0581877127759661202932584,-0.20978973704508832587301,0.0207170968395518108329245,-0.0104911502056965408313793,-0.00856921345812841454836484,-0.692455548788297514661849,0.721332814344626815916683,-0.170182814665129134024113,-0.026041989739940096804105,10.0542772455325319924668,0.131411663676070600281776,0.0919723009186825674055044,1.04136015395718950493631,-5.54943802473749059345209,3.20933056121564908025334,0.272733504952935079668208,1160.55756626510719797807,1153.31313714592943142634,1149.16830953616636179504,1166.24399619062342026155,-299.729193763459704769048,159.581328352305575890568,371.745593923878573150432,-646.688676594021103483101,164.845161413789497828475
0.135000000000000008881784,-0.0146864384201448872069307,0.572592185612423421048334,-0.306676349282674121088377,0.0554530180190879393165027,-0.208843006092650440574943,0.0209553483417890679119111,-0.0106172170178792310557547,-0.00871468760204608360042666,-0.692423853850400949916377,0.721359727826581864640332,-0.169722870788520718843273,-0.0287733121219513332533779,10.0510185203440371992656,0.130815402999680918671999,0.0923089842548116545906112,1.04214495931616979440548,-5.5491944379637549999984,3.20908196749640728384634,0.275360993237371898256782,1159.75257394753430162382,1153.11411409435095265508,1150.17513836282137162925,1164.80369600147969322279,-361.414260592209416245169,-368.889581081702658593713,442.542777747348338834854,-504.467093648599529842613,164.839435440372398034015
0.13750000000000001110223,0.0830481248526531434794862,0.763174799359273792198621,-0.250952994587942901372202,0.0523596168272025055956398,-0.207019437819462581718,0.0208524463361471901201583,-0.0107466054600532431168025,-0.00885691815914736203796398,-0.692396040300203297057635,0.721382806755927918906934,-0.169206534295413602020375,-0.0309916931652139682196179,10.0482160086182048530645,0.130211467647199624630971,0.0926471845345680777850106,1.04290487488074035127283,-5.54895029968480191229219,3.20883505116275280499849,0.277995971439966682581257,1158.75049496214614919154,1151.46868924052091642807,1151.38102342490310547873,1163.7216607223804203386,-354.009592688089128387219,-805.381674862291447425378,411.953017308723815403937,-277.183114783383416579454,164.832315137450336806069
0.140000000000000013322676,0.333031565558358277900908,0.945695797540027638383719,-0.186050041272100813438684,0.0509182478164883767224325,-0.204929781056392562588186,0.0199629300454664156128093,-0.0108787718959574303961846,-0.00900453250800269111575602,-0.692371046530117495443335,0.721402981651667940532491,-0.168542158195430391565139,-0.0326172031827542396875685,10.0458075157840482916072,0.129610499071222629030586,0.0930034064503979102100928,1.04363064565121832494299,-5.54870577519126051413423,3.20859080168153276702014,0.280633214770584560326938,1157.98252598409385427658,1149.08720572003949200734,1152.23490344936499241157,1163.41778042756277500303,-263.860946532531443153857,-1088.25463317038975219475,278.281824183340859235614,-13.9837039472695199293639,164.826177393258006986798
0.142500000000000015543122,0.712855276425581330101977,1.15496298826681620397494,-0.0888560600393811517161424,0.0512177260680883317256473,-0.202540664250107471655582,0.0183312034893702985316466,-0.011006354545068555705889,-0.00916431059098770511850418,-0.69234739013215640390797,0.721421710510004254857108,-0.167753565897662382244704,-0.0335058701702699579527689,10.0437577083762228369324,0.129011039645692299204782,0.0934007052018690636652209,1.04431715510006029035139,-5.54846102337270430382432,3.20834972087343972546591,0.283268805092414976964932,1157.4311902294834908389,1146.02741607466896311962,1152.77243254581981091178,1163.65174220264407267678,-156.355953370712825289957,-1391.82285550687743125309,140.492367500565450200156,177.975282934677039747839,164.819830444387037005072
0.144999999999999990007993,1.2361172176829062774317,1.43872858154422278431639,0.0627815325474580521181167,0.0537779145720907875150019,-0.199532238057508470863155,0.016595871212901652791416,-0.0111237873452559969666975,-0.00933695540837758963803594,-0.692323450760096825717937,0.721440624616536796409605,-0.166921633573880956458169,-0.0336305568400425969333156,10.0420568968184333868976,0.128405482328157932725432,0.0938496004984900877854415,1.04496413704932944455095,-5.54821652668258558094294,3.20811195010997218801663,0.285900840478773510255905,1157.20074621724029384495,1142.12809144250513782026,1152.93736528686781639408,1164.30765684223615608062,8.97456098650768296920432,-1384.82053528374035522575,-21.6536073960015613693031,258.386440193727423775272,164.811973633686989160196
0.147499999999999992228439,1.66010770075788793853633,1.69859277670143105076761,0.197290068551929514972798,0.0576195899713998760383049,-0.196696105653434288873527,0.0164042169224028928919967,-0.0112233370506098599495015,-0.00953303976046059910187669,-0.692300786378630683692847,0.721458198383554960564368,-0.166010022627493647462416,-0.0328014350576086854971436,10.0407152305731699470925,0.127797341046343604364921,0.0943781049256321585838592,1.04557068733801572513187,-5.54797140198774751951305,3.20787697743470578970459,0.288528776157530530976913,1157.47606303441602904059,1139.10331339825029317581,1152.66416450883980360231,1164.94367440361270382709,219.715749517535897439302,-1078.66157987882525048917,-176.754252662794726802531,224.114135492936640048356,164.805225825966431330016
0.149999999999999994448885,1.99273476134778415591597,1.96600088446636078742813,0.299190682505761529341726,0.0634274163546499070154283,-0.193160728644734658310256,0.0179283979270136901995603,-0.0113023280111411716930547,-0.00975853835538225897194842,-0.692282109528992273261849,0.721471777043365292136912,-0.164974061163556007247877,-0.0309670310711671059600292,10.0397599725886550459109,0.12719041809783138141654,0.0949990904443145239843815,1.04613868894775574602818,-5.54772463634307921864774,3.20764391213580024597718,0.291153773431381601710655,1158.29932496482797432691,1136.73478354311100702034,1152.05359402355384190741,1165.42822751970084027562,415.826698563432387345529,-794.126906416931205967558,-272.994311937691009006812,143.0689598566003724045,164.798269444840286723775
0.152499999999999996669331,2.20168458722687176987165,2.21629792970336003676834,0.34505836995762678709454,0.0706261933936557367852416,-0.188489808376811535106654,0.0202153568291368428144761,-0.0113593572964820008902587,-0.0100095395869200763649953,-0.692267581589287139820499,0.721481267319435848328624,-0.163889140418101403318119,-0.0282267319644144143442333,10.0392293078701690944854,0.1265763703544840468318,0.0957071517737082544385885,1.04667388213777723393605,-5.54747569791482497691959,3.2074126167270189391445,0.293779253363872339122054,1159.55519652723319268262,1135.13267886616563373536,1151.29919294915134742041,1165.65901920289570625755,582.9695126844393371357,-430.676089357666171508754,-293.356953321699336356687,18.7456184561597005711064,164.791140536294818730312
0.154999999999999998889777,2.23116468593287287092153,2.40933592872557778008513,0.306456430399294765809515,0.0783767852807097653577983,-0.182112474492903242406783,0.0223428166779137335473671,-0.0113933673935108711883224,-0.0102771030833887916378089,-0.692254802138323022120403,0.721489101760734552470922,-0.162893893236358833220834,-0.0247471468410201123067083,10.0391683057302607551264,0.125940786823100836500089,0.0964872021115814881841999,1.04718397254960970954585,-5.54722416358266823266376,3.2071842601682947204722,0.296408443970256896271565,1161.21417252825017385476,1134.58140309632267417328,1150.58680925694534380455,1165.52195561198163886729,773.19638095896084450942,-3.70020086293152106193816,-248.419705949208719175658,-135.485122407180710979446,164.783805633732896467336
0.157500000000000001110223,2.06560311610931934822588,2.53424551939678499579145,0.168441204654239867766208,0.0866125777805800134423464,-0.173447602373358877869691,0.023933565963840094936721,-0.0114130007580168727626679,-0.0105494448997633643444471,-0.692245318976238865893436,0.721493805612385075143322,-0.162031857824571190462848,-0.0208705735541259429499661,10.0396294989178258560969,0.125278356587415234946192,0.097305712368373223353224,1.04767770364693690865465,-5.54696961301282254197531,3.20695960694873205554245,0.299039404186909163474439,1163.42117843202800031577,1135.11417786185097611451,1150.05709441940530268766,1164.98159359085980213422,802.106789628168598937918,368.369709806347259473114,-109.285743304962934985269,-236.430814170398463147649,164.774770254650519518691
0.160000000000000003330669,1.79430978060529522366551,2.53506366776029423704131,-0.00393031375284061401664815,0.0917432028414447847675106,-0.166369672926119399614109,0.024382685491002448197051,-0.0114301533661514409523363,-0.0108225158971910779409642,-0.692238673026620121575547,0.721495665521760143334973,-0.161186216207033161662565,-0.0168683493195591338587036,10.040667894339907917356,0.124601047091886379947212,0.0981342741224800890753599,1.04816192261019036635616,-5.54671185866020977073276,3.20673889967843495085731,0.301668281190676124126071,1165.22470647639102026005,1136.42325164535441217595,1150.04038054042052863224,1164.33980154112964555679,667.291590663034526187403,653.340806777850389153173,97.0982464368261446452379,-253.262337799833176177344,164.767051051960294216769
0.162500000000000005551115,1.44364915218063871726883,2.43136079253673953459725,-0.205059057567429564583605,0.0949790381878023864947735,-0.16000995385455082931081,0.0240083289664963298037925,-0.0114543242038161689061448,-0.0110925899992775182922866,-0.692231361616718721130326,0.721497925659619454563654,-0.160265771258517875086369,-0.0129603160636207193068259,10.0423363669625480554259,0.123918912510505505042424,0.0989474179161467376486527,1.04864386851559965307956,-5.54645073363007856670492,3.20652263468012410640995,0.304292133297151101700706,1166.75763638534317578888,1138.38088189574023090245,1150.54258565158943383722,1163.71528190186063511646,577.741451993460373159905,943.502513354405095924449,326.282383978559380466322,-215.315817769351070865014,164.759142493847576815824
0.165000000000000007771561,0.998541735880725478402553,2.20483175129056307994802,-0.442691386083906124326859,0.0974232913345079581945996,-0.153075203082239957863564,0.0226772266780007336617331,-0.0114843738693612244794462,-0.0113652617900386054827777,-0.692223705405871081453029,0.721500181548513808138523,-0.159192523830979926202644,-0.00907603648630986303835755,10.0446807443665804271404,0.123239618106581211298689,0.0997506470805572392768212,1.04912785715096834593396,-5.54618585527534957435591,3.20630992747582643787041,0.306911710143236371450826,1168.11341373635832496802,1141.14076421212644163461,1151.67179246031332695566,1163.26322245228288920771,409.400116761343838334142,1033.47105415846181131201,470.50914185410834988943,-80.8882568854641448297116,164.749444371631284411706
0.167500000000000009992007,0.646095394602993811083991,1.94945635971981801048969,-0.613817154372135909135011,0.0986899882141042406047404,-0.14781317664546375634238,0.0210286702071072334474522,-0.0115193243447373316196147,-0.0116374486818630572260158,-0.692215720085013752616021,0.721502458282089476071519,-0.158010943817890714413466,-0.00525852379696947758169756,10.0477432281761505095119,0.122557898521311520179111,0.100537034936941979679226,1.04961972157163607732855,-5.54591798075347242047428,3.20610017512759171154357,0.309530564498861238131866,1168.80463696914989668585,1143.54823716653254450648,1152.89513136085997757618,1163.31084061743331403704,196.883412934039199626568,940.198096557332178235811,494.551852376889200968435,135.473797150188943305693,164.741198995285941464317
0.170000000000000012212453,0.345280044818366826930855,1.65111920647849075294289,-0.734904811249180278664994,0.0990658017863930012714135,-0.143479893777262806908723,0.0192063622810961891207437,-0.0115556260377398384298075,-0.011902830195904174487298,-0.69220661443606179563659,0.721505669261324422691928,-0.156847335814076560556174,-0.00154997489657140996577311,10.0515612607613853413113,0.121859850808478747952179,0.101299485891615845267744,1.0501246052540587072599,-5.54564778341137554207307,3.20589341207368594410809,0.312152907878492147375482,1169.09783080102852181881,1145.84175469491310650483,1154.14455172219777523424,1163.94059143803383449267,66.6820163692590881510114,948.357257734823292594228,490.13302545276883392944,421.090753572388678094285,164.73279679700624456018
0.172500000000000014432899,0.0655567330201964060254483,1.27727768224119841988795,-0.803031190762987678866125,0.0986963682848540635461632,-0.139621234660901066826355,0.0169467770913498370910499,-0.0115906815199694791795881,-0.0121484164551276686144776,-0.692194175304737258080934,0.72151220997611686946982,-0.155910646062046409632273,0.00190800976072191819099544,10.0561693150144328967599,0.121123022242736758102843,0.10202047294400456989294,1.05064792564418896247957,-5.54537604104439818542005,3.2056901033414382240494,0.314780634930788338898822,1169.13804705099619241082,1148.29002345520666494849,1155.34579648812382401957,1165.41629438529525941703,-12.4865836164190007195884,834.057382340323897551571,351.942067814843255746382,649.886236317160523867642,164.722548590096437237662
0.175000000000000016653345,-0.0951427700941725462691068,0.975694223022344098161796,-0.782938813252372134421364,0.0981506766009110215298605,-0.137393365056684868541481,0.0147245155225114443542367,-0.0116213211752431919143724,-0.012370822520634776678361,-0.692177125587702057885053,0.721523461490466866408156,-0.155278956784097699195257,0.00511858164226244860550707,10.0615981342695448574887,0.120338106252963941700251,0.102698929686100115521441,1.05119070564087024877153,-5.54510340700447201811585,3.20549008857162620600434,0.31741459537054383943655,1169.03539788294642676192,1150.01204160661472997162,1155.90426206127199293405,1167.19002261961963995418,-44.0778851781035214685289,621.186822155053164351557,106.031402865119659395532,787.534109658967281575315,164.713881819649685667173
0.177499999999999991118216,-0.186047399063882040737283,0.705532301027596897569083,-0.671065856793178094896746,0.0975692333234951664211465,-0.136038320602529710923179,0.011991234693397689881067,-0.0116452954054357057933622,-0.012570856638020507997644,-0.692154864514467393910024,0.721540120872256163231384,-0.154957089410261594775164,0.0081307201479266233423715,10.0678752481217266279145,0.119502996503388844717897,0.103340067457265732953076,1.05175192934093475471968,-5.54483103152967515825367,3.20529323255797216063456,0.320056084611060109867964,1168.91765762510567583377,1151.39595756598191655939,1155.87595350244941982965,1169.35396493359007763502,-36.425880490833321800892,505.670941559085406424856,-109.274226883144876865117,891.16532829680602389999,164.705097076533775179996
0.179999999999999993338662,-0.227960222423224140309017,0.47034242891800470687258,-0.481938635045384256017087,0.096864659398767580245071,-0.135364963718439368367541,0.00919891311237821911184209,-0.011667573383173222845155,-0.0127619522354487213017249,-0.692131982680150636966232,0.721557622002674814432055,-0.154668247500497291202493,0.0110590030013859863533554,10.0750269679122936850035,0.118643447055349141039393,0.103959305840019819444642,1.05232664086510530054852,-5.54455936336642096762262,3.20509922913659828225263,0.322702767335790174918486,1168.85326848049226100557,1152.54039631441014535085,1155.35789092685627110768,1171.64584926110364904162,-3.12147634226675751989433,417.07754151252589736032,-305.78025115296412650423,892.236795721964085714717,164.696224456759154008978
0.182499999999999995559108,-0.225006613747929906654832,0.277794563627291601903835,-0.216268140446967488399466,0.0958971815339484390250391,-0.134986183949286631111875,0.00720786543174089557040052,-0.0116923209027604210752393,-0.0129605000501245865712763,-0.692112082449140797457687,0.721572387475628462816246,-0.154103033572720482524687,0.0140688881937653387232956,10.0830743374494318231882,0.117788585942782977888932,0.104578361516946452547394,1.05290987922674084131813,-5.54428888218325699455136,3.20490768212956567140282,0.325352438589367298771293,1168.90205024339434203284,1153.48134527354454803572,1154.34705224668459777604,1173.81514891219990204263,55.8906954657231338501333,389.263125059369144764787,-515.93232926738846799708,857.091215768058759749692,164.687257852763309529109
0.184999999999999997779554,-0.194284704936334540192888,0.085094343125083612977555,0.144861950756744045643032,0.0947087287440585290365647,-0.134037873242150884500745,0.00661835523402302516177143,-0.0117221502067317278478198,-0.0131793855391429091949984,-0.692096404069115433976833,0.721583161613996160177464,-0.153023373995042510919973,0.0172971613682621205843049,10.0920318526632399880327,0.116960493559192038603989,0.105216325527200130207639,1.0534991331887599841366,-5.54402001274022726562407,3.2047185844651480124412,0.328004030902311560780049,1169.13272195782087692351,1154.48671193970699277997,1152.77822928051932649396,1175.9313053399439468194,117.800657474117443257455,358.311383854288237671426,-598.663575746467699900677,654.135210101139250582492,164.676404729414713301594
0.1875,-0.170502537831953432378995,-0.0522528158961029776108376,0.436313523079508047697317,0.094193784837178259894408,-0.132946253418762455611457,0.00773015890218056722638096,-0.0117567657010543592799312,-0.0134280498704513404084615,-0.692087546838655032210852,0.7215870853112886784686,-0.151282964386598994810385,0.0208679933682990037535632,10.1019055050001025364281,0.116171281625218489330642,0.10589256633115348704699,1.05409447176385162592283,-5.54375223506228564929188,3.20453132400684870262353,0.330655640040787845990167,1169.49105353076492974651,1155.27290219281599092938,1151.35373436795225643436,1177.08582496270560113771,181.779269135404149437818,303.679769749441845760884,-555.906449475105091551086,305.561379797290726401116,164.667294082369750185535
0.190000000000000002220446,-0.182467269922571784235288,-0.164157129997066358884084,0.665151368349455651696189,0.0945654265700614921064115,-0.132726315570738329085998,0.0103208941365746445506524,-0.0117957292267422322179504,-0.0137061659561500352039198,-0.692086617051809960265985,0.721582872763372851210306,-0.148880567465275059912955,0.0247662700123821022391013,10.112693023407423709159,0.115418524324230831190619,0.106612085611026932707723,1.05470036265584554691088,-5.5434858681398448965183,3.20434507200754747913152,0.333306203672231515788837,1170.04161830349789852335,1156.00511078845420342986,1149.99869703314379876247,1177.45911223893040187249,288.472097719750024680252,293.452004786967961535993,-549.359507850567297282396,-22.7961629209857861155797,164.658128010955067566101
0.192500000000000004440892,-0.269617087009614897485932,-0.251756614837615355639855,0.824263371986502790811357,0.0957962371732902634446916,-0.134207833972037671177446,0.0146087236994115500510194,-0.0118358214765669524093372,-0.0140095720919832435885644,-0.692091557490671749341971,0.72157247217656150795051,-0.14591120021730547007266,0.0289601857277909935373117,10.1243814415456458988274,0.114691128392312574613143,0.107377424783034372546275,1.0553234832183755464996,-5.54322130902608645186547,3.20415946551210373272056,0.335955439513941966911403,1170.933414019363681291,1156.74016221675083215814,1148.60693682869941767422,1176.97184414810067210055,364.089637806909763639851,227.329764589376082994931,-458.528758111742320124904,-318.835195967039624065364,164.647080083828512897526
0.195000000000000006661338,-0.409256184939346789875003,-0.275044618159093923193126,0.850630075729601364820098,0.096766159813456376070917,-0.136184992813322330862391,0.0182770325342732874174256,-0.0118754862155576127596968,-0.0143217701844675117384131,-0.692099815092123260562573,0.721558579306617486892605,-0.142631119180734983187264,0.0332153293937560989412816,10.1369493351295201222229,0.113962442803149183179201,0.10816976958554765098075,1.05597492672159165572054,-5.5429588184985956189621,3.20397518503808198531146,0.338602940613593306196094,1171.86206649253244904685,1157.1417596114010848396,1147.70605324258508517232,1175.86493625909520233108,404.751020344610537904373,97.4770213721966740649805,-299.723135808517042733001,-544.977633243433501775144,164.637843979213158718267
0.197500000000000008881784,-0.598354039896148548471899,-0.251317770952897756586708,0.783766192294489738578989,0.096319490083391065549101,-0.137618877086727986469583,0.020933761905175533868384,-0.011910871407074443556473,-0.0146247794220639836665354,-0.692107468956082882982628,0.721545327979276174268364,-0.139356516625093629357934,0.0373058101589438528833398,10.1503644727948163506426,0.113201475211019780831023,0.108970212143845834873446,1.05666630776893932797122,-5.54269753615957316839058,3.20379301959014028966521,0.341249329528534872668644,1172.95716912108673568582,1157.22754732361181595479,1147.10832114965683103947,1174.24695598188350231794,511.370771120754852745449,-41.1234078463621344212697,-190.23940962365469431461,-754.491976806911452513305,164.628590180204241733009
0.20000000000000001110223,-0.832853953795150148131654,-0.196169885724765735712793,0.640309068467999509266519,0.0935179829332727363677691,-0.138231087638432753594842,0.0225512106883931570666668,-0.0119409814957498403020786,-0.0148998618027167718802506,-0.692109293005956471844797,0.72153811753441965404221,-0.136382308421261255748647,0.0409505483120257973705947,10.1645865084179973791834,0.112381704658764874915633,0.109752607878585872747124,1.05740903926555751546346,-5.54243613652293021232254,3.20361428653312563241684,0.343895881772810774190674,1174.41892034813622558431,1156.93614257216927398986,1146.7548561944668108481,1172.09247637506064165791,553.623795269504171301378,-160.838984085785199340535,-68.3991703113860580742767,-763.377015740706383439829,164.617479905197342304746
0.202500000000000013322676,-0.997616818313514230887051,-0.153624560728840148238206,0.50291450756823230516801,0.0900277938305207164892963,-0.137930558729582819488257,0.0230186518649963915705836,-0.011974590208412603381527,-0.0151365511530229205489073,-0.692104099178823095606106,0.721538167719462442128986,-0.133756081179036590000919,0.0438358785162426267678626,10.1795699693948442643432,0.111503408096742459565398,0.110487416391793380476827,1.05821120503970034221197,-5.54217273354298090026759,3.20344009018855979675777,0.346542463433748171297566,1175.72528809743425881607,1156.42335240318288924755,1146.76632529809990046488,1170.43007090317996699014,532.573420622383764566621,-231.135832617610304851041,67.9466676502669884030183,-572.441276292783641110873,164.608227200286961533493
0.205000000000000015543122,-1.10299537395934832417765,-0.138799950638108987588382,0.377654245742770955374112,0.086587104121726959915506,-0.137183001900058221256273,0.0232078660528974023424809,-0.0120181284582173402569749,-0.0153265011299301544961393,-0.692091229467908242156682,0.721546205753718528086438,-0.131537013332068131177266,0.0457120340421168502853533,10.1952603331632012384489,0.110567521793845796596045,0.111150224956884091653819,1.05907920489646212303114,-5.54190707526773884694649,3.20327140031109625084582,0.349190683455155470582554,1177.08178745124814668088,1155.78046340908122147084,1147.09458953271814607433,1169.23026999359672117862,543.819767112381214246852,-251.293392941306365173659,182.958627082962095755647,-372.997622285401689623541,164.598993131386009736161
0.207500000000000017763568,-1.15290464161267647291709,-0.153889713648813236668289,0.274241710617176115416527,0.0834341314823648788623345,-0.136545966622491382613802,0.0233900734585765525397338,-0.0120743445310663860547962,-0.0154760230223819489348003,-0.6920718004187117466941,0.721561016117942211067771,-0.129631220970190946806255,0.0465914492544665936879511,10.211593301762301067015,0.109592123431545090950223,0.111742758645170733866614,1.06001360028990720962838,-5.5416378234244643152806,3.203109801262165046154,0.351839937138591685172884,1178.44438693299616716104,1155.16688543847635628481,1147.68111843351471179631,1168.56508279175295683672,534.843258172443483999814,-209.688931162601022606395,293.697222305082959792344,-130.909525277548397070859,164.589783835439192216654
0.209999999999999992228439,-1.1392003752470105659711,-0.197810798209023169791365,0.200338389022672813677417,0.0802233690104739993742555,-0.136555253460408615451271,0.0236344871537642400860513,-0.0121371167048231441698558,-0.01559981869204705648424,-0.692049689885383290111065,0.721578706844315354018704,-0.127956611037681827758306,0.046739752066619233428213,10.2284948651015703546818,0.10859455670040475683269,0.11229224937127389727376,1.06101090433857803141393,-5.54136341633871154499502,3.20295585493602752436004,0.354492518384462718117334,1179.75600374211035159533,1154.7320187532682211895,1148.56307564424355405208,1168.57572236720898217754,544.453031676678392614122,-127.972893479500868352261,447.073128671402002964896,134.023542492014428262337,164.580615604229052451046
0.212499999999999994448885,-1.06256466704191332439677,-0.261551888095982065784995,0.141269938304310282983778,0.0764275897995267128326446,-0.137303518542385205591927,0.0239864146809961251149979,-0.0122008748390888838858404,-0.0157063569024299895526831,-0.69202896059830298902682,0.721595328160084981128364,-0.126522914541392222931293,0.0463349283891752172781509,10.2458895010925079560593,0.107583150716987527295565,0.112815412373080278807258,1.06206821747018431700837,-5.5410835632062971356504,3.20280967738157951174571,0.357149565041481820149016,1181.16665209137954661855,1154.52702097107885492733,1149.9164840768717112951,1169.23520050421302585164,470.983194791915195764886,-19.9110808403929517851338,534.106849328463340498274,314.513910237792231328058,164.569675353500741721291
0.214999999999999996669331,-0.965501162698593429212224,-0.305319482573014833182157,0.110480161138919355523491,0.0741512931081782233899702,-0.138021342703746108249163,0.0243642632883073646798966,-0.0122586745783566167244949,-0.0158132093144163661524448,-0.69201144400405834034018,0.721608879397222735541106,-0.125229601239712912130742,0.0457156204969630108880807,10.2636993407465055838657,0.106577916688498613995151,0.113344106169611325007907,1.06317862916281802299068,-5.54079927183838538695682,3.20266977277712250327113,0.359811170868778618103789,1182.11091971606992956367,1154.63246334906625634176,1151.23360989088587302831,1170.14829191839794475527,306.246831689940961496177,85.3354655848760756953197,548.623168059384170192061,396.057913845697498800291,164.56061985630142885384
0.217499999999999998889777,-0.857236173744764684556685,-0.318491744422563227701062,0.091138743577976522036721,0.0734664286696716101188187,-0.138727725444756866401974,0.0248172273486850641921464,-0.0123065528135989487451551,-0.0159317652925427440113726,-0.691997083579967808830702,0.72161924319712411612926,-0.124027331179919222958752,0.0451002600011887744280159,10.281849725791150973464,0.105593031735597683851147,0.113896864020346433310493,1.06433637532529279390303,-5.54051193825248944335726,3.20253479571666499481353,0.362478425304714246824034,1182.69788624982925284712,1154.95369829900323566108,1152.6595999171686344198,1171.21549007344151505094,156.059452612498574808342,155.589183638403341092271,631.646722029472016401996,465.432611436744593902404,164.551639692905013134805
0.220000000000000001110223,-0.723922627966825271705886,-0.274953350058651291298872,0.0753949733284715872816406,0.0733024748956634525365317,-0.140146949474552307002284,0.0253381670286683055581811,-0.0123402453612233165697321,-0.0160740872325130547404459,-0.691982681400928334447542,0.721629302794243421281806,-0.122859751425866817187149,0.0447329394227759247204546,10.3002679972789366047436,0.104642548111327921001035,0.114494208530167368431663,1.06553502914463482653673,-5.54022313110503805688722,3.20240363917355974621159,0.365151113399672544446162,1182.89121697913242314826,1155.41040926725827375776,1154.39184350103323595249,1172.4754549755816697143,-17.4067034068229844478992,145.111624639457517105257,626.615512057196042405849,442.997024769146776179696,164.54096370573955709915
0.222500000000000003330669,-0.593966051155291108187839,-0.174701493014769865252944,0.0675193796195598244791469,0.0723070088275060141036477,-0.142041403830051815582181,0.025683039483560664989481,-0.0123546415523221216059557,-0.0162447141978224254832419,-0.691963942653758157241839,0.721643168434982773540298,-0.121791085731843773398708,0.0447719228429161730797858,10.318884984679588256995,0.103726252265092036553007,0.115148082062744960829548,1.0667704398916748598225,-5.5399346115467995588233,3.20227530995425979654101,0.36782970931970004890843,1182.61085273279513785383,1155.67925642220052395714,1155.792677477454617474,1173.43047519728725092136,-189.598456436942626623932,42.8094876461727480432273,544.555260416745568363694,360.363522828401642073004,164.53215991503407167329
0.225000000000000005551115,-0.405461173213429226791504,-0.00578416522044174902239533,0.0673892778088358151977744,0.0699948432727408725861906,-0.14383920852778286914031,0.0258129084919651828611276,-0.0123573306642544879230261,-0.0164435281507668701328484,-0.691940166473835827076755,0.721661377533457271127304,-0.120769655389043814586181,0.0451222080708537087723187,10.3376407505456135993427,0.102852587679829701738932,0.115846173230109539264987,1.06804059168008436131458,-5.53964713074129022629677,3.20214785750914510131793,0.370513459636383213346988,1181.94322469694770916249,1155.62445670548913767561,1157.11461980311696606805,1174.27727258972367962997,-344.815086096786842517758,-134.020027326096055730886,566.09285648796640089131,361.914799478244844976871,164.523463470766841965087
0.227500000000000007771561,-0.0721145523366585605717916,0.248335860809389519232582,0.0803105874968570998539974,0.066806008558732352109466,-0.144271357494961560696822,0.0255907277342142351617138,-0.0123590264917892000279265,-0.0166657245574907755814031,-0.691911282436807217877117,0.721683914750797406156835,-0.11976002536573608636683,0.0455770291563646068322413,10.3564800307575133331284,0.10202561935523660197056,0.116565559664327744737733,1.0693458155456303515507,-5.53936087715330671699121,3.20202012716745221254655,0.373200743409460466981642,1180.88677730231120222015,1155.00915628557004311006,1158.62314175989445175219,1175.24004919467847685155,-391.583444970956065844803,-325.882201380727281048166,547.664440090010884887306,360.907471765085233528225,164.513164337239487622355
0.230000000000000009992007,0.301149045812418136858213,0.466809700675982763851124,0.102224076328323143503241,0.0648989299439732408858461,-0.1427737834918058057454,0.0252616120273771484205927,-0.0123693564520376622639652,-0.0169015406408962003126373,-0.691877466414308472941741,0.721710663776243599443205,-0.118804994414448930606376,0.0458749486514582194285339,10.375349850925775996302,0.101238886799892374712684,0.117278328773970208498412,1.07068892226590062222158,-5.53907561993645991549329,3.20189215183477227100184,0.375889219626363901838317,1179.98530747209292712796,1153.99504569858549984929,1159.85294200356702276622,1176.08180994854910750291,-315.149256898393730352836,-494.711863039583022327861,498.433044356851951306453,366.264543084298225039674,164.504704624307350968593
0.232500000000000012212453,0.745670694636226150109337,0.649417628030494853419441,0.128420731025206680264716,0.0651419433892861804435981,-0.140119172927280266627292,0.0252019746919802667406429,-0.0123912306872380716116222,-0.017141729691579798283696,-0.691840026365645899275592,0.721740527138597043332879,-0.118023827289827756836793,0.0458606280472234340006565,10.3941955241876033966264,0.100475640483523170898295,0.117968273115413982421451,1.07207318608148938210434,-5.53879117759938921494722,3.20176353175322248034718,0.378579012895694733131791,1179.3110310178192321473,1152.53559697037212572468,1161.11530698167871378246,1177.07137191009996968205,-197.813158382223093667562,-627.41563415474900011759,519.752137145314463850809,433.392340040108649645845,164.496383485832666337956
0.235000000000000014432899,1.20775121253996076120529,0.782175013448874523191989,0.147061204636105891108144,0.067594903632991920616746,-0.137166579102381419597023,0.0254388586013679640629448,-0.0124271031047224617127611,-0.0173803678752399749785074,-0.691800219753131329092355,0.72177238955571276779466,-0.117478862620454968523909,0.0454323162772821143029489,10.4129620692117192959358,0.0997233275522213524766357,0.118624866267594497593052,1.073501294041975917537,-5.53850745456153781276498,3.20163440699215717799575,0.381270852754644729021294,1178.99624168018181080697,1150.85796752781175200653,1162.45170268929359735921,1178.24877164874965274066,-8.62212298338817362264308,-668.555133964309220573341,561.717282521839933906449,524.101529354220019740751,164.48818574719655316585
0.237500000000000016653345,1.63422790261216421825452,0.849928324376297839037875,0.13988833285598467615074,0.072272110992036633914104,-0.134144652935722752395975,0.0259567830272892999254886,-0.0124762921317893588774028,-0.0176095805531058940962552,-0.691758980436091186483338,0.721805549478645058769644,-0.117292782841461426523999,0.0445064360015291760053202,10.4315929269390768041603,0.0989621091650664808092586,0.119239261888219844065517,1.07497658790175454335269,-5.53822421728859470846373,3.20150541141633171449143,0.383966877653495075595202,1179.26792040290229124366,1149.19282130055057677964,1163.92389339428791572573,1179.69187955687107205449,274.034834666646361256426,-646.723272284501376816479,684.164168121472812345019,691.665764913708244421287,164.480147443463636136585
0.239999999999999991118216,2.04684588831923042206995,0.872157885843117597346463,0.0810178691446698379108327,0.079423117818904501175048,-0.130923247027744160675411,0.0267574114051936894076444,-0.0125389069199409990823524,-0.0178238886123451671650297,-0.691715335469135439439015,0.72184106403211423241828,-0.11752675156651547216935,0.0430226475197718893905829,10.4500303235359233156032,0.0981784008554930920364967,0.119804132652643169354434,1.07650171413796957864406,-5.53794138081572562271049,3.20137732189515977765382,0.386666874304902263848049,1180.36641585351503636048,1147.62435116638926047017,1165.87252352990094550478,1181.70710047331817804661,528.215321877908309033955,-444.880748827701836489723,739.909671715353169929585,770.106416501361309201457,164.470700040953090592666
0.242499999999999993338662,2.2855585455003848416311,0.865219872593168126684304,-0.02084723070156017585286,0.0857965660247359401813227,-0.129212104985155701308841,0.02749461122146751659856,-0.012612338874769641119955,-0.018019726498374286083326,-0.691668635889500116320505,0.721879682422028268184988,-0.118240529762013310555169,0.0409883672047278435623952,10.4682133402116352982603,0.0973586071409233699824881,0.120318707902742780269101,1.07807866607627045318907,-5.53765876756444352935205,3.20125162962069520489194,0.389371020638806242253338,1181.90899701229182028328,1146.96841755641207782901,1167.62344175286466452235,1183.5424116393778604106,724.294181798040199282696,-73.3185044791297713118183,707.962179589139168456313,733.418110732690593067673,164.463003456201619201238
0.244999999999999995559108,2.4117189422910212392992,0.862423600304839776953258,-0.181808400217171983737074,0.0917979872772371613409703,-0.128415144871478731358749,0.0280436444743469709406369,-0.0126956617091007143566239,-0.0182011260432198528069758,-0.691619528508129466359833,0.721920694577959709548054,-0.119345015831788373028566,0.0384946420328121929887999,10.4860788455112654560253,0.0965044337623955222893457,0.120790508177716582327577,1.07970723285618985798351,-5.53737533652943447748385,3.20112994661648864180847,0.392079662062660205812392,1183.9878867625052407675,1147.25775864399361125834,1169.41233442784664475766,1185.37419102698163442255,994.992877438743562379386,375.018764860214673717564,761.018031116463362195645,756.656271529936248043668,164.455503181617473273946
0.247499999999999997779554,2.44601500645603442407605,0.882409488104777706141135,-0.43296251640869298782377,0.0986431979827252503056911,-0.126966610933459678189905,0.0279975558846223236686424,-0.0127856201405895340827978,-0.0183791238188947096687809,-0.691571752697490715888762,0.721960293639931638409735,-0.120671438164467556553028,0.0357678633826900571612839,10.5035600933315365068665,0.0956255094806510580474068,0.121241063904234114279035,1.08138511477333087995589,-5.53709058511092866439185,3.20101254925555700481254,0.394793059185612471573279,1186.88396139948554264265,1148.8435113807131529029,1171.42853190844698474393,1187.32569299702754506143,1091.88271936327419098234,782.572409401199593048659,690.964809095020768836548,640.362031542235285996867,164.44674598791416997301
0.25,2.38836611810162402491642,0.917046887958457346279317,-0.672577327369396016365499,0.104349952928785058570149,-0.124762353339555445708164,0.0270754501312844945981606,-0.0128737331712918592202533,-0.018570712511062788946381,-0.691529581920355629343078,0.721994103694541311533328,-0.12203018376592929261637,0.0332023353888018790680547,10.5205861960663806797811,0.0947341970821033441119141,0.12170849930662946958293,1.08310817004135606644866,-5.53680370498470875162411,3.20089968766592170013041,0.397509751038721215188332,1189.44730035932161626988,1151.17062069099961263419,1172.86715847332175144402,1188.57600118469281369471,1013.4261627597416008939,1102.72994572492189035984,505.55273660352168008103,393.053435162073242281622,164.439663110827808623071
0.252500000000000002220446,2.25305185199165336484839,0.961779452304077686619621,-0.913403651622287537925615,0.109846771620743674513498,-0.122010558361894561052452,0.0251524151493776292054516,-0.0129516450464348866628006,-0.0187877282117325031252086,-0.691494891270882816591836,0.722020177322471812253468,-0.123303102124354649338223,0.0311213599627444270634413,10.5370864808610757989982,0.0938371329774013857027981,0.122222158020513671505825,1.0848739615700844218793,-5.53651411866061149424922,3.20079163311599135255392,0.400228658293806660584124,1191.95109221328425519459,1154.35716110933776690217,1173.95629559146459541807,1189.29096017283791297814,1044.22180881565418530954,1528.58001643689794946113,403.495786429720851629099,180.294126213948231907125,164.432817288164073943335
0.255000000000000004440892,2.01331533797997908052935,1.02297710674805331088066,-1.16488201881499375822671,0.115648625490064091425602,-0.118823491928411420492928,0.0219559123524684096651072,-0.0130096911684397104069788,-0.0190298458481969953726143,-0.691467191247637780193713,0.722039162415834656627567,-0.124574470930568351190182,0.0296964363047872159651064,10.552991476329218301089,0.092921881172303932849843,0.122794572064145721124184,1.08668358464197623014513,-5.53622141521043875656005,3.20068920030757508854435,0.402950492060986931175393,1194.6684094033998917439,1158.8135207731841092027,1174.88463740547035740747,1189.4774718157625557069,922.070430550819878590119,1677.25605890714018642029,300.201807488792553613166,-34.3989241139297234894912,164.424891101809834026426
0.257500000000000006661338,1.75593643262985210640181,1.08280550085469662313642,-1.31612606913074325909463,0.119955949684496701590497,-0.116341545485671840620689,0.0187042706915126616395995,-0.0130421544818160473760971,-0.0192984375896754455081972,-0.691445567637801294935684,0.722051997213009721932053,-0.125847227981822518128041,0.0290661457425546998489807,10.5682348200433295914991,0.0919854974518436036001745,0.12343476506875916687278,1.08853740552675493091783,-5.535925295799155598786,3.20059315915863029644584,0.405674443945761464824784,1196.56144436603835856658,1162.74344140387347579235,1175.45730462890855960723,1189.11896555226826421858,656.470927842564719867369,1544.83783937562157007051,226.951982075115466841453,-222.691757289930848173753,164.418536159963650788995
0.260000000000000008881784,1.44290790658520817757449,1.15711027493154272605125,-1.37873540259170201949246,0.124163581675414413929559,-0.114128576200975301313534,0.0148188458507482519882492,-0.0130402523876215863107841,-0.0195889200053935355616552,-0.691428190969030853629818,0.722060708903431214267243,-0.127263444659074465015181,0.0293310756845710784990189,10.5827529361140655339568,0.0910118135234379288522888,0.124148037932761703960871,1.09043672516329648303213,-5.53562670249880017792066,3.20050433467498862682987,0.408400243698240072998118,1197.95076404261271818541,1166.53770997006222387427,1176.01939731584593573643,1188.36401302931290047127,461.778083844455579765054,1450.35062110846274663345,250.551081798948644063785,-339.605154753917020116205,164.412450916415423307626
0.26250000000000001110223,1.08764795593835961184936,1.24475502539044557970271,-1.3526599669084742316727,0.127890064522849872252763,-0.112168940913213041610241,0.0105072644597824452900037,-0.0130031274889575616804382,-0.0198965564744521088147433,-0.691413210747778395059981,0.722067205926371968871536,-0.128856711963670905740642,0.0304685264305404046591974,10.5964912714857888431652,0.0899963116809481822322425,0.124927917386551706746545,1.09238218684122623258759,-5.53532737169420130385333,3.20042149698035771621107,0.41112749216845873023729,1198.87033478526063845493,1169.99519450941579634673,1176.71006003790330396441,1187.42093977849867769692,252.346899832582266753889,1263.31454578876105188101,323.968267299005390214006,-386.662317635909516866377,164.406595748474529727901
0.265000000000000013322676,0.694160623078357019721807,1.33992587235144355872762,-1.21419776650846422683117,0.130222103642710529403104,-0.109829226587485104249531,0.00633066612216351670000547,-0.0129323505924246844045467,-0.0202094459785140088958766,-0.691398208557055249379175,0.722074094814069811221202,-0.13073973567757848912585,0.0323126939697374881976799,10.6094053128578895695,0.0889266117580933962427636,0.125754177469916711418207,1.09437520055343773250911,-5.53502898933720821617044,3.20034402251746286083289,0.413856824019586622132039,1199.21249854177563065605,1172.85428269900603481801,1177.63923865234096410859,1186.43070144113335118163,29.3279163975512098261333,1090.72573138823736371705,453.799547128209781021724,-406.619236451524216136022,164.401024570500652544069
0.267500000000000015543122,0.202719930421678407039821,1.43596371466151406792733,-0.932204169863196985268416,0.131588897909613811165741,-0.105909522279792056576042,0.00244779704751574636589773,-0.0128364877224606318412148,-0.0205188498084009386668303,-0.691382545497768119524551,0.722082070151320198903022,-0.13288011712103950379138,0.0346319247235084282099393,10.621464329265553061532,0.0878045245845276156604342,0.126601511724236365230567,1.09641469092915366800867,-5.53473253179647173283229,3.20027065334291149767409,0.416590194247289102857934,1199.0169743672483946284,1175.44882316635698771279,1178.97905777354435485904,1185.38784359624105491093,-151.328241276223565137116,804.305412401526382382144,498.345644297841772640822,-338.014391695923848146776,164.394674406340755012934
0.270000000000000017763568,-0.202532809980929956461537,1.47577583488350860818628,-0.623405183361065540204038,0.131990148534313261885487,-0.101947134214090920356632,0.000403368965542316379197657,-0.0127229042926037070465606,-0.0208150758554533632516126,-0.691366446387493449599049,0.722091059516376865268228,-0.13528244140224468528011,0.0371938210852205408674109,10.6326509431127149696295,0.0866273609109437098263484,0.127445753996560412479866,1.09849764900441826398492,-5.53443817896814405088435,3.20020094863299275900204,0.419331301906618159058837,1198.45585733539451211982,1176.87580976101367014053,1180.13096687383017524553,1184.74062948265373051981,-265.849263153722631614073,422.493595785271793374704,415.334778635951465730614,-201.992272855022577005002,164.38966597481308440365
0.272500000000000019984014,-0.575695350377278369791156,1.44787186099901399316536,-0.27177136283436509334166,0.131352634779938581832681,-0.0975597313765470541824243,-0.000482806161998025899946552,-0.0126037625619577556279616,-0.0210941559601658876199615,-0.691349773984523019443316,0.722101097608254582915777,-0.137796334950063659174901,0.0397718808981623317411191,10.6429652203374196517416,0.085408017730802254785516,0.128263943872627156350674,1.1006176270783749604476,-5.53414586260837193520956,3.20013358870709962999968,0.422082981817246516431652,1197.68772805147978033347,1177.56129114528334866918,1181.055731666724113893,1184.37788223196594117326,-321.49933009154636920357,149.663704726572035497156,296.678880692979589639435,-95.937481071132339138785,164.384955391595156015683
0.27500000000000002220446,-0.947296102892287272823069,1.32087317084711308723399,0.160491809531376455888463,0.128761980430499745065021,-0.0919234200001514262234892,-0.000409373655768366460222518,-0.0124865717308704007870723,-0.0213492640768320612876252,-0.691333055095446291637984,0.722111755194360438459,-0.140386691653077072539091,0.0421633265285021596735504,10.6524226716886580845767,0.0841469069746107189988749,0.129036071739803109847955,1.10276732819145095731983,-5.53385496359290840473477,3.20006822487702624613348,0.424847349071670099540654,1196.84836068493677885272,1177.62412828464653102856,1181.61436127729507461481,1184.26094207729806839779,-242.871214236310834166943,-80.4391853599098993754524,90.1524535558563968606904,2.86946548430932768525281,164.379650270275249113183
0.277500000000000024424907,-1.16491485354229218351918,1.14218545782329194970828,0.503135461149870955033236,0.125091037040156255466528,-0.087302600409135441839048,0.000493168873877948836688401,-0.0123811578064321088643585,-0.0215791028889914977828557,-0.691315830467560288319362,0.722123350005433595200088,-0.142900883537948109047733,0.0442070917164996968207191,10.6610566434079405695456,0.0828566938819032122731656,0.129746242120715699064348,1.10493743912644681870461,-5.53356474554669741650059,3.2000049041415143946665,0.427623738328235802885757,1196.47337198029822502576,1177.15909521848379881703,1181.50649393450339630363,1184.39222955938748782501,-29.5100651488155314439155,-255.729006866476765935658,-154.166162383535123581169,91.0745165006118497785792,164.375520684356729361753
0.280000000000000026645353,-1.26545385733151616314274,0.919398211238458995531175,0.799268602871813005350532,0.120715397193742232651026,-0.0838539349789212962171803,0.00218518243336637265836209,-0.0122949846564334632631477,-0.0217771264277699487521556,-0.691296508992108704738655,0.722137485003928603077838,-0.145302786730820587823843,0.0456977036766496869102383,10.6689162079101773628054,0.0815384822138336684549387,0.130373455570507890133314,1.10712059031667742203808,-5.53327446593953009568168,3.19994438133125580492333,0.430412532011224646666392,1196.70081035919270107115,1176.34548325031414606201,1180.84353046537739828636,1184.71631465980112807301,215.344720883149221890562,-348.872372995128614547866,-325.308075270549750257487,158.923934021140524919247,164.371694774539889749576
0.282500000000000028865799,-1.26904236019272453894757,0.700875544648467241337642,1.03733879359744762815865,0.116497748913364007616877,-0.0822382484666061702727191,0.00444693072692589185662682,-0.0122327593662277835095953,-0.0219394288988612670698863,-0.691272267875750801024992,0.722156917199474168711504,-0.147556959791256409042504,0.0465080678200279484801882,10.6760627363816507084948,0.0801939916403120178767239,0.130904262221931300125277,1.10930991914921017738038,-5.53298380253865040856454,3.19988807132458052961965,0.433209753712875456077569,1197.55009558471397212998,1175.41473335350815432321,1179.87995355815064613125,1185.18684922949319116015,493.212124363480597821763,-355.593124583446865472069,-399.821570250878380647919,226.753848539601477796168,164.368121078924446010205
0.285000000000000031086245,-1.17582546036266766265044,0.541613431446261062163217,1.18336786889680878331887,0.112887612547396404272249,-0.0828025503530600837098774,0.00742510809389355756759965,-0.0121923877685789511932102,-0.0220664574156513894342968,-0.691242739759044266811827,0.722182042091829456964547,-0.149663124744335462867895,0.0466738844764378602025801,10.6825643446507285716507,0.078820915242287944990629,0.131342548327160385523982,1.11149896674776149652075,-5.53269232346518347043229,3.19983739096462249662522,0.436012790280354112226746,1199.166870981010106334,1174.56751762739691002935,1178.84442261412300467782,1185.85008390249913645675,860.054620009758878040884,-300.280879016508777112904,-395.036281950751458680315,343.995552421619947836007,164.364851328612502356918
0.287500000000000033306691,-0.995669745292590890883844,0.463749472655093031292495,1.22794607481646211866178,0.109587238716782969794039,-0.0843762504879925490097747,0.011896570918197743940703,-0.0121734682909126618044482,-0.0221680316285753770122469,-0.691207404622800170024277,0.722213087102986817100714,-0.151451934389381204226765,0.0463401796580932001656805,10.6884951831759060780769,0.0774348192392912137993477,0.13170344027177866008671,1.1136811418965399944625,-5.53239980488150173698614,3.19979266278938467849002,0.438820812312610386562994,1201.85036868476277049922,1173.91332895842560901656,1177.90477214839688713255,1186.90682699160129232041,1067.73883620163542218506,-151.366662441024971030856,-249.443293764582278981834,433.073560732468536116357,164.361277943510430077367
0.289999999999999980015986,-0.826453753705759353032079,0.493942707757709154048342,1.14650941205616074825002,0.108033312509163412218349,-0.0850479490678638511136356,0.0161124356358437227643154,-0.0121703965646537196065857,-0.0222566266608536997284595,-0.691170875406335816215631,0.72224537099915397941885,-0.152792187905961496241503,0.0457633056326380571743329,10.6939282358482614654349,0.0760458249090869564668083,0.132015000622737077584645,1.11585129415797035257185,-5.53210534384125462992188,3.19975342939724249902156,0.441634891641260296513138,1204.50556516201822887524,1173.81068431519179284805,1177.59720614530010607268,1188.0154517061614569684,1088.42041478402484244725,64.556306710711140794956,5.92629677598785420400418,481.940363094377460129181,164.358590686803012204109
0.292499999999999982236432,-0.678375988660396167517774,0.587625627316577525682817,0.948749386252829562948818,0.10760385640707033350072,-0.084054498808841332513353,0.019981981695857645164871,-0.0121782591991878279963357,-0.0223520247025498566828539,-0.691136626836127643258578,0.722275055085336070703761,-0.153429406255775196976643,0.0452956651472179172568389,10.6989327915216954068001,0.0746771128401118172712714,0.132315310413708114856135,1.11800480908381594247203,-5.53180888117542490789447,3.19971838168130107149523,0.444451784420799633767984,1207.2924707586828390049,1174.23611049197916145204,1177.93440363227682610159,1189.31652880707315489417,1184.20071746681855984207,298.586526343205775901879,304.083247686730544501188,588.579759207913753016328,164.356202724410934479238
0.294999999999999984456878,-0.551593824212694538999813,0.710722933717775173789732,0.613599251072396545403365,0.107473178103446281861366,-0.0806875125671614595868064,0.0232661397727308566496518,-0.012187367924708274527501,-0.0224629309233512798604782,-0.691107779621540463388385,0.722299042671026958473135,-0.153351248662474320960669,0.0451978258206009453346041,10.7035687425506864656199,0.073326583675696638264796,0.132633263027178843751486,1.12014233178490796305482,-5.53151087205501124088869,3.19968638676781180762987,0.447269120571173905975826,1210.42656874935232735879,1175.30361694690782314865,1179.11762238373376021627,1190.95835050220102857566,1068.67689323203103413107,462.845618326855003488163,553.993371529349587945035,585.584386401705501157267,164.353679672563742997227
0.297499999999999986677324,-0.488624073358737531780349,0.783336288982038886352655,0.295303767656422411214123,0.107104902512258626234853,-0.0766049278706660702331632,0.0243570904287954553835149,-0.0121924077683219778123203,-0.0225919931734507757614683,-0.691086573761947042804366,0.722315192394596183866895,-0.152575080446624489205476,0.045571423890365392317392,10.7078863157979995435198,0.0719891844590016261040688,0.132981611193801058101727,1.12226848097866582776305,-5.53121189011237834876056,3.19965666881863430859312,0.450086108091672265629768,1212.63585522484299872303,1176.550338583613438459,1180.70437048992357631505,1192.24445073908168524213,763.280186196697513878462,539.703158889869428094244,735.351078366510819250834,460.721635787058005462313,164.35185944225796106366
0.29999999999999998889777,-0.451650981332695433678737,0.80859603384145617432921,-0.00591914729790686544586009,0.105980951028162809213207,-0.0727197784900954768971815,0.0236813511125878520258148,-0.0121881551128354033430856,-0.0227337351014075851607377,-0.691075026719356833027064,0.722321830099753925402695,-0.151244292221829168543223,0.0463935228366881557970913,10.7119209843001428339448,0.0706468278268587851487226,0.133360809280851450031591,1.12439126193346772275561,-5.5309121497060109717836,3.19962930510100740377766,0.452903551159805073389464,1214.24296968033581833879,1178.00213274135717256286,1182.79437777556631772313,1193.26195868113632059249,552.113288766485766245751,648.614759209703493070265,993.000873597246936697047,357.720018649024154910876,164.350327903633484538659
0.302499999999999991118216,-0.407077391116071440890778,0.810190007484485108513184,-0.291713789418331148617369,0.103799857503512990564154,-0.0700497550901079957252904,0.0215623360197526210690899,-0.0121730320085978276078986,-0.0228824578637605302589009,-0.691073947471919969309795,0.722318389805748584109324,-0.149453942749415591428885,0.0475789876797042265987869,10.715692437882502474622,0.0692872103186182031198115,0.133765418486936654707264,1.12651929209625789596316,-5.53061247128659605465373,3.19960410782496351700388,0.455722069873216617530431,1215.396421668675429828,1179.79341237966195876652,1185.66937485790981554601,1194.03305083232680772198,298.588933058999543845857,643.154561798655208804121,1072.2667815052309379098,206.325084729905768199387,164.348817983019699795477
0.304999999999999993338662,-0.353521561010315288342554,0.822661008260981319040184,-0.442899420551724543049232,0.101903967411552845434564,-0.0697594621119714264345646,0.0193461627910485982340116,-0.0121455206403211883603444,-0.023030446119582381747648,-0.691083002506332921832666,0.722305467387770683274084,-0.147332656473111917039276,0.0490089308323843619863425,10.7192021909918544508855,0.0678955861119134307379852,0.134187134340407715482613,1.1286612891859097995706,-5.53031352447885105050318,3.19958175649685516717113,0.458542871950485264598285,1215.7359143456308174791,1181.21790555035045144905,1188.15571168309247696016,1194.29358410478585028613,25.2854079649750715930168,538.491551111746503011091,946.962721382441600326274,50.0286539891475996455483,164.34782821508522943077
0.307499999999999995559108,-0.27865542845508900482443,0.877079586231460872625121,-0.4984107703359371699392,0.100509708212263723647872,-0.0702193446040806357189012,0.0172688332024199114878016,-0.0121093945783946992100777,-0.0231756955349697625623495,-0.691099651085472110878527,0.722285500768372057400768,-0.144846186262968634750337,0.0505649217487008084681577,10.7224356071401238921226,0.0664760973367179153203921,0.134618123060580130445629,1.13082382931616542975917,-5.5300158668687364738048,3.19956297548106372019561,0.461365996290213686847892,1215.52284870850030529255,1182.48587013522069355531,1190.40418846482202752668,1194.28319410227254593337,-158.894958758719297975404,473.78855306683323078687,802.046369299250045514782,-13.5100687279645956806462,164.347110839391604031334
0.309999999999999997779554,-0.193443918817905236018362,0.963642844138086984706604,-0.485253908022772517671939,0.099743868240748989606459,-0.0699971119788421608509665,0.0157657497287395920171349,-0.0120647699871875343363703,-0.023314432439297132909628,-0.691120312987698603990339,0.722262040614411460204281,-0.142047633191740574343243,0.0521555333627976291932526,10.7253596478579105166773,0.0650254343436030141090143,0.135053933214869636980637,1.13301215747323968940918,-5.52971940674419837336018,3.19954839332004370433538,0.46419296933148895822896,1214.94143955183722027868,1183.5868483156846195925,1192.16594352958873059833,1194.22603376114602724556,-300.224220211248109535518,393.611336496678291041462,518.023637202713416627375,17.3095860885496080072699,164.346614208914360233393
0.3125,-0.111025691525461100983563,1.052397746126520372556,-0.411632397681954032009344,0.0997082721998725080014836,-0.0680071649549178341986888,0.0151716979039622310715396,-0.0120164748492904323307062,-0.023449161278819869586032,-0.691139993662105656113681,0.722239705732294900997204,-0.138829883687900557109884,0.0537064567848760388013574,10.7279281580515437610757,0.0635592233763923875056179,0.135492226677036087245654,1.13522844266323241768646,-5.52942352657666091886313,3.19953851389479426714502,0.467024712058584146046059,1214.02172760744406332378,1184.45392681770408671582,1192.99430665083559688355,1194.36974203271529404446,-459.417697546723104551347,318.156470440089549356344,81.6165381101199471913787,167.007789319813895190237,164.346377374627593326295
0.315000000000000002220446,-0.0331811939894908064507817,1.09291388826221802510474,-0.279664637134848015342925,0.100228870714802631436413,-0.0636289793498249489633878,0.014989947336841460967527,-0.0119627817592979721755819,-0.0235759949001541069257826,-0.691156012403770225738242,0.722221208881283271985296,-0.135291776729801360712457,0.0551439479269480725687202,10.7300807830202806769648,0.0620723659281255529807098,0.135931581847098414961295,1.13747402346126946781624,-5.52912865227159766590148,3.19953398260616639348086,0.46986248703472460741537,1212.64435106410360276641,1185.17763066788506876037,1192.57402622013933068956,1195.06107270774509743205,-536.063340863074245135067,205.49399452002018051644,-407.916138496193184437288,363.820732649309888984135,164.346385808556192387186
0.317500000000000004440892,0.00762330912247471959020118,1.02630051742899008893062,-0.144266832044477738561383,0.100922067664272738229947,-0.0588191667284880467803099,0.0147528405590409642661465,-0.0119060673246557512799937,-0.0236924398347079304127938,-0.691165489109998310013339,0.722209339848601583611298,-0.131459531845585869680448,0.0563485696598760021913677,10.7317503823348019409423,0.0605691881164308748575209,0.136365801657875790331431,1.13974832739803577652538,-5.52883528192570761206071,3.19953517265715348116828,0.472708425789065411759537,1211.34141090312868982437,1185.48139679030418847105,1190.95472595835462925606,1196.18884569596184519469,-536.368688113861480815103,54.8497422927993696362137,-884.252297650572586462658,564.260861755655696470058,164.346631625932189990635
0.320000000000000006661338,0.0268748932647954116847977,0.829700925538706446360493,0.0127453222375549721223642,0.101603888558932542451885,-0.0537871439166616310822988,0.0142267049480602897348902,-0.0118477752505228330071052,-0.0237989364368002102867461,-0.691167203820284958837306,0.722205225244973103571056,-0.127339062361306265547256,0.057255362107432067331203,10.7328636667689387707014,0.0590572438953374800885143,0.136794585800164236744081,1.14204821711961024277571,-5.5285433649325517180273,3.19954232498412416418887,0.475564599691541745052348,1209.9625076235342930886,1185.45187937934906585724,1188.15276473188646377821,1197.88237701652337818814,-599.97653427080820165429,-84.5283225344245892074468,-1414.57166526852097376832,835.208609712480324560602,164.347119913134321222969
0.322500000000000008881784,0.0433711063644835886909945,0.467404470262631654975394,0.21969409904897560514847,0.101954440544965635462304,-0.049120365683874511741891,0.0138187610691011403263317,-0.0117917694201572723772253,-0.0238943461175927136797004,-0.691159555135627434729884,0.722210372876623485360881,-0.122935760061079438210108,0.0577387886140626471753734,10.7333464071392619132439,0.0575457407306059903762119,0.137210467989119067055981,1.14437016217879961033077,-5.52825270127749224258196,3.19955537815762447451107,0.478430539173923641271813,1208.34152823177464597393,1185.05875517763206516975,1183.88186763201201756601,1200.36488874452425079653,-565.096180570616979821352,-191.90321334799574515273,-1621.29093267644611842115,934.311825349458672462788,164.347980766482464787259
0.32500000000000001110223,0.0709800322298755198557885,0.114117411671402935180453,0.395832164405187203470859,0.101605100377438459235968,-0.0474972777047306463082954,0.0141995177028155436516066,-0.0117402771559099190074038,-0.0239829618133818242564637,-0.691142561056362847438095,0.722224587225392955502912,-0.118206667048892086202549,0.057779267737281786443404,10.7331232803920713081425,0.0560497230389626135971248,0.137616563457304053041952,1.14670853439198028311807,-5.52796259433182957110375,3.19957422498408927680202,0.481304669879718538538782,1207.13702672068120591575,1184.49236331260908627883,1180.04631006850422636489,1202.55393614327067552949,-416.207163329090292336332,-256.831934561250591286807,-1464.67127026585194471409,827.361478125111943882075,164.348923841440210935616
0.327500000000000013322676,0.133698585219582555261297,-0.201289311627805028726002,0.553775606785243179608358,0.100689446652235753409954,-0.0487332345586730941722209,0.0155347461959992570734723,-0.0116926174496348542902746,-0.0240635148274530273615479,-0.691116381930040213354971,0.722247765780009265412787,-0.113248634745232626408473,0.0573235590495665692234439,10.732121256318293944787,0.0545702350313521794555882,0.138011017084966547407987,1.14905895478988995250802,-5.52767268851559112619043,3.19959938245979280679876,0.484186575444711553295463,1206.26049241512919252273,1183.77459550482581107644,1176.55851128068275102123,1204.50169613514981392655,-266.559129466577132916427,-328.354498824591871652956,-1323.2409687658207531058,724.222801223776741608162,164.350097788738452209145
0.330000000000000015543122,0.25617497535223848759145,-0.432534702706020512952279,0.695133249808555508941765,0.0996284352478052359636251,-0.0526088991303670025501127,0.017833277858646360419792,-0.0116452020486411088329159,-0.0241387950176236119881334,-0.69108313530588338924332,0.722277844807126090387328,-0.108148573728764449408679,0.056427509640931267087538,10.730270191345432806429,0.0531091832755986661962488,0.13840235623573321488422,1.15141602334851755884415,-5.52738184462743298297482,3.19963118411261282503233,0.487075035897931829520502,1205.8042310733483191143,1182.85059081848612549948,1173.43010522467511691502,1206.17505014938956264814,-42.1583463891692744596185,-334.54155968315689051451,-904.034926259463759379287,468.426284586075382776471,164.351770295700475799094
0.332500000000000017763568,0.384648334962674365300472,-0.452125757795704075192589,0.757250148534954425905141,0.099496540847700667975495,-0.0564237952029587527813526,0.0199113726402170947149539,-0.0115967866693156822915922,-0.0242142917968747560519827,-0.691044761455705480734935,0.722312804025315613465352,-0.102924039513771256593166,0.0551585829976091457371723,10.7275068226834058293662,0.0516759265729519745580234,0.138798546647665416164941,1.1537745667888874567808,-5.52708958357168622654854,3.1996690068450694965918,0.48996899298575130599076,1206.04970068318334597279,1182.10188770641002520279,1172.0383366493854282453,1206.84382755808019282995,243.068329665083865620545,-278.495634755927085279836,-270.306937170243827495142,113.499775550690074510385,164.353381977080942988323
0.335000000000000019984014,0.506490537122750938969773,-0.275640472114281109838885,0.749502036962943152254013,0.100772873418250322186118,-0.0592042878883498810416164,0.0219193301696312681237089,-0.0115444295583989626347021,-0.0243016451850468009898698,-0.691005098464922640211228,0.722348628002624448818381,-0.0975283550303806395787021,0.0537090921131654075448836,10.7237735981595534440203,0.0502855660709397855878677,0.139219564296468062414291,1.15612832603896542593702,-5.52679485677312154479068,3.19971140971191569946086,0.49286804946905721225292,1207.01957272167373957927,1181.45811264470648893621,1172.07857053882389664068,1206.74254902714301351807,503.137425742806499329163,-227.957860372180022068278,244.508893976444369400269,-143.743115218467096383392,164.355217881169352267534
0.33750000000000002220446,0.592328391384130625851867,0.045886674067729373016622,0.678358771843610930396551,0.103144283383181600832756,-0.0607074817679670933334712,0.0239091223516864209708288,-0.0114884101468539830820381,-0.0244087688020191324878017,-0.690967451121788700518778,0.722381884743384383718023,-0.0919274653400185687290858,0.052177231260734202589191,10.7190235448788389049923,0.0489511587547272614129312,0.139673554344665939996872,1.15847315173833376178436,-5.52649693370554739857425,3.19975673742086774709037,0.495771410690869163140349,1208.56538781189738074318,1180.96209840454912409768,1173.26088111926765122917,1206.1251119819878567796,730.432763468206076140632,-150.547545616973224014146,702.239266342257337782939,-322.803416729493335424195,164.357238402289908663079
0.340000000000000024424907,0.607383371629062307484048,0.49753443682161657690699,0.527928108936497997305537,0.106011272736012601702882,-0.0604471498516112176746518,0.0259194816479138626097445,-0.0114270536282183015480696,-0.0245333564053849088881787,-0.69093537395711346338345,0.72240927764887830075935,-0.0862749002547108928551367,0.0505512213733015081107425,10.7132205479807520731583,0.047664290784777352261159,0.140155413873733147855916,1.1608078372230177244262,-5.5261962819503001043131,3.1998042546693112875289,0.498678417208754498624046,1210.67173653901477337058,1180.70537491662162210559,1175.58976687053518617176,1205.12853194349554541986,1000.95485678279965213733,-52.2586221619348592071219,1197.7764587054923595133,-463.054355558324061803432,164.35948012544906760013
0.342500000000000026645353,0.533195068015829387597648,1.11778014623863786169977,0.260770398454750806926938,0.109102906446820552277543,-0.0577413755309980139540649,0.0281182718821264693298545,-0.0113598092002976033820794,-0.0246676813030701699847036,-0.690910751596024108600602,0.722429274697120926695959,-0.0807882133534867236113186,0.048734977276294721981742,10.7063411718307808229156,0.0464087489779240053300313,0.140649518087613639716338,1.16313289893794458151888,-5.52589415496021274520899,3.19985356891206018659091,0.501588886418709245518244,1213.57016209581138355134,1180.70080529373944955296,1179.24976341279511871107,1203.80984020419623448106,1076.83756406868178601144,40.3160511322766623720781,1404.25444571014736538928,-470.096486764259282153944,164.362424298744628003988
0.345000000000000028865799,0.405431438240078101387098,1.64683539549554525116548,-0.0200951538479252171665035,0.111092917902962426413005,-0.053545517321640347108147,0.0292830143168846847301356,-0.0112882307884931299551967,-0.0248072954033008163943208,-0.69089356872197427161808,0.722442019224441733804554,-0.0755971619569556635420682,0.0466616001009218794859379,10.6983746925419858087025,0.0451769745067769276647418,0.141142296904993413964036,1.16544807091174495994323,-5.52559118512763003394639,3.19990476861572581412929,0.504501975679709224742453,1216.05592435935818684811,1180.90695517228300559509,1182.61103909908592868305,1202.77804950967424701957,954.791972345036924707529,99.03687558412448765921,1306.18034000772127001255,-378.525983974986615976377,164.365088491672850068426
0.347500000000000031086245,0.239482051662239681100175,2.1365082311329151032453,-0.330389955359043363536387,0.112276295626598757171344,-0.0478025455374689739462823,0.0291064514070439386839162,-0.0112154803334121987851146,-0.0249435234902514700594534,-0.690882651257478386241928,0.722448882710884032753995,-0.0708652694241694164345446,0.044188750010958760539026,10.6893257677792092863456,0.0439567620497370581400531,0.141611169091146821275018,1.16775380186310484553758,-5.52528816370468423002649,3.19995808094988154479665,0.507418292496554568238309,1218.34412195753657215391,1181.19598967166007241758,1185.78066511283373074548,1201.91721028432129969588,912.303136133095108561974,99.540100518197419887656,1242.05104610200464776426,-337.558830425404892139341,164.367970324272590687542
0.350000000000000033306691,0.0447793765546468519600509,2.64103638006419316752726,-0.689248038230277804139234,0.112488242358238649254432,-0.0396816179883168473896404,0.0271925025959499494510041,-0.0111442777850680914408787,-0.0250729439959325520193012,-0.69087761243653755816041,0.722450310671711282139995,-0.066672231490822034261079,0.0412676213792542712077704,10.6792133002777998029842,0.0427433888276588375143561,0.142043399888088950344667,1.1700480999045321794938,-5.52498491998969587513102,3.20001375712721669586358,0.510339394372412158418229,1220.61744004002366636996,1181.40465567487399312085,1188.82129432959595760622,1201.09025535754722113779,730.937637043424047078588,16.457195643670441853601,927.011759678826251729333,-276.965505160754332791839,164.371679098225968118641
0.352499999999999980015986,-0.0764215715590623734243536,2.98077916531328179772231,-0.943222846165310713217877,0.111704999749229691441421,-0.0324527960144616461901634,0.0246129639501922459210448,-0.011074344781418431551967,-0.025190606274637192263377,-0.690876783724989285140339,0.722448077177252567793175,-0.0631543494916940867378585,0.0378826449275917742642861,10.6680724272115163842045,0.0415250521915514481108289,0.142429454413577877280872,1.1723276336489993898482,-5.52468131280193208709761,3.20007289002230921326486,0.513266830076249624958962,1221.99881014275365487265,1181.27827564987842379196,1190.41572391122781482409,1200.53238275851754224277,429.683207200564368122286,-149.819920226265537621657,401.064111503414551407332,-210.721300994102762160765,164.37497804482146079863
0.354999999999999982236432,-0.118298770243817311098589,3.23670977854595287581674,-1.11884702145004855111665,0.110221148118188450037991,-0.0253030861772356244210336,0.0215884848347994914852244,-0.0110029087213407619078032,-0.0252960552318422515760687,-0.690879524626970442646723,0.722442858498802409350503,-0.0604034115226813467236511,0.0341285997683076491870935,10.6559549744692212414066,0.040293064832004947539712,0.142772080503747761381916,1.17458622134203949372022,-5.52437745005932612230026,3.20013577461152243230913,0.516202361617981941854794,1222.76585607602646632586,1180.65555607374267310661,1190.82661488711300989962,1200.03664885257671812724,186.799390061696442444372,-409.311686193631999231002,-96.8886147352804130150616,-221.714390132819772816219,164.378493081199763992117
0.357499999999999984456878,-0.0555327452559804535248134,3.44959146860310372773029,-1.21503395682541359690276,0.107882792042126737785956,-0.0166680245841405554052539,0.0176554500704373361352761,-0.0109256088115055934734121,-0.0253863144942589775976405,-0.690884486019880617035938,0.722436121556620514105873,-0.058560106770506561990608,0.0300928121303740969683105,10.6429322609737617710834,0.0390321439360576116772705,0.143073440558782655207537,1.17681696039420602417636,-5.52407429034353647523403,3.20020225741189978663215,0.519145869238943791224017,1222.93280709306213793752,1179.2317172189102620905,1189.93128083755141233269,1199.42381080785344238393,-66.7071573600423448624497,-628.85969834596778582636,-533.823466649755118851317,-238.005904643114064356268,164.38296146896570348872
0.359999999999999986677324,0.0855304172552820568542487,3.54266721469519296761064,-1.18935056600084609890189,0.106059533269303299385378,-0.00907204989253701001017394,0.0141319259383897843224132,-0.0108391248708052580912442,-0.0254657690322659634174496,-0.690890935876939060733548,0.72242846268886418137356,-0.0576229747479613113592123,0.0259569328591124082183939,10.6290943656947138862279,0.0377409141747243673248313,0.143346760811327106344137,1.17901045536693671600403,-5.52377239786712692648507,3.20027240108771016124933,0.522095620539681393168507,1222.43232028922625431733,1177.51125758201283133531,1188.15749755386423203163,1198.8466193293611468107,-331.720274639610295253078,-766.564857661523319620756,-864.703138362073445932765,-250.204159466920600607409,164.386894555441841703214
0.36249999999999998889777,0.282495678540687245039464,3.52855024825071605931726,-1.05075778337233405324014,0.105608587002058815218497,-0.000460281523826158766102279,0.0106182478078388868591997,-0.0107399260583436514243649,-0.0255338680483662497366915,-0.690896777597106659385418,0.722421954521589082531818,-0.0576556088123511417675715,0.0218353215932318434067128,10.614551806574922920845,0.0364098164745791930130281,0.143598310131749923312938,1.18115803685896247898768,-5.52347263174855562795074,3.20034604921286192080743,0.525053430110613228443128,1221.27420571986408504017,1175.39889293060264208179,1185.60776514574104112398,1198.17279001051883824402,-566.566883084714845608687,-871.519292957736183780071,-1093.1723829489319541608,-283.333432565995963159367,164.391046481882256102836
0.364999999999999991118216,0.480886405621656631836913,3.40659147075849944030779,-0.825453451932197435070293,0.106879620027250557545706,0.00921590615324165834953973,0.00748080020353545510625182,-0.010628727083676963935388,-0.025596119612979261609409,-0.690901431885078798345035,0.722416937884677423653557,-0.0585531518838146441963133,0.0178641102071042945365065,10.5994334787137667319712,0.0350459950157983035623488,0.1438375477705458038713,1.18325003116740568032128,-5.5231751929182282268016,3.20042290016591435275473,0.528020291487009019171239,1219.59948587380267781555,1173.15366111722414643737,1182.69163563911956771335,1197.42995216653116585803,-777.725402557324969166075,-876.585421518256339368236,-1186.2276625399306340114,-304.216665848934724181163,164.395381328037274215603
0.367499999999999993338662,0.622854398628790439929048,3.1436394696403153758979,-0.516931855222838687602405,0.109847261176875141130971,0.0192290040967676920113938,0.00506750964399253246706056,-0.0105062516982215217037355,-0.0256561101840585940869754,-0.690903783795024262204265,0.722414335954237873949069,-0.0602274648466552126047091,0.0141496992090784090567723,10.583884582540555641117,0.0336536732336068233895077,0.144070997039743742273998,1.18527762732398711520432,-5.52288023702113672896985,3.20050239017102011729321,0.53099649423020123251149,1217.38557870707745678374,1171.01596582301135640591,1179.67662683304138226958,1196.65170668127416320203,-1061.46511688038935972145,-851.411091081080598996778,-1273.19971608580885913398,-333.91811473315982539134,164.399938912241111665935
0.369999999999999995559108,0.674249592440190781417186,2.6872527951992868366915,-0.0945804521937394782060693,0.114092509578162179528782,0.0299723924007894888810188,0.00340803203780209139350799,-0.0103733249638731130082281,-0.0257201869454989698327019,-0.690903255731062482247751,0.722414461387672512948654,-0.0625350218323629108985173,0.0108338971891757673837731,10.568062531244869717284,0.0322419843376157561065654,0.14430946634451191634696,1.18723236143233679129594,-5.5225870973034831834525,3.20058408621276591077276,0.533982159779790355180751,1214.29216028940072646947,1168.89660566181873946334,1176.32563705869051773334,1195.76036159286536530999,-1169.60810766145073102962,-667.2053299776047197156,-1143.82207273979383899132,-308.480404523242839331942,164.405668800090694503524
0.372499999999999997779554,0.604229222384666253553576,2.23540998814068148092815,0.258197505829421081191555,0.117238207442308325911817,0.0369004786575246046531618,0.00338399118925309652303191,-0.0102259802643640904801225,-0.0257891907008694562519757,-0.690898909508777969712412,0.722418236308119521282833,-0.0654755841486236306314694,0.008047752760189208487418,10.5521326419216645575716,0.0308033049971262982980047,0.144562639718441576786034,1.18910802017071515201962,-5.52229508939969626624134,3.20066845337914918090405,0.536976911666826262070629,1211.53753816877019744425,1167.67993917312332996516,1173.95751646934240852715,1195.10930465865794758429,-1087.15106977465347881662,-349.896223343193639720994,-832.975415220788931947027,-234.039772533287560918325,164.410663627920996532339
0.375,0.430848472117246694690351,1.78896846993262115255163,0.554248087217482310329331,0.119343865957901917873585,0.0409285499885742101722208,0.00522430257276806486038678,-0.0100634135232133079679295,-0.0258653902300417896931162,-0.690890583702764349283143,0.722425744374161848959659,-0.068970956075510445049126,0.00588975448751064001307043,10.5362641724389618502755,0.0293378848109486639605947,0.144836661031259250620451,1.1909008658108874989523,-5.52200256132531919206485,3.20075636790406203857628,0.539978046643843190288692,1208.85640494052745452791,1167.14712454510276984365,1172.16075998258656909456,1194.59016273019892651064,-1103.94118342992351244902,-76.0786842603010171615097,-655.231569706847380984982,-200.73657219877514990003,164.415889611724651331315
0.377500000000000002220446,0.14555199579740812909634,1.35459615191096149899863,0.784415952847571040784658,0.120433201649231103047555,0.0426400351234843127956609,0.00937985447068374889045828,-0.0098851922140235637392891,-0.0259438880417605065298314,-0.690877095886128667068249,0.722438294535210689950588,-0.0730379562048311531397005,0.00434466685877563096873644,10.5206250232048823534114,0.0278352887141942138826689,0.14512479393554392204102,1.1926117210140734226087,-5.52170864160912877594001,3.20084863124764229524999,0.542983421058826132288289,1206.01783225162057533453,1167.29954575182182452409,1170.68135862080816878006,1194.10562179766407098214,-941.542941609667764168989,173.89591346950496131285,-441.49677269360796572073,-163.752993321941033855182,164.422430796957712573203
0.380000000000000004440892,-0.118062539683418010749705,1.12505571355372180342158,0.84762930129212532559535,0.120056253952230615467123,0.0425787705345275421797702,0.0133753073320870986134823,-0.00969607849635539635613224,-0.0260211321476563860188858,-0.690859779717039712565452,0.722454667995096277977041,-0.077590424716250341874435,0.00333087129247153224120837,10.5053758583554852634734,0.0262955894238937337714646,0.145413280127361016491605,1.19424488630364056263033,-5.52141272982667885571573,3.20094519865372850730978,0.545990397480514921824124,1204.14869023247911172803,1168.01660411245029536076,1169.95327611911852727644,1193.77139776358922063082,-615.532376992404692828131,381.547610262759576471581,-209.912852605247991277793,-134.074043275722829093866,164.428108388259403227494
0.382500000000000006661338,-0.364815244901465884908021,1.04528441248979397926178,0.78109761456085347042233,0.118324480946308333018102,0.0426169072708456886378059,0.0165637901011254709549014,-0.00950032536975780814159087,-0.026091470068210168703482,-0.690838301244513841581352,0.722475324236910854125426,-0.0825759882052142374364578,0.00274035681845372081077983,10.4906630012874124702194,0.0247154914214338904121515,0.145685822308168233529813,1.19580780735891734067877,-5.52111585359837064856947,3.20104563325618363123226,0.54899858552570157677053,1202.94017036665854902822,1169.20728380313562411175,1169.63179435778192782891,1193.43525158128545626823,-368.30265111520895970898,593.229491084138658152369,-76.8005651398652133821088,-161.783777576056166935814,164.434022576723094744011
