t,ang acc x,ang acc y,ang acc z,ang vel x,ang vel y,ang vel z,quat x,quat y,quat z,quat w,acc x,acc y,acc z,vel x,vel y,vel z,pos x,pos y,pos z,mot 1,mot 2,mot 3,mot 4,dmot 1,dmot 2,dmot 3,dmot 4,vbat
45.3025000000000019895197,1.09582440588875074105601,-0.970180191504993238993393,0.589568557944098348144735,0.000832910554575502131216536,-0.0128906563844161693721535,-0.0102675939998244248468895,-0.00594095097400999545139699,-0.00877481209024967914733573,-0.220578303110989526469865,0.975309701133366568903682,0.0146320250701724163810979,0.0498324190140689224359782,9.72029021448790331305645,0.00116618672818108860649022,-0.000894444860006085975048795,0.000773823800111636973114715,7.02969942856866758518208,-0.047727261248276621474762,3.57149926983511845079988,1096.97306524308100961207,1109.9608575034981186036,1118.18099494346142819268,1126.05122342611775820842,207.286525547722050077937,-385.203456174745213047572,-304.098870625561289671168,233.1776142461723679844,156.172027018731313319222
45.3049999999999997157829,1.14400752846174924570732,-0.975725410970697981660749,0.643086925034895062758267,0.00263459618959116037908985,-0.0151942343124408102417178,-0.00717533858754508188648735,-0.00597459603005600324576729,-0.00887087290847678698602063,-0.220597659316116773142724,0.975303975692931368612903,0.012395676425786261720674,0.0478352715615119189473958,9.71669449907052573678357,0.00113544622490070658965555,-0.000783570191534696015855932,0.000337082032420201284979994,7.02970212823832163451243,-0.0477379069347709933390789,3.5715090868594838724448,1097.45453899406811615336,1109.00748141024791948439,1117.27380779799068477587,1126.51229229360296812956,161.122024771121800768015,-377.826590516022235988203,-419.782198775028348336491,160.048571332490666918602,156.171359961809031347002
45.3074999999999974420462,1.18065083534495762762617,-0.971926557447675198986303,0.614641079562501468913638,0.00524275767605543105420729,-0.0172176904349197607002608,-0.0052127192418104893734121,-0.00598555637404340167007089,-0.00895902419021522844477801,-0.220620291021943942810779,0.975297794703026688090119,0.0103555278511520409967517,0.046168026995471136975091,9.71444779074420061704132,0.00108293913690029491338207,-0.000671480186200019719261478,-0.00010579307443073706772492,7.02970873912500771041323,-0.0477458823434738083291151,3.57151922049759207311581,1097.77867536693588590424,1108.071724550919725516,1116.08208394958819553722,1126.85146628277948366303,78.9555653759685753811937,-348.539748344186534723121,-503.131609462495362095069,113.570153259012030844133,156.170693142708699951982
45.3100000000000022737368,1.19342589483382632842279,-0.97364359030727065658084,0.545065534310468779999326,0.00860150560464655912495946,-0.019235235242614844713982,-0.00435031053212364769017251,-0.00597285882108333169432379,-0.00902536421767858795806028,-0.220642170911484691853133,0.975292245618488373715138,0.00831101787756555188124707,0.0448024140668734083270408,9.7135392630528158974812,0.00101024739792810488818453,-0.000559279709767385798009631,-0.000545909181893065626085815,7.02971745408399328880478,-0.0477518062111704708061488,3.57152557179579499546662,1097.84931682094816096651,1107.26478266852609522175,1114.75814975067692103039,1127.08014305989831882471,-51.9146459935389401607608,-270.702094433134107021033,-539.192152957499956755782,58.065309469809413656094,156.170027137293658370254
45.3125,1.1628563772867106518305,-0.993610556449432413828049,0.457854516392993626805463,0.0123544672297963530060994,-0.0213161540774347603444117,-0.00435163455528207558653531,-0.00594293874466163100922511,-0.0090718957520477573608364,-0.220656736851237877949927,0.97528881767952368964103,0.00638332276009084820245221,0.0436361822121328693513398,9.71391851895192282029257,0.000920097705316311902969117,-0.000448303189759452882026669,-0.000973217544448406785169425,7.02972717708966765570722,-0.0477564303688242930423513,3.5715252779530426430199,1097.519102136968058403,1106.71821407875336262805,1113.3861231847993167321,1127.14179283012867927027,-241.134425743294855237764,-165.488541990376234025462,-593.454264402401804545661,-24.0323540436056930502673,156.169362586146689864108
45.3149999999999977262632,1.07209938295132101160334,-1.04822437763573228508562,0.356507703942009035458227,0.0162436787662614580407539,-0.0238358036036796644419056,-0.00423434950678617388897251,-0.00590443210110208182433977,-0.00910003284495581633850581,-0.22066140096316963492562,0.975288126053905579659897,0.00467861728221161121687999,0.0425229176670891828582199,9.71550432736984781456613,0.000816449053930668215348088,-0.000339780735277786277888368,-0.00137707332618453915686063,7.02973553180856569611024,-0.047759999779213510584519,3.57151691506261581565695,1096.64364469223278319987,1106.43733995857496665849,1111.79087842866761093319,1126.95998128968039964093,-386.169987989917672166484,-39.7008205289491087341958,-567.436730001901082687255,-118.881612498201434391376,156.168567073350175178348
45.3175000000000025579538,0.959159241476238322299253,-1.12213836344637063469065,0.277503285727955406603229,0.0186061728398832330888535,-0.0259718660619972958880641,-0.00361556586311718086354516,-0.00586621662408363334778594,-0.00910991003479449772128884,-0.220651946825365374849071,0.975291199247706686037418,0.0032654546002593431985872,0.0413052585859955481706329,9.71818783781129624799178,0.000704379152433488777557136,-0.000234726349603078083497915,-0.00174715697455226021475583,7.02974042566276047239171,-0.0477626309870675738733503,3.57150154883871628896941,1095.58825219701748210355,1106.51970997610851554782,1110.54893953478836010618,1126.54738476763736798603,-455.514063749745901077404,88.5213272359125795674117,-476.468727858793499763124,-227.671980162878696773987,156.167905719671239239688
45.3200000000000002842171,0.820886197463446709576829,-1.22259236401879278766103,0.198736126522050388087948,0.0201542333498521582246799,-0.0283012542839744252187728,-0.00285041517016842646525809,-0.00583078164867898568468618,-0.00910260076722835438645109,-0.220626781587145992524768,0.975298529978508188520436,0.00218750895378189147422177,0.03995107765288953560745,9.72183657708502124705774,0.000589713513265604128039954,-0.000133995059369008170501586,-0.00207442585625662850173923,7.02974149118189384211064,-0.0477634911902455605581252,3.57148225554743792287127,1094.3660743734828884044,1106.8799465947547560063,1109.40853478937242471147,1125.82162138886542379623,-525.720235237555016283295,200.606493386476898876936,-485.378853920006235966866,-393.711674597892567817325,156.167245651820223883988
45.3224999999999980104803,0.634615966395844388614478,-1.36091435452248799009567,0.0985975068609751537085373,0.021450295946609281710904,-0.0315447609800997286200186,-0.00212476751574387041562875,-0.0057954563319496414305898,-0.0090811071281038380220707,-0.220588360611896960872258,0.975309723081744239792101,0.00148743999765185708206161,0.0385349373864196306782581,9.72629887236985801735045,0.000478463535513066280571021,-3.83919321896895540278602e-05,-0.00235182902085982270881659,7.02973859893298325118849,-0.0477632487453128196097651,3.57145935209006237798235,1092.95965102083209785633,1107.52274244303998784744,1108.1220452651905361563,1124.57882639464969543042,-469.898782586402091965283,250.995985635844419903151,-466.960494006377587083989,-512.496715117969642960816,156.166454294137196256997
45.3250000000000028421709,0.460361147997515762764209,-1.47566949160333504842413,0.00933492221764562792041264,0.0223203086217649455946788,-0.034871023553020498442212,-0.0016412845253065838375256,-0.00575886215900328277128573,-0.00905670270238436055099118,-0.220543573221531286066011,0.975323286998339034070682,0.00135558059525439644765754,0.0371431751719555336421763,9.7314064178453563158655,0.000376187828331507655241911,5.1233614662514519394812e-05,-0.00257479656497541092852188,7.02973267733410001056882,-0.0477620077488083924488471,3.57143342539147390368726,1092.01658046054967599048,1108.13492652293462015223,1107.07373231933934221161,1123.25913781327426477219,-296.868616924696652858984,237.527395647536110345754,-424.497031425800059878384,-573.539737278658662944508,156.165794643740582614555
45.3275000000000005684342,0.254487837164116825761084,-1.56826970853404112915541,-0.0822990104788339504882089,0.0231001322501457814762027,-0.0389466228507472367326159,-0.00123976324922028054327516,-0.00572036097955246763957504,-0.00904954229439932332501595,-0.220503544692587510889226,0.975336640941890764544553,0.00214077783180544045649185,0.0358869787582500321398982,9.73698044009579000146459,0.000287459049424002867877126,0.000133885963333138529761032,-0.00274159786686033494704229,7.02972549572000549034101,-0.0477591356261031704799613,3.57140735200420866846116,1091.47530793620785516396,1108.71037942127827591321,1105.9995601080604501476,1121.71112770825493498705,-125.611400859839349664071,223.753763432954428935773,-482.434815382141493955714,-713.168448528370504391205,156.165133732609689332094
45.3299999999999982946974,-0.0482571644533747109995225,-1.63294289062328279449332,-0.181823961372378772871627,0.0238431963936538322823555,-0.0441477576325771878251736,-0.00119815100276739520089586,-0.00568535816959961966959858,-0.00908263444316033050074388,-0.220471931342874599701886,0.975348733658208177921267,0.00426076814949782889385688,0.0347733660583216669381912,9.74283932190844303988797,0.000215556153835675502012867,0.00020846629376542599927126,-0.00285345752804253482634578,7.02971920490936152958739,-0.0477550212351993408343986,3.57138393763841577310814,1091.38852345625105044746,1109.25369534009837479971,1104.66155824243082861358,1119.69329557063565516728,63.3083861300878112388091,165.513641630884109190447,-492.082672346780952921108,-751.326110045217660626804,156.164338331068563547888
45.332500000000003126388,-0.358790736770802365374067,-1.63973698021822911208289,-0.240436477794683467479331,0.0241996430328090920969242,-0.0482389367005648314612465,-0.00175952183719257459863783,-0.00565595163669080618767948,-0.00916734345549481688397719,-0.22045077817582767187865,0.975358844408111824719754,0.00788840946142163601528807,0.0338211756308632663370339,9.74881133029265889433645,0.000162508101187808413640862,0.000273916458774507611938914,-0.00291432029613271099260929,7.02971650577687867667009,-0.0477491853396930163166978,3.57136368053926789301045,1091.79184986685845615284,1109.53794762943311980052,1103.53914674632528658549,1117.95449715802692480793,248.723450192992544316439,74.7853929280681199998071,-429.185847478591824710747,-692.923776747657257146784,156.16367341579294247822
45.3350000000000008526513,-0.734098802233678404682848,-1.59363782084520488879775,-0.252777387852629487063894,0.0241025550158122763011459,-0.0520270615969543950840581,-0.00304119915259784025229894,-0.00564359146830370039110703,-0.0093039994323170973483661,-0.220440030542265158475246,0.975366531755015087057359,0.0130190913022337761972835,0.0328221526057803844600436,9.75473820378534028918693,0.000129321128164499877513313,0.000329610276983053013342279,-0.00293040054598672598806797,7.02971720396014454479428,-0.0477416294421063175379416,3.57134638396246373304166,1092.63214070721664938901,1109.62762230473890667781,1102.51562900503677155939,1116.22867668689559650375,393.484336480281399417436,4.09638193741929779179145,-368.876118011957146336499,-681.385945489938762875681,156.163006723035096001695
45.3374999999999985789145,-1.15390373834362081062466,-1.50169603593357869897318,-0.215272704932791492105082,0.0233899394984320198320749,-0.0557339669216290467534947,-0.00481147542330077806344013,-0.00566002748020745689860878,-0.00947345617348887072961539,-0.220435704149958944242371,0.975372082493419223503395,0.0192725535245203971612682,0.0314751351977713075824816,9.76048530084364251990792,0.000116398101040701758171307,0.000375708657448519387552638,-0.00290969327861744560953516,7.02971879856452197543604,-0.0477336742152753776280427,3.57133211772294911767744,1093.7592715492580737191,1109.55842953912019765994,1101.6947661562671783031,1114.54756743058032952831,497.960867155843402542814,-64.3848566280337593070726,-246.918618617847727136905,-657.058248720823371513688,156.162339269617859827122
45.3400000000000034106051,-1.59561989179459984278253,-1.35177192890567865468654,-0.118159919021572731856473,0.0213181140801334892409535,-0.0593088881419060118260767,-0.00665739669885096873452879,-0.00570472521645741612733582,-0.00965616352843176942166714,-0.220435563512682702880241,0.975375036082914759205664,0.0262031616941105494067443,0.0297080778935428571618793,9.76594145127298141062511,0.000123676847094071672237409,0.000413303411234132206560077,-0.00286149786500576597259027,7.02972006085791889518077,-0.0477267019710444287405871,3.57132236783314471750828,1095.12194504299714026274,1109.30569802159857317747,1101.28103591194690125121,1112.94338544328979878628,624.936210461781683989102,-153.059103290264744146043,-52.6641814806865795617341,-682.591163417888310505077,156.161672283511308023662
45.3425000000000011368684,-2.08389683296327943295978,-1.10331620646494910076285,0.0406194499654261437227021,0.0162427918858623100695215,-0.0629544502191676236257933,-0.00770673122017397245475667,-0.00576859602356679431606201,-0.0098432650791857000116547,-0.22043699936076793788331,0.975374427992835579814823,0.0335294435687364944520539,0.0276543054949387120955429,9.77101707202962366238808,0.000150647326179926638279813,0.000444401405609185320456922,-0.00279580118620785956357055,7.02972086225684744675846,-0.047721370525680553709158,3.57132004896769617019459,1096.88395260156858057599,1108.79313402266848243016,1101.43144524886361068639,1111.13461161348914174596,647.730162889499979428365,-223.834183143684498418224,177.853383233721473288824,-637.881006796385804591409,156.160874896327953820219
45.3449999999999988631316,-2.39711188377243322733534,-0.840027770992596622967596,0.172924322018717629978468,0.00962979892472891514654254,-0.0653940373113219702849719,-0.00690513961133859110325117,-0.00582915495625754061931323,-0.0100174242055350495167465,-0.220441997448980742113633,0.975368836333339817024068,0.0407498722184937434143137,0.025663477258219720422705,9.7756545149709719311204,0.000196507155175437502828834,0.000471717130479013305698055,-0.0027223533965907899950798,7.0297210786382207103884,-0.0477182561946965511090468,3.57132680693464044097141,1098.36059585744169453392,1108.1865271058811686089,1102.17030282811469987791,1109.75398040931077048299,573.440136977731071965536,-281.25000027143124725626,424.896831092347383673768,-515.417139311112009636417,156.16021517794362694076
45.3475000000000036948222,-2.55258410558078852048425,-0.520936243536708754042763,0.261378557152027291010654,0.00127407397957708451094461,-0.0672684604522274520732594,-0.00487584945197034116959323,-0.00586700733811596278344247,-0.0101611649148793826286097,-0.220452162473966734035358,0.975359698597223268023981,0.0473737659196081795087707,0.0240222082573905287850025,9.77982213171145708940912,0.000260166475495618887848331,0.00049844426064844251332564,-0.00264946489027866266888211,7.02972113840203416401664,-0.0477171952556453907168255,3.5713396869293232427367,1099.75115328645870249602,1107.38688402131060684042,1103.55592940432643445092,1108.55752591693226349889,576.217172067232127119496,-393.831905993991767900297,743.174010608920070808381,-468.460942974285444506677,156.159563613372284862635
45.3500000000000014210855,-2.52586337519355508263175,-0.0804291960739184075279695,0.287404534379115950137873,-0.00901063809603871827824673,-0.0685272975302844838951799,-0.00256308688348055912012424,-0.0058823313112464029744908,-0.0102651241646446872435305,-0.220466071599305063477559,0.975349035347774506732321,0.053152025482011283630257,0.0226742499913716727411028,9.78350557937950604525668,0.00034029610520680292785195,0.000527994145814625944618248,-0.00258295190523277545455172,7.02972164015430234229598,-0.0477179901413730539472269,3.57135144114825608951946,1101.24168171777932911937,1106.21736757591020250402,1105.88617288116120107588,1107.41167569443814500119,508.535898595672335886775,-455.818785128718275245774,944.418569081194050340855,-360.820442952272799175262,156.158794819264613806808
45.3524999999999991473487,-2.33796563608329543981768,0.32542261625026808191663,0.240194333235743601173695,-0.0163953121413626147495624,-0.0686586377356935978477637,-0.00127418606488198635391662,-0.00588043613744280383587304,-0.0103251395578318333479118,-0.220487592103566831802652,0.975337075428691191447683,0.0579614582513369724914298,0.0214859344622157569237864,9.78670883176672035119736,0.000435492593001502771316719,0.000563622153369017090188131,-0.00252581991463614319304298,7.02972186793042563834888,-0.0477215090959414445226372,3.57135685569475169742759,1102.29383277943475150096,1105.10779009566908825946,1108.27802224972811018233,1106.7534237021725402883,373.053183311267446242709,-453.74745682651769129734,1017.86432506908340656082,-193.077053367816375839539,156.158167234709537751769
45.3550000000000039790393,-2.02641309370027133951453,0.754680782565765762015531,0.134889256141512869913157,-0.0215190926405978526225748,-0.0678128778343364269076687,-0.000731646144033875722549609,-0.00587003423829393373295504,-0.0103402914450305589977308,-0.220520743318828121859454,0.975323550160195118508,0.0617610591450372115041034,0.0202706564365594671395243,9.7894523483674102948271,0.000544414341223390481003253,0.000608081671317866755306636,-0.00247880294469418355901569,7.02972122291203493915646,-0.0477279505896497716066484,3.57135470833130108658793,1103.10694763433662046737,1103.94863029177645330492,1110.97549450650922153727,1106.44629042759856929479,292.095643191065107657778,-493.693472370771189616789,1218.32431483727737031586,-54.423157203490873712326,156.157555143751125115159
45.3575000000000017053026,-1.58133187803023878004183,1.26836894179678805194555,-0.0350692357533263637803245,-0.0254511138481688381496326,-0.0652311221655097750460328,-0.000787370908079124175518726,-0.00585962322782390254011231,-0.0103097900739017988430701,-0.220561593224446350625101,0.975309668293499298918903,0.0645174928156053706373996,0.0188438483118731694987424,9.79177234132219176387935,0.00066585563212193154061791,0.000663179538758816274415797,-0.00244139378695722901804754,7.02971924007157511482546,-0.0477363139496092062086241,3.57134630072271175293963,1103.75431099539082424599,1102.63932273381396953482,1114.36964382391761319013,1106.48130791615494672442,173.9035284942237069572,-446.630439100587523171271,1245.74580478619805035123,71.2831342437505384168617,156.156839925408462477208
45.3599999999999994315658,-1.19566136964185543156702,1.66924402374996549980324,-0.196371286508045472807282,-0.0276282532198137593948406,-0.0614774371841718472730953,-0.00121810413225101354418867,-0.00586245164957319587345497,-0.0102387103737010300152921,-0.220605125259478784816025,0.975296568098701910365378,0.0663369085502026334388859,0.0169568473108074671551471,9.79371428976752511630366,0.000798645514504003374567365,0.000729381415937843278693431,-0.0024129034317338605639125,7.02971541011105927054814,-0.0477459081853748509849389,3.57133397846137068398775,1103.97646527680694816809,1101.71547809627554670442,1117.2042235304345467739,1106.80270609881699783728,12.5096679485004305121265,-317.653054482135587477387,1113.46117071100138673501,170.011983067165033389756,156.156260432695688677995
45.3625000000000042632564,-0.829063895441602527469627,2.01121223627844436521173,-0.361210641084590167171342,-0.0290982543319347475296865,-0.0562929259936829767818622,-0.00183032011992683178377983,-0.00588296141334378446668962,-0.010139305662996348292304,-0.220647063710777469047741,0.975285044544762835805329,0.0674320747461421565738249,0.0145645354201405299865435,9.79533281881333550700219,0.000941485766414248731633052,0.000805418235930036485910322,-0.00239327827856655045435375,7.02971069039088192198506,-0.0477551603269171787147229,3.57132034915249674256188,1103.81685933513335839962,1101.05105746140247902076,1119.93694967747546797909,1107.33136783149120674352,-132.89091108465549950779,-217.847981697720996407952,1065.66904155697602618602,228.24635497097153802315,156.155697963116892879043
45.3650000000000019895197,-0.490704557572978650181739,2.28773153691919839403113,-0.517244291998153471467958,-0.0300304720610325807939045,-0.0504277405364690553546403,-0.0027170436709275497776106,-0.00592240318555300147840281,-0.0100382430394606158435833,-0.220679616159817876264171,0.975276455857406188165726,0.0682850332456442221662485,0.0117504570529330526484912,9.79668502271757724031431,0.00109272024495320912475249,0.000888159640404581705169784,-0.00238352472534630443340431,7.02970752738868132070138,-0.0477614824034219079273988,3.571309360909772578907,1103.3120107213833307469,1100.62623818778638451477,1122.5325687382221531152,1107.9439378736724393093,-286.092525813943268531148,-117.44556010441324644944,993.848741661889903298288,246.29037940721562449653,156.155149024041890015724
45.3674999999999997157829,-0.1893403433041243588697,2.47676502128303299699041,-0.647009806682309784875429,-0.0303967321668950490876071,-0.0440936149156165996254586,-0.00415899765868682057962102,-0.00597576265900891853005694,-0.00995237539199553787605534,-0.220699129025370033296838,0.975271320962321386360827,0.0691713566220692466224307,0.00868500757694942726594434,9.7978409095670233597275,0.00125033048312039353489045,0.000972864971198629806432845,-0.00238559366147302054361745,7.02970754400791975058382,-0.0477634316364640154617405,3.57130222786141837687524,1102.3863967060649429186,1100.46382966088094690349,1124.90619338578039787535,1108.56281972852616490854,-494.429327468464578032581,-29.5267581652565489491735,970.7876567976388741954,259.187115050471390986786,156.154615157066672281871
45.3699999999999974420462,0.135895309618292992048794,2.60487883434915579172753,-0.751347064070626013965182,-0.0302924157520412795641107,-0.0362946530053792834613624,-0.00643163132680317668754544,-0.00603430641336803047503068,-0.009888085088440235620455,-0.220703943922424039580932,0.975269832961149663042022,0.0701584633557352232990922,0.00557454141926050361632861,9.79888117899995059190132,0.00141196276805482428054472,0.0010537852325950866454185,-0.00240191183295123279056726,7.02971087855363485630278,-0.0477614726447699172728889,3.57129890796878646241908,1100.83986408404325629817,1100.47860439696023604483,1127.38650702220593302627,1109.23987344892361761595,-623.38659593883619436383,22.1841579830084079105745,822.685587953298863794771,235.815178292311742325182,156.153990102089892388904
45.3725000000000022737368,0.385109275319102939416638,2.63866670222985222338252,-0.781998845974017808835299,-0.0297947823294086450163221,-0.0299396996603320669771975,-0.00867826919017809783607476,-0.00609144799392757375910978,-0.00984837030379755000442099,-0.220691541121859902130353,0.975272415569819695058129,0.0712661394707812534399238,0.00257946020083116289711711,9.79989003488941001762669,0.00157500990076645842885572,0.0011248914636963643336881,-0.00243480263450851063672387,7.02971672331407759770627,-0.0477572110453076820180129,3.57129896575830052540823,1099.26946372636916748888,1100.57475045079604569764,1129.01962132554899653769,1109.74189561998832687095,-657.876882627288068761118,35.410293821069060982154,524.763396393659490968275,195.536023307013238081709,156.153480982198203719236
45.375,0.62215045449512262898395,2.61229712288548920895437,-0.743587650781020403911725,-0.0288879276641430225713858,-0.0238983388130911827973435,-0.0114080936006747193922628,-0.00613773289499136218139164,-0.0098254512364316717865087,-0.220667459733185467030125,0.975277811815248418803037,0.0723038025859429334119,-0.000119478157708269305814497,9.80095718646485458691586,0.00173678694867933835696561,0.00118050228174595875189901,-0.00248589989501460861473503,7.02972622617613041029472,-0.0477502698464689068202915,3.5713013806405449201975,1097.55047967090513338917,1100.65565586606567194394,1130.01032400417557255423,1110.21755356545918402844,-749.345338157535820755584,17.3699778237890960497225,246.708528069708989960418,218.728396481463931877443,156.152982799696417259838
45.3774999999999977262632,0.90014909178785740273554,2.52814266397438602851366,-0.619447809688669526195781,-0.0273707722975201211967899,-0.016725786219051273079339,-0.0147000506978426509485658,-0.00616984842081690163656527,-0.00981491842861152707921946,-0.220640728027903798569298,0.975283930087200823244586,0.0731791783623502722910814,-0.00243482262247050884607091,9.8021656758451527480247,0.00189467161436601217242015,0.00121585904709860660559417,-0.00255572719758274643012119,7.02973911672374907055882,-0.047740346252936737003747,3.57130458533062578041495,1095.52273703558489614807,1100.6616003399149121833,1130.25316396589641954051,1110.83553760239465191262,-705.487632832776512259443,-14.6273013920488406114373,-83.2157544648027283074043,245.934274230159331864343,156.152396406250403515514
45.3800000000000025579538,1.12584691465601949289521,2.42410149445386879918374,-0.466545635003207781466017,-0.0256882982342735710634685,-0.0107423568430144045909858,-0.0167651998550649404540192,-0.00618496992854680478074458,-0.0098085767106523297914622,-0.220620568544937029065167,0.975288703098550202597039,0.0737359247593472599824338,-0.00429843871112012276824998,9.80359334892052736165624,0.00204637565884166440152714,0.00122768578958687055689702,-0.00264343338256619111992229,7.02975371592562581213315,-0.0477278476876401985817822,3.57130585345481987857852,1094.02304150673944604932,1100.58251935910539032193,1129.59424523185134603409,1111.4472249366106098023,-525.084739313710656460898,-39.8109975955572821249007,-430.865628410908925616241,273.75946508418201119639,156.151916545717568851614
45.3825000000000002842171,1.3341013235293204264309,2.29584741644952528005774,-0.296449241737685276198988,-0.0232832956672631812000684,-0.00514423559439154166883501,-0.0176057393668808889741761,-0.00618537363115160415683036,-0.00980580031510343633205373,-0.220612155472020426971724,0.975290900578825614708478,0.0739891933842103388663247,-0.00570472020185455730434398,9.8053027827992522702516,0.00219001986147928642476024,0.00121469932025189126904852,-0.00274687398424131425447858,7.02976950562856028881242,-0.0477150383506274797240643,3.57130528826654414231712,1092.89731333901499965577,1100.4625453519370239519,1128.09883582384077271854,1112.20433492781626227952,-380.460320851971516731282,-41.529648711404234973088,-801.150119599243339507666,367.148999123780527042982,156.151445162627567242453
45.3849999999999980104803,1.53763190903636348672023,2.12716194772485156505581,-0.119222908588486484204871,-0.0193192582543090969615651,0.000787426944297926019109002,-0.0171483016503096198646094,-0.0061757745283759291413106,-0.00981866042481225123617072,-0.2206189293108626048312,0.975289560760712492815117,0.0742110963389858713235014,-0.00663991857042758870655064,9.80733628789718636653561,0.00232416546661233860970874,0.00117787651560462411012842,-0.00286285396322319115117172,7.02978581124182788641974,-0.0477043194448132368279403,3.57130478988498856196543,1092.12073990248131849512,1100.37487111554855800932,1125.58849463385877243127,1113.2829699322278429463,-182.088386048096765534865,-5.67367058951895941731891,-987.689744368430524446012,416.661457313753658127098,156.150888797899966675686
45.3875000000000028421709,1.64469029043494718855811,1.98148484522390222473121,-0.0215345374600440404855295,-0.0150283563764269951362751,0.00522006381523334051647511,-0.0157992699105356758371155,-0.00615793213303983053008572,-0.00984845703343901861248622,-0.220642958120934706833793,0.975284173970548784460277,0.0744570447133408586104508,-0.00708363066793142592825205,9.80972583394225239317166,0.00244804393005050796930377,0.0011203853117961533499003,-0.00298712488946711136536538,7.02980054876216176040771,-0.0476976394326397712397636,3.57130477306466476150604,1091.98687140877404999628,1100.43417699898941464198,1123.16038710199609340634,1114.28764221438609638426,41.4512853460352630463603,68.7355225621662100365938,-977.555695450291864290193,408.263672632456632527465,156.15043267429385309697
45.3900000000000005684342,1.66159017611619486132213,1.83235533572421993575574,0.0114929237540997430944145,-0.0098736140661765704751307,0.00929177660251180419226369,-0.014142142113996947205834,-0.00613145614399275735995065,-0.00988271648029689919745522,-0.220675440747697848564712,0.975276843865369391650688,0.0745091644704698463641535,-0.00704326395623014467339829,9.81249192247311086134687,0.00256168791828897826970413,0.00104710891729771927299852,-0.00311432936713100039574642,7.02981386161965193792867,-0.0476960129277243516376927,3.57130279857213395189319,1092.32799632921160082333,1100.71854872835956484778,1120.70071615660481256782,1115.32428829539117032255,192.339665443698635272085,159.946183786369090285007,-950.891579605969013755384,406.410976051080467641441,156.149984039936100543855
45.3924999999999982946974,1.59509529067770716714847,1.67594227786184624129362,0.0012377241481920191450844,-0.00455092432286827511256355,0.0131635270272067780167324,-0.0130984611754332291866376,-0.00609113892611443889096856,-0.00991153761128815702363681,-0.220712969015516818904743,0.975268467903537383811852,0.074177264792718577979258,-0.00642935203078924544239925,9.81563466599653899891109,0.00266586031455941186926739,0.00096400673341021753896124,-0.00323818467512266205607374,7.02982557218745629512568,-0.0476990528601015581489087,3.57129715304308170686909,1092.94856973599166849453,1101.23390791792053278186,1118.40592920397057241644,1116.3196970946396504587,275.695458745572011594049,266.783618137969767758477,-849.824573608313585282303,375.205699301422043845378,156.149541245897694352607
45.395000000000003126388,1.43737368386373787210175,1.49958034239554871547284,-0.0287807090907553214664816,2.95921151073346311993761e-05,0.0169710460041190766555808,-0.0135875810561595436465332,-0.00603775660366598267841942,-0.00992402063977980419817726,-0.220756498579723764441596,0.975258941844205473614693,0.0732758130534651441756466,-0.00527988382665485478373313,9.81913146920307333687106,0.00276209493393067204158875,0.000877445890545970976805157,-0.00335181404384429912010623,7.02983434919920924244252,-0.0477057622960055868754914,3.57128862887139053583496,1093.70647362294016602391,1102.05246681905009609181,1116.45159328856107094907,1117.2003167918992403429,309.270149951931728082855,429.005585408420927251427,-767.026024467003026074963,353.175319861294440215715,156.149104856805706731393
45.3975000000000008526513,1.17744380952902671921834,1.24829552562128065495983,-0.0421040171804322460591408,0.00383040065082132594881381,0.0214631533050763483039258,-0.0154178259235245983943541,-0.00597925202297236706855399,-0.00990749085290026573757949,-0.220805217515341850598176,0.97524853973107750171323,0.0716125552118670460899352,-0.00378947129359036294360408,9.82293689396946945180389,0.00285260123533854874355864,0.000793476382765876276509376,-0.00344819436137171544953794,7.02983865485209502566022,-0.0477156348341801622714442,3.57127735290121073319369,1094.49492048575211811112,1103.37893584496373478032,1114.57079908163359505124,1118.08557369394702618592,233.796767965699274327562,536.40332911999064435804,-614.574594586351508951338,296.455042262047243184497,156.148587531575202547174
45.3999999999999985789145,0.934512394329848228302637,0.997350420007271032396545,-0.0145271020606782905876253,0.00544073165760341950075718,0.024896767420079516514031,-0.0170117093297355165271156,-0.00592477271511870125925148,-0.00986844593789927386484617,-0.220851692443592317882661,0.975238822382674230837551,0.069363108307889775883126,-0.00210599903342675864870159,9.82697509273907066074116,0.00293981625738768716227245,0.000717065342118684096936465,-0.00352066580685446830004115,7.0298399002176061856062,-0.0477267493689411195778582,3.571265624221973133956,1094.87545746276759928151,1104.7344834646476101625,1113.37872031563210839522,1118.68259200320812851714,69.7644246873194333602441,576.780835477280106715625,-411.381108009362492339278,213.125368100536547899537,156.148160765656456305805
45.4025000000000034106051,0.695607650147136880036669,0.70320813376524693438796,0.0518201628059234281620249,0.00618621342187016236974229,0.0275309934842250005060382,-0.0178866139082801030302239,-0.00587459423969670033183199,-0.00982388755335842148164183,-0.220889015943223687710173,0.975231176288053225320596,0.0668620970946793846678702,-0.000171928007453192588371849,9.83114857842075373639545,0.00302606881505435888757294,0.000651599078016022455021872,-0.00356307401870828346218678,7.02984126302749512404944,-0.0477361353234273672052623,3.57125540162653898335066,1094.84374260918889376626,1106.26284002235161096905,1112.51389354158573041786,1119.15120053445025405381,-109.966258293059709671979,683.196063019855273523717,-325.211003160863640459866,178.41251180425356892556,156.147737173439310254253
45.4050000000000011368684,0.428069822031563296249601,0.314559065448406893761302,0.148971465561126698018413,0.00717768172744570435994671,0.0294617621004662488815029,-0.0177189549279913836909994,-0.00582873034782489200106292,-0.00978179920605571143199519,-0.220916236650761849125146,0.975225734266857435805775,0.0642669595814350791407321,0.00202883137319688489075276,9.83534789237089412949899,0.00311344698186484568694365,0.000598968519130378728235198,-0.00356956364516800711550459,7.02984446566432641390065,-0.0477418143424168592292567,3.57124646918345289847707,1094.32562617130201942928,1108.15046377974863389682,1111.75266529982695828949,1119.57465456222985267232,-252.02925369726656867897,677.318687763388311395829,-248.098873748947966078049,130.215733832510721867948,156.147230738890215206993
45.4074999999999988631316,0.219870298636061445307632,-0.0213985021401302856480786,0.217420287459227784543359,0.00829974227363441258153998,0.0298886492951360265013516,-0.0165373213158828413771317,-0.00579091243777783357127298,-0.00973918459065304525923423,-0.220935717367571976543772,0.975221970106261215605059,0.0615375508269040971676134,0.00438635360185921086006999,9.83945491019087192796633,0.00320371928945564592161599,0.000559998708496386695190883,-0.00353438844067084775510401,7.02984873301012580526503,-0.0477442498770335038704715,3.571235614258889246031,1093.5835963407037070283,1109.64943346116547218116,1111.27339917284211878723,1119.80227920361221549683,-324.521932160785070209386,559.070239670459613989806,-174.148194117198755748177,60.2539854670941252834382,156.146808811944737271915
45.4100000000000036948222,0.0239926773294204531694618,-0.345337863138803768947582,0.246152245186197382587068,0.0092094532020198377475495,0.0288924792396032907582093,-0.0145638888849660801116936,-0.00576418938403705158335377,-0.00969127771993487548141122,-0.220949148626645441861882,0.975219538966607957242161,0.0585940516080232787210491,0.0067892429654658054127836,9.84334399707872265139486,0.00329820561180819895458205,0.000534925809200711434819586,-0.00345205236999010555212775,7.02985289775928379185643,-0.0477452101834074521535811,3.57121909823181882259746,1092.7030165104972638801,1110.94581497810236214718,1110.88192432924051900045,1119.87592448956547741545,-370.675890618660105246818,505.502721886628592073976,-161.438224212005650315405,-7.43035744530590847034546,156.146385206877027940209
45.4125000000000014210855,-0.190279901754556723947331,-0.696840351512202804684648,0.226537351910337914073779,0.00940458433434191061472962,0.0264995711158289605491323,-0.0121807974919700828797531,-0.00574867478083032103219896,-0.00963567665198952934269006,-0.220959263683353668294984,0.975217859085680149888731,0.0553878364329750960681764,0.0091878954825055925148547,9.84688593062661254862178,0.0033976148655445880149284,0.000523766616806183330987134,-0.00331793092413296348067164,7.0298566032807681125405,-0.0477454550108755010340289,3.57119406800802341450662,1091.73021688760945835384,1112.17694707059990832931,1110.46620805178167756821,1119.76512741638566694746,-311.609384205495757669269,394.288048270613501244952,-144.070400822551221153844,-72.9828363723963633447056,156.145873083660120528293
45.4149999999999991473487,-0.339669035098375038383978,-0.950733784727063713226869,0.179190357858941856639134,0.00862295517393519075910469,0.0241236775898430455544741,-0.010984057947524153084351,-0.00575216938563671235234986,-0.00957817936359920199529405,-0.220966717100649023830528,0.975216695036082326097926,0.0520611594114612219463822,0.0114163833606357248418028,9.84994902259504456765171,0.00350183747035832894020646,0.00052653465559198602344293,-0.00312938696856111028127279,7.02986048420491638211161,-0.0477452668222372936246423,3.57116199311382942482851,1091.14496958947120219818,1112.91725521945363652776,1110.16157232512841801508,1119.51101030770382749324,-162.50762776963583178258,244.92625113535925152064,-106.69336386758003243358,-127.884458992346537797857,156.145441987691071972222
45.4175000000000039790393,-0.442909378223073135760757,-1.16453458336182236187994,0.134238422410035473930634,0.00701241049863297188915467,0.0217810559931190701743464,-0.0110057823472541980308614,-0.00578547445372866279977853,-0.00952636961113853888982739,-0.220971266905393953772219,0.975215986426485548221876,0.04880540005438543937899,0.0132561288912363128833505,9.85241027510663514021871,0.00360990535455040298384866,0.000543320246947452309936588,-0.0028868916525090042302093,7.0298662297953189437294,-0.0477444023278419463207634,3.57112812729643280817982,1090.91767874876086352742,1113.4015783262773311435,1109.93274123244350448658,1119.1257051214236071246,-23.7726921221898273017814,163.617858379173384264504,-70.6703619860129492735723,-166.357534066043115217326,156.145005245388119874406
45.4200000000000017053026,-0.500792779598345005886983,-1.34732220765819454832979,0.119905122499731078833385,0.00509364712321127080518757,0.0194116072471436640345388,-0.0117947007171752132892451,-0.00585826708449611703588555,-0.00948235064791861856359212,-0.220972717271371854597106,0.975215729377063578198204,0.0457049652748217904996153,0.0144850636377129859955204,9.85416670279405870758183,0.00372009014918247638351034,0.000574408191440739339383992,-0.00259471675010209757231139,7.02987330415792222026994,-0.0477437138721529263918342,3.57109520755556397730857,1091.02610612886019225698,1113.73534451134992195875,1109.80822051519817250664,1118.67922263737318644417,122.550670157600094967165,114.354068880688245712918,-15.2462256538140046302487,-179.905062190600716576228,156.144563132194093668659
45.4224999999999994315658,-0.506315777889381868348551,-1.48934313043394395137398,0.165856464435238659671512,0.00328900181418734227634104,0.0167262271507703334794126,-0.0132018289148074612071593,-0.00596902602008512854492306,-0.00944956188702068128337785,-0.220970314210090418294286,0.975216103921575316881842,0.0428256041068574289099047,0.0151021733720255457722459,9.85514132941500164974968,0.00383000656473579713726108,0.000620319998104174540574929,-0.00226120580197414731971062,7.02988000325511208643547,-0.0477443579247130711618041,3.57106321022599448866686,1091.53043209954830672359,1113.97334867068025232584,1109.85651010417450379464,1118.22617981047142166062,301.511829397696033083776,99.4380507924634571281786,66.6776036452233711315785,-186.038236413101316202301,156.144113922485701095866
45.4250000000000042632564,-0.468828873490013564584444,-1.59526891046035657062419,0.292394230285910716737874,0.00140558103666507975756939,0.0127616796724439943155893,-0.0147242462502267350277219,-0.00610764182703104393373783,-0.00943790019008740842243466,-0.220962160002413476878047,0.975217538973783493183589,0.0403252666928570757676198,0.0153008492674781976239373,9.85528659891751779298374,0.00393668087595889972657437,0.000681772366798767876817922,-0.00189878647174594999275099,7.02988675158221187899699,-0.0477474483461777926551761,3.5710350350203006186689,1092.53366527584944378759,1114.23253476531249361869,1110.14160853342445989256,1117.74903145530720394163,421.153778470045949688938,94.7946237578859580708013,139.904385349310643960052,-157.648696099805704307073,156.143566139336144260596
45.4275000000000019895197,-0.419829808455607078609972,-1.60933761126177721223485,0.433356903251841563129432,0.000134165298702827934847898,0.00853091379876079643207465,-0.0145319223140415541145609,-0.00626013227332983517720022,-0.00946994363747099068828739,-0.220947691318785555125714,0.975220049096887975359493,0.0385950957352091394980675,0.0154071466603884904555954,9.8545858630931402188935,0.00403664632039037879485122,0.000759486844948211955487472,-0.00152370934626041990359036,7.02989517181654210986608,-0.0477534071287406200467807,3.57101741980239451024204,1093.63620099189961365482,1114.44732178946992462443,1110.55603203092141484376,1117.43793632997198983503,477.265377092705648465198,79.4679498649470303917042,192.891105746269118981218,-105.652956774798127526083,156.143102179890234992854
45.4299999999999997157829,-0.380022762467213337522765,-1.52216328141797196948914,0.561977764812299218633029,-0.000493264477391442768619556,0.00351670592410541476419139,-0.0121441774249518314593432,-0.00639915486830325112854734,-0.00955603703753495417605457,-0.220936422502950174928671,0.975221542843103583741993,0.0377395972642726729162632,0.0159567745046258688268459,9.85306907553623467777015,0.00412630867102343774216466,0.000853967458376687481996781,-0.00115485325182154404191626,7.02990657528456530656058,-0.0477619135794155186269805,3.57101527076466362942142,1094.91999216131080174819,1114.62987451463686738862,1111.1060640621549282514,1117.220766671433693773,580.433866635012577717134,56.2936228594538050629126,257.851933782338051059924,-78.529273094889987305578,156.142630311224422712257
45.4324999999999974420462,-0.373546206238909717090024,-1.29020073552880298883849,0.650666410657542382267593,-0.000554637932883426617615419,-0.00231468044335368444350265,-0.00807075064818211715400587,-0.00649632277138134824057136,-0.00968697160483728177127194,-0.220940211327142393971101,0.975219563175792503173511,0.0374891259412896138414339,0.0174253383045478577040299,9.85081357243950073154792,0.00420237179895736976537046,0.000965219394997356345579365,-0.000811869652414008670035517,7.02992040470035561838813,-0.0477731612703071253922538,3.57102896098010136327616,1096.53837032507203730347,1114.72878990376693764119,1111.84529169983193241933,1117.04528996449789701728,584.803549692624983435962,3.51202524748080069372236,272.99874753861917042741,-53.7156680305268139363761,156.142054597067385657283
45.4350000000000022737368,-0.416693337954450182536448,-1.00276338654028362995518,0.654510347410242832033589,-0.000416482952438894816343806,-0.00634689667496618828423927,-0.00498209665072750322589723,-0.00654399237857283214842008,-0.00984727217036569096864085,-0.22096761904113068619715,0.975212283979707827974437,0.0375496455638095749662853,0.0198674332166086931028559,9.84793184717376313130899,0.00426228049090711640783935,0.00109242699837984740159069,-0.000513114792391930561038516,7.02993485126873185464547,-0.0477860624100237552092096,3.57105427653769247342552,1097.84400990977542278415,1114.64743464087428037601,1112.47105779984872242494,1116.95218833128092228435,487.262337512653118665185,-76.6348054025519473952954,241.397258415840241241312,-26.7283640253799283925673,156.141566554308127479089
45.4375,-0.511037842260069208322193,-0.654957604175574026328377,0.596544634145633301258727,-0.000535200425310716548440992,-0.00902797735928710133601616,-0.00295156309945862225727065,-0.00655442273244488931432938,-0.0100181532379734483662048,-0.221016902262068992701671,0.975200064191826254678119,0.0376550290003211385325699,0.022945966953790045139705,9.84456634085138126977199,0.0043045972656151638285893,0.00123355330349906189973952,-0.000273724844979452059962749,7.02994899899572089907451,-0.0477981624551812936396722,3.57108623176304629254219,1098.97468201263654918876,1114.34561587675398186548,1113.05227799191175108717,1116.91164814437092900334,431.822239642480610655184,-185.427838392784394727641,236.51572129605168015587,-0.679898372846473586506022,156.141069278250057550395
45.4399999999999977262632,-0.662690450167251698943005,-0.231971332958164827564573,0.490037814087778078597779,-0.00141863621303232574979991,-0.00990800629466187868232829,-0.00171488941239575408762019,-0.00654936221132699104147123,-0.0101746304248766118033531,-0.221077736397741003715467,0.975185144282685878458494,0.0374655691696816339764098,0.026122130884806402106868,9.84088653703117977045167,0.00432909916899570489795535,0.00138520149522301165394278,-0.000104258461465382226977978,7.02996194635474846990064,-0.0478071442882994912526584,3.57112112267550863009546,1100.00312110798586218152,1113.72029544891120167449,1113.65363640632790520613,1116.94878883941669300839,311.39069949656442304331,-267.682287187244071446912,199.667488992315782070364,32.8862325020340904302429,156.140460914025766214763
45.4425000000000025579538,-0.794356369614764745712421,0.0754556647792860718526597,0.397591556027669323913898,-0.00302147320937917176694731,-0.00859667426390348793363572,-0.00132757141736718664755401,-0.00654355071330446104449496,-0.0103046455691891466338594,-0.221131989076297691410034,0.975171447685690306883544,0.0368623453848520021836066,0.0290570371618808012681434,9.83707564969484948846912,0.00433661052363783217078463,0.00154278705809754836456027,-1.0158247856129287250938e-05,7.02997470420011794089987,-0.0478120447820593943988321,3.57115817270326996180074,1100.53163551012016796449,1113.00720444081707682926,1114.05061543687384073564,1117.07607930688118358376,142.743907243784377669726,-313.187922372775403800915,132.183018266756022285335,73.8907082033696838152537,156.139943407925244400758
45.4450000000000002842171,-0.893246500359183182027323,0.292315891583805054221301,0.325590715678158393320274,-0.00562128731805743020455424,-0.00616606809988833656083207,-0.00108011516455688329207963,-0.00654015170604662146591757,-0.0104002396345205735950223,-0.221165475628334218249904,0.975162206943167353401236,0.0357562741285650242950567,0.0316639516773016549411324,9.83332505416584190527374,0.00432869991551446120503499,0.00170106459523744393130817,8.64440246598213864973742e-06,7.02998726669097173669343,-0.0478128408738095964092274,3.57119329252167538868434,1100.71684064420514914673,1112.1543558370465234475,1114.31455149766202339379,1117.31824238043373043183,18.1489920679888641075195,-391.903425461798065043695,80.7677959694326688122601,129.110648352370048996818,156.139413794641228605542
45.4474999999999980104803,-0.934580102166527315610267,0.433572130865207627792302,0.277464056517004398205728,-0.00950175420007180748793729,-0.00336521549326085703257583,-0.000782145889697813075959465,-0.00653606592713976749381422,-0.0104580787997349509976797,-0.221175798573099879895665,0.975157954516688629809096,0.0341196117950349764313955,0.0340096203596935153790071,9.82982253183370602300784,0.00430734614268353348254248,0.00185471298117342560732301,-4.23424236603295986902835e-05,7.0299995737229448167227,-0.0478091462205913753091835,3.57122202445366854206554,1100.62238047046002975549,1111.04768731350986854522,1114.45445441672063680016,1117.72163254864244663622,-67.9581224829342147586431,-410.249962112647381218267,21.0737238090024625591923,158.967687513914455621489,156.138762663891839110875
45.4500000000000028421709,-0.88728167249769240854107,0.465678819766417007031123,0.272420470060040109672173,-0.0128008304001765386287426,-0.00162738180723096827716423,-0.000542877865130214957122001,-0.00652649651517552085305818,-0.0104813564440937312394198,-0.221162793509962818383485,0.975158605197751326976174,0.0320406420098261757178904,0.0362313037932756806802637,9.82674073536631453862356,0.00427463905975193885627972,0.00199876757774755881361117,-0.000152820791427626630817199,7.03001168413868260387289,-0.047802455199109937511448,3.5712415615388835021804,1100.37705003179030427418,1110.10310602648223721189,1114.41992011670708961901,1118.11308081800370928249,-107.462416569560033963171,-375.728757777859414090926,-39.6257984600904009653277,155.959045528481766496043,156.138205603711156754798
45.4525000000000005684342,-0.752682394329506898600357,0.442694229922800053245169,0.300231982396172658589251,-0.015604418777761636452639,-0.000619601588953469332998747,-0.000228851647381084688168129,-0.00650949210772704036503944,-0.0104790384193418247005258,-0.221127092947866865646489,0.975163779392105634080679,0.0297277429801378612062024,0.0384441012416440880405943,9.82422815510682845285828,0.0042324833407771890111948,0.00212904305690910303217045,-0.000308838849408972330751882,7.0300240239289353283425,-0.0477943016412028659489764,3.57125020267349313485283,1100.08506838761195467669,1109.16904352461961025256,1114.25632542442008343642,1118.50142777628525436739,-109.121140068836325554003,-369.791047000007722544979,-76.1691319685052548038584,146.295449890018318228613,156.137631270619920087483
45.4549999999999982946974,-0.556413665278491120780302,0.40347790000585009861922,0.347724299999756680801255,-0.0176979176138265630047197,-0.000111229825997674502849159,0.000265269834560835908888327,-0.00648366443657191759974978,-0.0104546770259384552703708,-0.22107694447445458418855,0.975171421756761080956721,0.02728417801604551828909,0.0407349887859847353821507,9.82240734737615994731641,0.00418237774208421887039977,0.00224247557328434128989803,-0.000494163492049235495220949,7.03003681587934448060651,-0.0477849153320958688895281,3.57124845160006376687534,1099.83144433144661888946,1108.25415079148388031172,1114.03907445686490973458,1118.84455806745313566353,-81.5018808388723812186072,-359.582652295692014376982,-80.0816308789807891344026,120.10606190245420066276,156.137040487323105253381
45.457500000000003126388,-0.309076657756248485142692,0.375886161671676932716224,0.405041063925996036587662,-0.0188273969110897762546664,8.82448675536897801695638e-06,0.00114337338511649776531809,-0.00644528117754455086296783,-0.0104032285245030092085683,-0.221020758344530998673605,0.97517958937315918355182,0.024634058074761377987727,0.0431999639414659616920567,9.82137175614183099980892,0.00412536880262384057088676,0.00233724205017570929934778,-0.000691818341372227654795246,7.03005009631339206066514,-0.0477745248709175035495278,3.57123762228843499855202,1099.67755898341738429735,1107.37113026314023045416,1113.85591727002497464127,1119.10195808579783260939,-40.429805172131871415786,-375.431382167779531755514,-45.2249406440155894415511,94.1094676820258086991089,156.136426776157009044255
45.4600000000000008526513,0.0110930654749848631168696,0.383227992972505648872072,0.464786356265027067458107,-0.0192846515867183820880371,4.6704070941739609832636e-06,0.00279446242593568748915911,-0.00638742061434740410197364,-0.0103267196118679242117233,-0.220968898208323799581265,0.975185944498884293984986,0.0218183232782685754269636,0.0460252601371149289155582,9.8211767242798426735817,0.00406201253981032951029251,0.00241293905448731896626335,-0.000885647914444497269363665,7.03006528397269647712164,-0.0477626709029322915611715,3.57122061180918359823977,1099.62929530558585611288,1106.37699388064402228338,1113.81294975364471611101,1119.3151054058635054389,4.01865836884464311395959,-345.350705870483011494798,29.0647633543167707159682,69.5912406946896169301908,156.135659166020900556759
45.4624999999999985789145,0.270366510428966699830511,0.43070826252329791339335,0.494429192606254563902013,-0.0191539826763046511226563,9.76105045349482937323479e-05,0.00463361241181014377188419,-0.00631833835603571800088041,-0.0102280059765207011895916,-0.220922030515498801772623,0.975190422500984754883291,0.0189546158783018281468458,0.0491023202469846806184073,9.82183911704553835875231,0.00399251011216017297200676,0.00247073052035526796385567,-0.0010613168743704444029613,7.03008248619279463298426,-0.0477507938891443758921973,3.57119907835941541307534,1099.69765227526158923865,1105.64437673378938598034,1114.00124108679642631614,1119.4499142892709642183,48.3587676487994002627602,-258.932187876466173293011,127.924169064206623147584,59.6412534204923332481485,156.134989663896476486116
45.4650000000000034106051,0.488065524829838837117535,0.515411115395223218271781,0.496830024636243594571283,-0.0183976202784302579618103,0.000549351318632967130888012,0.00655112829575498455125793,-0.00625237165417528821531601,-0.0101171415149076075051804,-0.220878357856679585768944,0.975193697776889134587464,0.016319265262078053169148,0.0522276148366273285095218,9.82333831708616678213275,0.00391688283091356104909098,0.0025135887543283256910509,-0.0012071699853152231991793,7.03010143841848389456572,-0.0477410472898000814989672,3.57117420578964006594447,1099.87108914382997681969,1105.08233294126102919108,1114.45257059896607643168,1119.61331167296611965867,102.09574918343840010948,-188.707568222292906057191,247.291897405248988661697,97.1570661591116220279218,156.134284038211831102672
45.4675000000000011368684,0.658588531834987334079301,0.637143474854236613325043,0.475811243010689943755409,-0.0163124170170505580768072,0.00177559053445583946151398,0.00816678374498381459689611,-0.00620293555042166801227754,-0.0100041153577860343626416,-0.220839287805843970113884,0.975196148326082257185021,0.0141770742535091143210479,0.0552028635843732004562234,9.82562372734439470889356,0.0038352934529101568965348,0.00254628564772836586335703,-0.00131473062233236777894552,7.03012116838495337844961,-0.0477345380120082277142224,3.5711483599824429546743,1100.20813102117904236366,1104.70083889267743870732,1115.23770057382330378459,1119.93569962006677087629,147.789103607281305130527,-78.2514913258439719356829,308.260234738380177077488,150.360665712878812882991,156.133388901406817694806
45.4699999999999988631316,0.695247037245314669640095,0.731343565846842902367086,0.450373808885746018670915,-0.013435993286226194029509,0.00348637315395481164892466,0.00877660604461535064080291,-0.00618495114909611322373539,-0.0098959395377605716137559,-0.220804086019660367190554,0.975199191945250842827875,0.0127355529518937693467251,0.0577717621351573409893554,9.82862014199732136887633,0.00374844826478376797265768,0.00257505217652333239300444,-0.00137893115962998253319627,7.03014016247865214381818,-0.047731528815306359381232,3.57112486989479194221531,1100.61003466186571131402,1104.69107548463216517121,1115.99387177265657555836,1120.36511500152982989675,187.258058973288513016087,69.8488718072992043062186,292.286694925119775234634,212.335104792855929645157,156.132597653122275005444
45.4725000000000036948222,0.60043496224024539564823,0.787329531480428612688627,0.428373247880461549552678,-0.00968942113275100304348175,0.00581284843616901303331446,0.00899238063495639942945825,-0.00620288559636115056222794,-0.00979714410482086968390281,-0.220775135557405383091023,0.97520428476098852677012,0.012101393680027189292403,0.0598503482733973093954383,9.83223416305419917193831,0.00365784702682260846537399,0.00260710561874436929502563,-0.00139799964758974097633892,7.03015745274523773389319,-0.0477316733218519917425482,3.57110730072765525378031,1101.14442131604596397665,1105.05008325171411343035,1116.69913404844965043594,1120.99737514403159366339,259.339379966062665516802,243.174272910312737394634,264.410790315015447049518,323.760809443017819830857,156.131753660758420210186
45.4750000000000014210855,0.345550979814792547095692,0.781004202562278315724598,0.405671884529485771153645,-0.00564144384257146691563634,0.00879210111921127634992956,0.00946137546293655123941235,-0.00625151930829991216154173,-0.00971919210667582418594623,-0.220753939176769276020451,0.975212555792674851140589,0.0124638469452113542779159,0.061551605314190814544073,9.83635567576141234269471,0.00356588887376950436358669,0.00265004363701968953179189,-0.00137289192423957115939126,7.03017185084064877287346,-0.0477349249011212173332552,3.57109728209837129497828,1101.9067315616966880043,1105.90694684918435086729,1117.31592572423232923029,1121.98391904874574720452,287.227481237539223002386,375.960147570209244349826,171.398683540902680988438,391.958442596334805330116,156.130673632724494837021
45.4774999999999991473487,0.0547713984926676000775103,0.700914834062816183291034,0.379491626645840296472301,-0.00425247441767620960179075,0.0112981634258227572192856,0.0103948453896115389910593,-0.00631613537135174759468148,-0.00967111502204313737418584,-0.220742199779377451518414,0.975221760612165033954568,0.0139157001978366112737717,0.0631417640226390741720053,9.84086668410949272356447,0.00347584431981012896908934,0.00271126572340172787220491,-0.00130619102452056825083848,7.03018317358367550440335,-0.047740058760078217525713,3.5710956198428154273472,1102.5805587222323538299,1106.92988398956345008628,1117.5561274661533843755,1122.95716735701148536464,254.312463474304365718126,452.22972851388078652235,33.9147001288264817731033,404.220303281474684808927,156.129713266897255152799
45.4800000000000039790393,-0.244647224905078369827649,0.538184090419139726790831,0.328189847799585709964276,-0.00567219302386591343878575,0.013944238496012896846854,0.0115024492882217256595201,-0.0063814494723144262605663,-0.00963816048877949756168437,-0.220741303627815188548311,0.975229821170946808983615,0.0160806092449432003199661,0.0647775618720835277830616,9.8456537984925684980908,0.00339171749037576152063789,0.00279744575848828213107677,-0.0012007455554138841795353,7.03019060049164590253667,-0.0477460983745730538352348,3.57109906825979050992714,1103.17829387906886040582,1108.16809549175491156348,1117.48549922487654839642,1124.00502056515415461035,206.642728653226868118509,510.195536221465772541706,-73.2119598262295880886086,415.397186082842665655335,156.128685429743114809753
45.4825000000000017053026,-0.49732710093774051829385,0.314881899312519752953676,0.244311132980149309235074,-0.00844172571748388021750653,0.0162152417361735266820855,0.0123789540600908413298109,-0.00643579275835783753967334,-0.00959629279329030256129318,-0.220745998528707576546992,0.975236864281233351015032,0.0184088904425504518158618,0.0664896904134312793921424,9.85060712962958362481913,0.00331789461345414257026354,0.00291402305891828861117432,-0.00105885185113859209109222,7.03019469992375256595096,-0.0477531811964337915554779,3.57110110789963375310663,1103.61377236549901681428,1109.48086167067208407389,1117.19006766702204913599,1125.03415328742676138063,115.489363230713465213739,516.45456790176149297622,-154.750510283797439115006,385.962698474655496738706,156.127598260455073386765
45.4849999999999994315658,-0.651261419090592985625676,0.0461713108874309344220599,0.110286966457602983449071,-0.0114700326313863006783,0.0172760916624446793365966,0.0130692324856700754082128,-0.0064666936736237166233332,-0.00953439445333014237715652,-0.220753571573269857797328,0.97524284335788791189259,0.0205844322901976295447923,0.0683690265879935143988888,9.85561614373198047189817,0.00325866285140491819885544,0.00306484959372592229154275,-0.000882193784327226513189424,7.03019782037199991719945,-0.0477607109340763696936349,3.571098400535478223361,1103.75574069522190256976,1110.75036833126137025829,1116.71174667345826492237,1125.93483405752567705349,-16.737705648475262876218,518.280811250277565704891,-222.635749310734155415048,340.734556293371781521273,156.126435740356384940242
45.4875000000000042632564,-0.701487850401539492217751,-0.275622831172875171201753,-0.117885951298696473044103,-0.014866760863970276962398,0.0166882102988683347910559,0.0138871197067258964064074,-0.00646670413783685237713028,-0.00945040885275538408705209,-0.220767543781025671334461,0.975246586656707936668909,0.02247694714123033010722,0.0704426335450700213947073,9.86057400036109932273121,0.00321795766829663463376443,0.00325195952894690668705246,-0.00067222850472965214527199,7.03020086742134253654513,-0.047767287678813677431755,3.57109109426751825111523,1103.5300838372565976897,1112.07226572692479749094,1116.07688892046780892997,1126.73782606889449198206,-144.366976093095928490584,434.810853536924184936652,-218.447694166322548880999,232.353429020048963593581,156.124949059759956071503
45.4900000000000019895197,-0.636368428703920185895981,-0.50138668551098641845698,-0.36420965380060876803725,-0.0172911158661331297581309,0.0146439174897458977003817,0.0144518527273851532521931,-0.00643083209097678430710143,-0.00935197651607115078287169,-0.220796550934764745921512,0.975245941341461919371625,0.0241448641062446123228824,0.0727300737442630185203285,9.86538071679873951325135,0.00319925862157786769848777,0.00347549663944170944551715,-0.000430919808090147083041999,7.03020368872242595870148,-0.0477717063828009963488697,3.57108158928935548459549,1103.03390581475605358719,1112.92442259894710332446,1115.61950820262609340716,1127.0966012026265161694,-243.405236761685415558532,277.926138965929510504793,-138.819723803807221429452,66.4744027483415891310869,156.12363073427471249488
45.4924999999999997157829,-0.483045145472477177595039,-0.644730243577555706124826,-0.65390728135584719193929,-0.0189086946731049365677535,0.0114473920336788156232322,0.0145495230079182372162627,-0.00637043780697489712278037,-0.00925649659809346311845069,-0.220841976511388343729081,0.975240372795943000205909,0.0259004531693276807136073,0.0749779796076698035189878,9.86994480975568855285474,0.00320555206156103228085086,0.0037337556479003614594292,-0.000161239648167752196855629,7.03020484211630414250749,-0.0477736974356354343607123,3.5710722243117638541321,1102.31305765344927749538,1113.46189642175318113004,1115.38279030144940406899,1127.07019808263589766284,-336.168586897825832693343,160.551581077798402930057,-23.2036523108701686624045,-103.989848489258278618763,156.122226661312197393272
45.4949999999999974420462,-0.235117047721931066162071,-0.707913177229736900741841,-1.00888483967464326340746,-0.0197934003284531041810812,0.0075582904317860423112907,0.0128593927864482492767761,-0.00630867946589026319659244,-0.00918055998839509626585631,-0.22089526480667015517767,0.975231634093334576185441,0.0280897252364490923604023,0.0767049473882810139979682,9.87419111815343697458047,0.00323913828024075195824438,0.00402328545271905292646242,0.000132668589273854224414723,7.03020433334053684859555,-0.047773577132548171453319,3.5710652259868376212637,1101.35306288026845322747,1113.7271805043353651854,1115.50348994107184807945,1126.5766519601806976425,-342.618987451039402003516,37.0960520051350002290746,127.458384938361902527504,-250.90398273224207059684,156.120439224935466882016
45.4975000000000022737368,-0.00404530439786964391563062,-0.684168167542895222510424,-1.26609886226361711969446,-0.0196902075653476033023637,0.00518938057901042592429119,0.00939036691821958785508784,-0.00626127051702454490850203,-0.00912964406852483610632643,-0.220950084882822694876126,0.97522118933718737743277,0.0308114748019753525998254,0.077534131843087508717538,9.87806934699099237207065,0.0033012096434447070654461,0.00433906655481358909803857,0.000445549934028326361564604,7.03020394073866228268344,-0.047770781469581580225281,3.57106110297861878422054,1100.59996271619320395985,1113.64737668177895102417,1116.02008222614153964969,1125.81567816897404554766,-267.398237945416951788502,-85.4581495685596905786952,299.977601663186987934751,-356.697942134996424101701,156.118862027439689654784
45.5,0.222785141609602665990764,-0.61755222139382848212108,-1.43168886079823876045225,-0.0188098625561570233222231,0.00400664576384795675934036,0.00453379180341479098154123,-0.00623465340122015838214553,-0.00910459309700569624501654,-0.221003216900009846757058,0.975209935143050210548665,0.0340362227068402578566975,0.0772613872353994923791731,9.88155308361549877815833,0.00339155329715055227010612,0.00467471012483801351411472,0.000771242168223227665159458,7.03020504425739645171234,-0.0477651116805393044506545,3.57106045960364593128133,1100.01607169054068435798,1113.29988975649234816956,1117.00337794938855040527,1124.79316224950480318512,-205.111084833611243993801,-198.999271489673446922097,529.355762435879455551913,-474.527781788514857908012,156.117191538906581627089
45.5024999999999977262632,0.466513774322392937854431,-0.533868225578877586556814,-1.4898238786621424978307,-0.0170463465915496603653168,0.00351454115024071563413988,-0.00170070250797458438762888,-0.00622457486169549021465253,-0.00910631207266260345178921,-0.221049758455244715893429,0.975199230433796526718027,0.0376933911306226721027457,0.075905957575311489016201,9.88463881250500087105593,0.00350850511138006736569506,0.00502277595717655084978093,0.00110299294272389906620968,7.03021048706620987900351,-0.0477560838554189140414685,3.57106483692985854361268,1099.57440729202608054038,1112.65238032433148873679,1118.66686103831852960866,1123.4430392600336290343,-122.653197009304676612373,-261.451475464539669246733,668.750772690076587423391,-485.639268327965339722141,156.115076877621561379783
45.5050000000000025579538,0.637503752722156313836877,-0.485073497451364576971145,-1.41910020088852273367763,-0.0152672567658024820741458,0.00353449996614561097116325,-0.00668229717587753586222066,-0.00622738254760975187135363,-0.00913548893152785548843475,-0.221083694033718247684561,0.975190695045451527711577,0.0417178076155943489133904,0.0734945518055912239141492,9.88734524660725710987208,0.00364913191878091063002909,0.00537525484992268636624813,0.0014340649777557362698488,7.03022137569914651322733,-0.0477451025378036186808117,3.57107477038540821467905,1099.40280570549384719925,1111.9926323791689810605,1120.34713181284064376086,1122.36496590786373417359,-47.0954583725174487085496,-269.872004837450901959528,693.606348157354545946873,-388.825428550518438441941,156.11322160767596756159
45.5075000000000002842171,0.774618244056895832727605,-0.468228442294819413582729,-1.24890556511895622904262,-0.0134169715869560807197658,0.00346100755748600386052516,-0.0106653889618958247487157,-0.00624045748492701741333422,-0.00918578114540848436608833,-0.221104072524496542140326,0.975184868234667323605436,0.0459220094442818749236324,0.0700267280438891248639521,9.88971577384946698430213,0.0038095740156844229776234,0.00572412427718346685651118,0.00175847176138449706565836,7.03023614242050776113047,-0.0477331818745120803337834,3.57108934516913834045226,1099.33893000016337282432,1111.30302030014354386367,1122.1348927791070764215,1121.49891211728004236647,-28.7281360326494237256156,-266.973053814323975529987,697.486067521274435421219,-293.874316238765345588035,156.111268543498567851202
45.5099999999999980104803,0.887431931936301876540085,-0.47093214717582937423046,-1.02934931681428687433311,-0.0113243159757329594355957,0.00265513394652764841974424,-0.0131806512700578751934311,-0.00625661788338266119935405,-0.00923860926864030970739883,-0.221111467648667653351779,0.975182087483672410677116,0.0498735396268796538077339,0.0655602656791795801449751,9.89182023640325880364799,0.00398548826572439184728891,0.00606169423627309685714826,0.00207159161193014524152134,7.03025178002757211714879,-0.0477212711400392536331694,3.5711039679899281296116,1099.2591650253307307139,1110.65776711009857535828,1123.8345621504438440752,1120.89559432667124383443,-59.9645074462989882135844,-233.264207227711068526332,616.317685765628425542673,-168.558613561395020497002,156.109233841871429149251
45.5125000000000028421709,0.977692977398626816842864,-0.478712155715638743025409,-0.794475064835266087115428,-0.00905706617010672634937585,0.000712648196123909184393486,-0.0138691825186067364122922,-0.00627413569896442552958904,-0.00928973259440216136972879,-0.221106401460751583742947,0.975182458814451313955374,0.053453111751566195763985,0.0601340441568370479008543,9.89373942469043576863896,0.00417240049932352929235035,0.00638068664115143749371306,0.00237022552024581572086004,7.0302670498348600602867,-0.0477093484565099118510645,3.57111660639396477634477,1099.0391074629317245126,1110.13669926400439180725,1125.21648120793679481721,1120.65611904947263610666,-146.468377574790451944864,-187.063754247533125862901,490.689093400691490387544,-23.4881234999982453359735,156.107100694908865534671
45.5150000000000005684342,1.0699591083769217636501,-0.476261619766354227234473,-0.533903010917087139652892,-0.00658532677260731478391387,-0.00190159839727387222282906,-0.0135904805443583069635149,-0.00628865705837056924304429,-0.00934156064438762187562837,-0.221090744452835080702258,0.975185486375761301225396,0.056672114361997566467366,0.0538901445187273328563116,9.89556639849051222768139,0.00436568828258240664019763,0.00667421354925257833551333,0.00265237699868138467745871,7.03028338692996701553284,-0.0476960846692495721299565,3.57112828603587084685955,1098.52682313745640385605,1109.72244833886043124949,1126.28800761744855662982,1120.77815370917119253136,-226.23247734870912495353,-110.578137615094036050323,276.10982397252530518017,102.77786725019066693676,156.104428037014855590314
45.5174999999999982946974,1.13824147021639476839994,-0.464623722605516542571991,-0.339740674712436518944969,-0.00451332887611692514656658,-0.00348244033040554304414549,-0.0136282775646532610530626,-0.00629807986689365564836329,-0.00940298920063404111702177,-0.221062819653869951919134,0.975191374805246646850776,0.0596914933925790647251119,0.0469762479564602986048527,9.89740271036303376206433,0.00456062602301713412161766,0.00693573770616216604689708,0.00291700321004479280057042,7.03030235286172100472868,-0.0476807481958618217809942,3.5711416818221066726835,1097.90794507618920761161,1109.58380857592942447809,1126.59703032779816567199,1121.17000838572312204633,-265.055398242794524321653,-9.91099326606165575981322,-0.454068434373534335346534,196.958881714444231647576,156.102108112341170453874
45.520000000000003126388,1.19536185609859146872225,-0.456012431182547195440691,-0.151821353574282169596188,-0.00208600485780631840840305,-0.00426987364470296070634303,-0.0146373682712245406500884,-0.00629577206711897686963741,-0.00947388770363766230531155,-0.221025062552583112518434,0.975199540829505995276349,0.0624920666131921209718314,0.0396088222769748060647643,9.89936352333128688485431,0.00475227354647015862165738,0.00715939754965006815157214,0.00316407689079609925203451,7.03032564799918890940944,-0.0476629452451997753792412,3.57115839476255070294997,1097.20154614624175337667,1109.67289337253009762208,1126.28573727527668779658,1121.7629481177439174644,-289.328311007772981611197,88.6215372536300094452599,-256.941160112324268993689,276.099573557798692036158,156.099694392798625131036
45.5225000000000008526513,1.23888114144855787657207,-0.465835176452062571517132,0.0930076288845964604945493,0.00121955137783169792822791,-0.00453391773134901795994089,-0.0161312709626127148698771,-0.00628124080301479398302789,-0.00954237685384131881227709,-0.220973620173040202763204,0.975210921044588840977951,0.064867929611703234460407,0.0318493992191151223392076,9.90157392979710948566208,0.00493587057907711630744263,0.00734026505634158363960973,0.00339499222675190533496381,7.03035428002544726666656,-0.0476437942262761329748066,3.57117633662046696230163,1096.46130352114960260224,1110.02691626219780118845,1125.3123245272358872171,1122.55050625351282178599,-220.934092619991986339301,164.674333891766480064689,-423.985502264416936668567,274.493679105784849525662,156.096693361097322849673
45.5249999999999985789145,1.24181630479216487117355,-0.494681265277686466053098,0.321095243651161599274246,0.00436056979343193377302024,-0.00468438409303677163325608,-0.0168206879320566826674366,-0.00626100523117055496324923,-0.00960366362907133855331132,-0.220905409837646393711452,0.97522618319891629656837,0.0667920373996429561636035,0.0236689072125113655897799,9.90415590384057331618806,0.00510731639282974766297363,0.00747487931030901744250405,0.00361256271012203814679831,7.0303873245060790608818,-0.0476249940751128364446743,3.57119318539503316500827,1096.0968756831427981524,1110.49626504198818111036,1124.165809763956531242,1123.13541651327159343055,-62.3844117839006742087804,212.957133231957612906626,-477.341815809023955807788,184.862038618572114501148,156.094108881427160895328
45.5275000000000034106051,1.1955974949320680167375,-0.533976257929052011697024,0.56402226405525146546438,0.00782703019716787795623247,-0.00559802054805084905314549,-0.0164635592713743353354694,-0.00623915192023577567376202,-0.00965345963422668991438247,-0.220830423674138826006796,0.975243059243606214003819,0.0682462930338146867015325,0.0151014203525174708908629,9.90722975747444856153834,0.00526346041758787505648876,0.00756174672302501512527462,0.00382090276938859638861112,7.03042172913507101839059,-0.047606775862978518987223,3.57120766836768277485703,1096.14938146222993964329,1111.09170192835813395504,1122.92561544818954644143,1123.47481644660615529574,135.306264661879936284095,275.523436078487975464668,-508.413865768046889570542,56.2149577233580046708994,156.091442642481752045569
45.5300000000000011368684,1.07425027637983716566339,-0.56703287053311379750653,0.841089836910243859868785,0.0117358551682247534697634,-0.00788115298745517556255891,-0.0147071199289316237313052,-0.00622056973435264424360236,-0.0096937859300439358639645,-0.220763157548758554016288,0.975258210631733124529319,0.0693461804715076457483747,0.00620063661766612206349691,9.91090792795483643828902,0.00540260963388124182404937,0.00760134758103068065154817,0.00402504597066582515962896,7.03045435966739695743399,-0.0475888279587472484699617,3.57122007965102117310607,1096.77340700645254401024,1111.87388222238132584607,1121.62374043511499621673,1123.41649130188852723222,317.135967862638722181146,284.361883471396481581905,-414.715369593763796274288,-117.942471177109780455794,156.088155379580769022141
45.5324999999999988631316,0.919452905387627694722141,-0.565724848069435570785402,1.03023104731662185074015,0.0144270280794267565654954,-0.0103475517221821803476312,-0.0120330713308480444917459,-0.00620576669016275044715725,-0.00972002766845158662489812,-0.220716358580815258383367,0.975268803145066365267724,0.0700652014559514646485638,-0.00292243006725954879154727,9.91530018247200395364871,0.0055244810684584155086041,0.00759599156234896672607038,0.00423062405845626467171261,7.03048353663033687155348,-0.0475711718660677199133069,3.57122961560123242108489,1097.73506130154169113666,1112.51351134571382317517,1120.85203860022261324048,1122.88510409072114271112,451.340580546089881863736,232.562618201444990972959,-230.675332682967791697592,-320.494196693079857141129,156.085348024114324516631
45.5350000000000036948222,0.717492801931986612373748,-0.528343079694936101908809,1.14271791263170285901651,0.0166365433847520394206043,-0.0123815634763267470863646,-0.00829172806509933212060215,-0.00619675421578338644912343,-0.00972460238682683851541011,-0.220692259599743478837297,0.975274413311842947038599,0.0703275458931429953146619,-0.0122034944781826970583438,9.92050886399736953080719,0.00563000631035976729921178,0.00754943003799729648456429,0.0044434104048381483156871,7.03050850848472386189769,-0.0475557301881922578346007,3.57123520758842749600603,1099.0301099091841479094,1113.03669531338914566732,1120.47036377169956722355,1121.81402031842230826442,544.265592527057265215262,171.100648933819456942729,-100.186261299535217972334,-510.030742339961875586596,156.082476345844014531394
45.5375000000000014210855,0.486442747369058958728516,-0.468300852375962584073221,1.17628229553155283504395,0.0183800405381865337994807,-0.0136812436490453288168156,-0.00408048623493846747412039,-0.00619411113211667304495611,-0.00971212720248365926623002,-0.220688917958942298902514,0.975275457735180761886795,0.0702857321094171871855849,-0.0215028830912791513174653,9.92662139434067825050079,0.00572087665852900623814081,0.00746653359817441453910591,0.00466848799290869517775171,7.03052966357198361180281,-0.047544159171029942712039,3.57123842344694786277159,1100.45638926417836955807,1113.36901459038335815421,1120.35110729372468085785,1120.33495037902002877672,562.473545366140115220333,63.223030334814417585676,-22.3464958036605345625958,-663.781213459755008443608,156.079556008721368698389
45.5399999999999991473487,0.236622246821937110006218,-0.396082629985288925400511,1.11567905909980047418628,0.0193272369289042983409033,-0.0143417089869654051231818,0.000222261245707999863675114,-0.00619671665540902014135405,-0.00969955907593762767238132,-0.22070741777960328766639,0.975271553961003956345621,0.0703209152598791020771785,-0.0305996337106831106655846,9.93371011549626459213869,0.00579906984171808023015293,0.00735273146637843016959479,0.00490972964063075313634332,7.03054894163891042069281,-0.0475375621618141230850796,3.57124330552485247380901,1101.84247763601229053165,1113.35281046506293023413,1120.35863129268136617611,1118.49511425112655160774,555.755753497567070553487,-112.397032869864034410057,-31.2783838611561861853261,-843.308908290487693193427,156.076582707817408390838
45.5425000000000039790393,-0.0602478547831398272838221,-0.31165641671034982618238,0.964832437590033453744809,0.0194263999978600866713752,-0.0145073637112394047271602,0.00448441838362586935040621,-0.00619978884162179864208975,-0.00969354424727837324371471,-0.220744258527991926710499,0.975263478921351345540813,0.0705928885314324183752888,-0.0392565430211642973912234,9.94184355890645754527668,0.00586662583708198910603659,0.00721314012411445291961254,0.00516995081296393096254027,7.03056763249183891417715,-0.0475361729646911132518561,3.5712507969980720190506,1103.23516803166762656474,1112.80702942603375049657,1120.19471537441881991981,1116.11840583756543310301,444.359178475679129860509,-297.601787111791622919554,-133.035214940469046496219,-858.446231200484476175916,156.072960973793698258305
45.5450000000000017053026,-0.287375775626673601870209,-0.247582714553764043907691,0.815113098477346587067416,0.0186465716331730320398652,-0.0142262590301904939815714,0.00634845160888111801483769,-0.00618960678189833281293009,-0.00970146312288532215728498,-0.220788885721252159388683,0.975253651897328599496007,0.0712278905734664014026691,-0.0470706597342403221251317,9.95108327375745282949993,0.00592586985369651479682584,0.00705190429685919814573047,0.00545089373067098818120835,7.0305872362692394261785,-0.047537301051866390211309,3.57126185375428173429668,1104.06427352839182276512,1111.86480152950321098615,1119.69345521797868059366,1114.20288309512193336559,255.288022486279515987917,-476.984629140294600802008,-309.802984470988860721263,-706.238100775777866147109,156.069903558917275177009
45.5474999999999994315658,-0.476582657187646085983346,-0.181471989166542002624993,0.696038241433000193225666,0.0170658353699217821275447,-0.0142485751448945749397801,0.00633397463283597809274861,-0.00616060704874899119076748,-0.00973174905519480666626908,-0.220832719003993177553369,0.975243981549485994264614,0.0723994586874385226415995,-0.053800703984979630911667,9.96147790917574482705277,0.0059795592944668907176009,0.00687169780355235786106771,0.00575381753841281047556766,7.03060866350329849439049,-0.0475376152147870198461099,3.57127879221661093112061,1104.51160814409786325996,1110.42210628033444663743,1118.64570045206528448034,1112.58721533368975542544,120.138575872290331858494,-731.067700238589850414428,-589.590024160196094271669,-598.654535199523934352328,156.066812009757626356077
45.5500000000000042632564,-0.651168108604607831502165,-0.0750771181156294209468882,0.631219773974165621055477,0.0146114373043003970692455,-0.0153617500907642420132637,0.00566928544676498311766233,-0.00611897709029457937540686,-0.0097906139073131951550133,-0.220869076736549485584504,0.97523588800133997889219,0.0742799771698613442438841,-0.0594521174170483390764019,9.97306229191468496253492,0.00603108112229487017957874,0.00667367966737555506212543,0.00608016590267839666245075,7.03063126709392172131174,-0.0475338344444528396182115,3.57130034551534425446562,1104.66496640775358173414,1108.2094630283083915856,1116.7455050971761920664,1111.20961041912278233212,10.1730950610038028969484,-864.474815080133112132899,-778.913290566117098023824,-390.171526213890047074528,156.063070462869262655659
45.5525000000000019895197,-0.756130030934734964631616,0.0530814752008413118233854,0.64571876159067786993262,0.0126427692707824692458507,-0.0167355419602296419390175,0.00574653036570465635540783,-0.00607231482863600322691378,-0.00988353167675606013309331,-0.220892063175920944084751,0.975230604246547172486714,0.0770233603058818605546776,-0.0640708514664427297713445,9.98585945650509287929708,0.00608448694395776791543629,0.00645805656660579721628501,0.00643206706981421134916577,7.03065369805040596418166,-0.0475244895725861274393687,3.57132464706604713100546,1104.56247361940290829807,1106.09973220493156986777,1114.75113399923270662839,1110.63635770261930701963,-61.4879432072134335385272,-852.277288776033174144686,-826.125717956280027465255,-96.9565604819280935089409,156.059931639006975956363
45.5549999999999997157829,-0.831181444295150173573461,0.226032205874827918368197,0.705631225507678538910739,0.0111258801222968613242603,-0.0175760564207008557202627,0.00715936499191568292976839,-0.00602932470990613818273562,-0.0100088849447151784916032,-0.220894316933690826321168,0.975229740725883198493307,0.0806391286758175174220753,-0.0677668412160627176010763,9.99988305223268092447597,0.00614420664139678739112949,0.00622477102892056172872559,0.00681286397657810110367604,7.0306756389314859490014,-0.0475106364584090071212508,3.57134967526133184634318,1104.35752669171779416502,1103.94807658443210129917,1112.61487650739854871063,1110.72482761671358275635,-79.3883687717237904735157,-888.895575068080574965279,-884.86905813232158379833,191.866046164834074261307,156.056777486823222034218
45.5574999999999974420462,-0.899805519462769098915089,0.463499192634304058024952,0.783042594160591298724228,0.00943974659587371034419334,-0.0172246527719937328471111,0.0101686564965569326002282,-0.00598962585227277161115111,-0.0101598326278574228875851,-0.220870503681425411901529,0.9752345272127991293587,0.0849838911481115011348209,-0.070506538308059224506863,10.0151401212866932866064,0.00621460530666217200040924,0.00597442341938228885234174,0.007227117747176677216292,7.03069723636539656297373,-0.0474938645409973478339616,3.57137229909775966163465,1104.16553177554465037247,1101.65525432959520912846,1110.32678870857512265502,1111.59568793344260484446,-36.7176245785497883389326,-740.673226153497466839326,-725.418864098985068267211,437.923537023246979060787,156.052981785333486186573
45.5600000000000022737368,-0.94134576426445937258336,0.658326845489047185466802,0.821750940365840620849269,0.00771984356310096483250183,-0.0155484748727889639935418,0.0130186656687530447062962,-0.00595297615889927699689421,-0.0103161078520195917396229,-0.220821080480973597204297,0.975244973899416112139704,0.0896422293815842263775551,-0.072328137113197965568645,10.0316314377248758660244,0.0062994752834857016196568,0.00570874675014392419375442,0.00768054152012839341095995,7.03071645808379042108527,-0.0474762666087514481616516,3.57138932790003993389405,1104.17393856882495128957,1100.24471045366271937382,1108.9877821869017680001,1112.91444530183093775122,65.094588298064437026369,-405.259316700423426027555,-346.681448992244440887589,632.126875826947411951551,156.049814661258125170207
45.5625,-0.959759064122869487434286,0.815351368577231561118879,0.81170198407157190256811,0.00538795327364319925900205,-0.0125324711708961911843518,0.015574851429601303115513,-0.00592209316130354931212443,-0.010457759051579697609502,-0.2207570215564737536873,0.975258637130619998600878,0.0942086047339144583290249,-0.0733353552557039767290092,10.0493440744814090948012,0.00640180408805459018328765,0.00543092340363800218927537,0.00817909855653959488863691,7.03073312724187005073873,-0.0474602359690116035184637,3.57140191691910313664948,1104.49100471703513903776,1099.62895774609205545858,1108.59338146361301369325,1114.75632231257895909948,194.806955352891975508101,-85.5008651209896015643608,36.5626913060046376813261,805.783736598601308287471,156.046648940449102838102
45.5649999999999977262632,-0.950903433973941947243702,0.92457072591535871541879,0.754749688759001169380269,0.0027935582004886619356121,-0.00891940752369724254577932,0.0178513084208365008231922,-0.00590327193835970317342676,-0.0105757453166559871327035,-0.220690913419431977704477,0.975272512436561433979421,0.0984976184132720367081504,-0.0736666359181322172311468,10.0682460612763495788613,0.00652374060248034955827867,0.00514539069127060814945462,0.00872796964674248804127998,7.0307482541767329919935,-0.0474485303750235704045579,3.57141336222233496400236,1105.14797334558852526243,1099.81720612805816017499,1109.1705956434316249215,1116.94336398482028016588,359.783346026095045999682,281.732210576539273461094,484.805583479171502858662,934.374737138682007753232,156.043488391908852008783
45.5675000000000025579538,-0.902082479042332074925525,0.977176700657900187962923,0.641201624212399012847641,0.000291485999569628204813876,-0.00558848872053980139790186,0.0197616656276081194276717,-0.00590120268339555751474501,-0.0106727814348348999662353,-0.220630773163732141206594,0.975284439509439549098602,0.102539891057516374672787,-0.0733925940894027128980071,10.0882881423887056371314,0.00666658205997976930495819,0.00485743799077462297397734,0.00933089307074193817503893,7.03076370781125792319699,-0.0474417651428537673341523,3.57142733632468667437365,1106.28992144716653456271,1101.03761879897547260043,1111.01740938101011124672,1119.42819599827475940401,625.257620976615953622968,759.350698668161271598365,1095.2033648506439931225,1131.8767658034296346159,156.040338739269202505966
45.5700000000000002842171,-0.794094097949399779778901,1.00096584407286259832404,0.445702065841366734666451,-0.0024008057250216575072288,-0.0025886127322714042216234,0.0216941523699854636741957,-0.0059103839034834945720398,-0.0107445587248811789266023,-0.220577159021767305047135,0.975294084585211273896732,0.106177088501998417857664,-0.0724312893325501083729989,10.1094172700110860319,0.00683060168758549152850934,0.00457274261879193552604583,0.00999027067290801477905671,7.03078051740330245422683,-0.0474375612985026007262235,3.57144603581500685862693,1108.27426145047320460435,1103.6139596214009088726,1114.6466124676876461308,1122.60274781384032394271,830.095653458083802433976,1096.97323364034400583478,1534.01744682631397154182,1176.49869248800905552343,156.036577715769027463466
45.5724999999999980104803,-0.664191150527987383966888,1.01543885748504325583497,0.241864526296781429115512,-0.00425826242175096365133458,-0.000819089359586769490129132,0.0230649344484287303902459,-0.00592816790548383182324343,-0.0107846765856619130480309,-0.22053202501886576269996,0.975301019044424566395435,0.109220180604678140934283,-0.0707790020299637334666443,10.1315695531054945632832,0.00701532334851947929343918,0.0042969236590961806462885,0.0107074595518395349058594,7.03079669615368008095402,-0.0474348178510408946539911,3.5714682505278383395364,1110.44039971445317860343,1106.52248496717220405117,1118.68749661513470528007,1125.31068946070945457905,963.390029632099071932316,1264.51507739024123111449,1767.24640150574123254046,1078.7891569771484228113,156.033463660322723853824
45.5750000000000028421709,-0.496921244091560909694749,1.05289059001233398227271,0.0125620937013034908447118,-0.00543582863133259663185326,0.000693213326846980502568552,0.02404931393648785525885,-0.0059544819771601533234251,-0.0107874134651566658260613,-0.220500075183246879717558,0.975304202639011186271034,0.111505424869553393385502,-0.0684917564307691018044011,10.1546694406957431766614,0.00721968439082341321283431,0.00403536639652218084156621,0.0114830858689739800926333,7.03081121082821436374388,-0.0474340957794713094508587,3.5714947642903260849323,1113.09121159863616412622,1109.93653500835534941871,1123.48284447522087248217,1127.99669359872882523632,1256.36288485438240059011,1542.41739302495489027933,2198.85247639782664919039,1167.86810146717743918998,156.030376711939652523142
45.5775000000000005684342,-0.256661824877931599164782,1.14099722076481047139396,-0.259440464540503401558169,-0.00607660113639074163371934,0.00293865178312661913181958,0.024228233166626110539621,-0.00599251703972513566354152,-0.0107509286628343168207289,-0.220484974617823875631117,0.97530278039321305350029,0.112962714925771534613119,-0.065685440392014987631697,10.1786279719442198654633,0.00744208804031640507731238,0.00379291177015540293196438,0.0123173510576608611494231,7.03082383889407580568331,-0.047437126144722577270052,3.57152688914241389639415,1116.72221413872830453329,1114.23457193230092343583,1129.68175899712946375075,1131.15002996804832946509,1384.4056366963600339659,1554.35595639237749310269,2281.22060159806187584763,1146.37199133289527708257,156.026711778832833488195
45.5799999999999982946974,-0.0221171833632585711215679,1.25064149607712771228307,-0.451561247237775020835215,-0.00625169764756026025837032,0.00560225751351422444207495,0.0232069934298759876500906,-0.006032078521503071374954,-0.0106767691566182505030769,-0.220483633578496734939378,0.975297535810431326375181,0.113533002132933269479054,-0.0622078143144374484663217,10.2033496161673724600405,0.00768025952479622301544149,0.00357376260476519698114362,0.0132104162815183494295024,7.03083520919709226149052,-0.0474436023456416347543474,3.57156395834434947644809,1120.01323978211166831898,1117.70831479031016897352,1134.88894748320080907433,1133.72855355538808908022,1340.64778072019726096187,1311.02925708179327557446,2016.07537147785114939325,1030.59734956743363909482,156.023696971039754544108
45.582500000000003126388,0.254412257922799089904231,1.39070602787051789128725,-0.567626191075425556853418,-0.0063308782356006343405852,0.00921204829717444002856741,0.021139621838327155023407,-0.00605760790478134143743905,-0.0105726700746432804300934,-0.220486937917089009797422,0.97529073040981084652401,0.11326291786474718126243,-0.0577804020534619100502027,10.2287267899272169557889,0.00793130611673705486486252,0.00338093516652618851503487,0.0141628712554195262951495,7.03084701543299672721332,-0.047451159556741159817328,3.57160496264657112419627,1123.42545304233271963312,1120.78971821771324357542,1139.76213585452387633268,1136.30301671588813405833,1492.01140325068149650178,1222.34613126557860596222,1994.02938979535815633426,1144.82250006668073183391,156.020731375296008991427
45.5850000000000008526513,0.640066463234651772395978,1.58860306939730699937741,-0.583188595665640518994621,-0.00602448260372111677601881,0.0140160705457050976940891,0.0179353394057450640786122,-0.00606115994914617137179214,-0.0104515002350108587164668,-0.220489661477751813789538,0.975283888690577915880908,0.112347524043566682205864,-0.0522552187226840159084418,10.2546345354081047673844,0.00819176289311133662418563,0.00321585171315029406599595,0.0151761097052823864389515,7.0308608710539246544613,-0.0474575467833362046876644,3.57164848209825347424839,1127.47329679836889226863,1123.82004544664118839137,1144.85909443218270098441,1139.45266605572442131233,1451.56158851728059744346,988.130990959314772226207,1709.13422196755095683329,1170.68281014541821605235,156.01724022169398153892
45.5874999999999985789145,1.00183447145207904505071,1.7810477439656864362405,-0.481770016863936667572688,-0.00503347984102721357491106,0.0179217266921735812745808,0.014984112772145308581373,-0.00604214836027909627663712,-0.0103256214780684321685733,-0.220490236578077009044208,0.975278037290454480334745,0.111018974673827208743404,-0.0456347276110685567962477,10.2809333515201224429347,0.00845757619465325495566876,0.00307839256377835223527084,0.0162525101863368777455054,7.03087685502044212881856,-0.0474623727679541612678449,3.5716928967002616879256,1130.68326098491252196254,1125.73037317250532396429,1148.30780696435385834775,1142.15643076660990118398,1227.86457307102796221443,646.218535460081056953641,1203.89634032455683154694,1096.66577044807422680606,156.014395609838913969725
45.5900000000000034106051,1.38581061051981313525516,2.00860071473466339497804,-0.272766836232511633575371,-0.00283691453240967955337637,0.0217488596783675450230255,0.0123811781336903709016539,-0.00600688448718743068371895,-0.0102055637540886517261596,-0.220487081057832851049838,0.975274657171308234637763,0.10951816971679856349553,-0.0380700332477989372703675,10.3074701547434735005027,0.00872421904384926456821336,0.00296713321894482478027766,0.017395320790132864224864,7.03089553912650178091326,-0.047466153422776408143946,3.57173786824013772545072,1133.61261966372717324703,1127.05113812394324668276,1150.87857613380856491858,1144.93599490796759710065,1116.74655965718716288393,452.716925517820868662966,900.782599353208979664487,1117.27942037275306574884,156.011628525520507082547
45.5925000000000011368684,1.76327433874743166875021,2.26576741396279146556481,-0.00399830160235643394112115,0.000832540174847290937072686,0.0257724892206310507436484,0.0109369894918656170718085,-0.00596657330964526881611487,-0.0101029213466024871126425,-0.220473705822082810534823,0.975276879409577968083056,0.108143472514553196095477,-0.0298095989797725891001789,10.3340779321295990200724,0.00898699519963806585376442,0.00287965952304413460444144,0.0186083119862277268641293,7.03091822895540552451621,-0.0474700445872728166163412,3.57178408011598014226706,1136.26699378320131472719,1127.99395780009558620804,1152.81171996112220767827,1147.74282786847652459983,996.730683907750744765508,324.550756969915312311059,665.713119200532446484431,1115.84379385382430882601,156.008933165512189589208
45.5949999999999988631316,2.09762470523074506800754,2.54617367374927772161186,0.280512953742412585178556,0.00664304234160788525248575,0.0304072400386803283478532,0.0118112139270965567361404,-0.00592538946910540955531621,-0.0100214074060177554120754,-0.220446722154773400159655,0.975286735351151512496415,0.107017029548412634376575,-0.0209963762974085810242286,10.3605852064673911172576,0.00924092061368540253207815,0.00281337123960213224618809,0.0198956073857528038806297,7.03094586043165925559606,-0.0474741647984806558469018,3.57183062461971312373521,1138.59627308326139427663,1128.67389190879134730494,1154.20714172980819967052,1150.51521387723164480121,964.369181047602523904061,294.125222420993452487892,562.454709240531542491226,1194.3143562318966814928,156.006332475305896423379
45.5975000000000036948222,2.41604397295965167558052,2.87246408400746666700343,0.56407906037183586089867,0.0150918776123488522500349,0.0373831213866046771499008,0.0152638857387729989789626,-0.0058791146743184434855789,-0.0099520337271849276111757,-0.220403488302468641979459,0.975303233324880669563584,0.105977115858161663464188,-0.0116614223210093070903781,10.3868195102882339142525,0.00948093769118022074160468,0.00276585090614857656565739,0.0212614377922582808988494,7.03097844928894133431641,-0.0474778408806307422596049,3.57187747657704646186971,1141.08883968844179435109,1129.46458391220130579313,1155.62399350732630409766,1153.71439964963906277262,879.3304474846130460719,324.394983083964234538144,524.790003338425549372914,1143.2505373330577640445,156.003330608129175516297
45.6000000000000014210855,2.60841675213645407538365,3.09641616988796819498475,0.713625341549549152553311,0.0221185687898419018615481,0.044769255652702476255822,0.0188707299858775351397711,-0.00582608997167009898948686,-0.00989320933186780063217647,-0.220342464423542994111926,0.975324963430853286716626,0.105030099267250431882559,-0.00185272655611409819975677,10.4125944763496907086164,0.0097032903307515128155103,0.00273502737005135165837544,0.0227093497103606732634429,7.03101540663521351604004,-0.0474805161546827253493674,3.57192584737939400341133,1142.99292532068670880108,1130.29586682421199839155,1156.83109174650167005893,1156.2314665638998576469,742.269235110681847800151,403.793352943561160373065,523.681862347324226902856,974.485971172611698420951,156.000934377985885248563
45.6024999999999991473487,2.74315038614139794503899,3.22072647923223298604967,0.760481012799006372837596,0.0283251333896700763226306,0.053516363040627956682016,0.0218078820353151611732834,-0.005762400607919217557229,-0.00984712196211462963135741,-0.220268675448678286077353,0.975349584735468289053983,0.104253986087686101313921,0.00844726855143143606774458,10.437715553374268040443,0.00990587036938749693204542,0.00271988586410612303775891,0.0242418784893479524744642,7.03105474832850596556,-0.0474815557601382665087186,3.57197734172134850894054,1144.80018586399182822788,1131.48355067691727526835,1158.24240281906054406136,1158.58682950549768975179,778.988687586126502537809,624.607489273692976894381,669.884004398384831802105,1007.53763839364478371863,155.998653983388436472524
45.6050000000000039790393,2.86831993717711197788844,3.2127187373811181281269,0.717515750151348274954444,0.0350047954420513035556084,0.0645855362258725418378447,0.0241430933071999087591308,-0.00568408524934176963283594,-0.00980444561038077561088144,-0.220192819387360572136458,0.975374056443938930449633,0.103493455016103796939575,0.0192053130311974004640341,10.461990588829063852927,0.0100878093107520990651116,0.00272061616296497520151032,0.0258606423856290734697438,7.03109311869958819585236,-0.0474817267554418498409774,3.57203213998778723592409,1146.8878687586193336756,1133.41890427058206114452,1160.18051176849530747859,1161.26915475587065884611,744.544186982767541849171,792.892174350212371791713,727.793952454831583054329,968.740738689489376156416,155.996057884970525719837
45.6075000000000017053026,2.95497414981005368517231,3.06376480213975321831299,0.622679975037853328245774,0.0403034236114914526383224,0.0735484578836331226447953,0.0253563980216796602817908,-0.00558123595180611605653942,-0.00974837502820058258989899,-0.220124498951473873686879,0.975396040352527804451199,0.102408484981769132282636,0.0304723430492735702923568,10.4852325686779153102179,0.0102494389774994924119378,0.00273904302089293368374645,0.02756616334521108657718,7.03113009811420752726008,-0.0474808424128506101347114,3.57209103388170090553899,1148.52290679890757019166,1135.4480115486703653005,1161.8813725813365635986,1163.4305331989476144372,611.645787738881722361839,879.448536763611173228128,651.819424420274913245521,856.570671531114044228161,155.994015444651893176342
45.6099999999999994315658,3.01551278707563996661634,2.77885028182406212948763,0.492722194231305254952247,0.0461413291964398938893588,0.0816226193821140838524641,0.0263758694587873862569261,-0.00545311308761691360819102,-0.00966417856620709579684725,-0.220066716971151155046726,0.97541486358952023127955,0.10073536462748522435362,0.0421154139073976890861317,10.5072548563231151774744,0.0103926412918060925155705,0.00277790015220553661648428,0.0293576349480282224047034,7.03116523981286789535261,-0.0474803578830019223921965,3.57215457190407192911152,1149.94609769731096093892,1137.81614695439611750771,1163.43960889059371766052,1165.55200811352233358775,547.315642472669537710317,1083.84630837189456542546,594.733113771431362692965,918.400760002835681916622,155.992102501781687351468
45.6125000000000042632564,3.01861045410063599803152,2.32068562125828670161809,0.31926172366199856433866,0.0547879728128579795987108,0.0895343210180847559609418,0.0275628243344168480377654,-0.0053032376588193312627606,-0.00954044915134060096673085,-0.220022471301563271595114,0.975429964190439147131428,0.0982885947700110063074419,0.053923809793318941419038,10.5278765894520969226278,0.0105205615651739470273185,0.00284102371923174038328974,0.0312328914946765276439145,7.03119711408499536986483,-0.0474819052308311645438366,3.57222256434250606815795,1151.25948501127231793362,1140.86724309053261094959,1164.85503815019524154195,1168.02253699896414218529,396.535428079348037044838,1120.92358007527718655183,408.603208498762057843123,875.184242137500177705078,155.989960193146373512718
45.6150000000000019895197,2.92566403565803989650362,1.88338306145739653452154,0.175024277434635916472772,0.0629189907544146082019054,0.094317829157003499340739,0.0282468219444047957678023,-0.00513687528152561179856095,-0.00938366154725700334082727,-0.219991580688973453749924,0.97544139482898839510483,0.0952478825506274939804996,0.0657261370024497526554086,10.5469199148471854954323,0.010638267060516902115519,0.00293322472540143500130405,0.0331880777420524367138377,7.03122493488033395436787,-0.0474871306686763111626348,3.57229416597300852842523,1151.92877483770871549495,1143.42076485477537062252,1165.48262493308857301599,1169.92792932421207297011,165.636826933601355449355,981.77436163017023318389,110.90807435194702179615,692.586287526085129684361,155.988304497932631420554
45.6174999999999997157829,2.69762876101531023920188,1.43965792851349871916966,0.0497043276546540666038787,0.0709005120064112870359452,0.0974171959441638701804322,0.0283469096847254256599236,-0.00495488218725799109409813,-0.00919788661024679814193217,-0.219973410760721799217521,0.975449410623851598245437,0.091713416916864187733438,0.0774246164675225223561483,10.5642268204114060381471,0.0107512333315755593404761,0.00305982125428829387567276,0.0352179574616673790599108,7.03124811272334948597518,-0.047497047303261034911781,3.57236764671094420009467,1152.08766914593957153556,1145.7761148986789976334,1165.4095785219544723077,1171.48546843659141813987,-21.2673650880526707851459,879.543626408194086252479,-151.341578448092462849672,529.929878946113490201242,155.986784718672510052784
45.6199999999999974420462,2.34500602828882831474289,1.02240693833266527157377,-0.046365933328140339353407,0.0783261852730925828280917,0.0995080028080992384786896,0.0279420457765378778269838,-0.00476148730228843040934716,-0.00898741175619073226488176,-0.219966367991332095721546,0.97545448928483602379913,0.0877946796896136860688387,0.0888483049762835291884855,10.5796610427192838699284,0.0108652296218223459040031,0.00322528833273201835304955,0.0373155622397148833968572,7.03126620951219294397561,-0.0475107697835220749160712,3.5724439496340885114023,1151.8224380122685488459,1147.81848298681234155083,1164.72591704084879893344,1172.57757871894023082859,-193.736104108021237379944,714.257293962098856354714,-413.066193209822472454107,284.327633523607858023752,155.985378124565073676422
45.6225000000000022737368,1.84720664891802632823214,0.662777127749854866323176,-0.0951049026794276164409325,0.0845227926679578966950857,0.100697857560964970646822,0.027115990275524873287516,-0.00456577055148997979633352,-0.00877084068017236831438233,-0.219967861039799233990877,0.975457170999967537738939,0.0839087450610866980582614,0.099789845144368713447669,10.5931049637923866413303,0.0109870144541525452397401,0.00343236940678698322290674,0.0394715146126472724019685,7.03127892369724971644018,-0.0475271541652573792369196,3.57252556823970701671556,1151.11898862539896981616,1149.34740136849131886265,1163.34424755590430322627,1172.90710660421018474153,-374.15637533798832237153,539.44140699381625836395,-744.240733130828971297888,-63.836382655303253841339,155.984107875632162176771
45.625,1.1137024395575261248581,0.315059719349860156700771,-0.0938891112347218365075108,0.0896003740203045045964458,0.10143529157621256064914,0.0261335905925527411941545,-0.00437414027450945628455736,-0.00856821578862149157984618,-0.219973029010882337175303,0.975458496236541350299376,0.0804811734603167461266082,0.110103276651548065423469,10.60447146444623101047,0.0111229536242063824225124,0.00368153172692513861244401,0.0416741358502411909925378,7.03128678904238224589562,-0.0475438272617356855187509,3.5726142679677459490506,1149.95165613557765027508,1150.51569002178280243243,1161.00471337519275039085,1172.25839680566355127667,-446.981069070850026037078,325.126954002803472576488,-945.078019352054184309964,-413.220460844662056842935,155.982740136559868915356
45.6274999999999977262632,0.425616879229573363829786,0.0985533644498048921889222,-0.0481442656989067852002506,0.0915446520958513726418104,0.101659806032690924748607,0.0256375107094286534825667,-0.00419587566480630978077437,-0.0083839398342086535187434,-0.21997487365664475378324,0.975460093938921302125777,0.0776189756129604391254873,0.119513215186784121923935,10.6137155902995736767025,0.0112770838308964525820155,0.00396962403109698581948894,0.0439099651886567243774806,7.03129275283671617557957,-0.0475577068948134160097929,3.57271024563401207174707,1148.88408328004675240663,1150.97303613850385772821,1158.61885745914833023562,1170.84100429998875370075,-405.29564761256733618211,104.837889725141423014065,-1007.64364168324686943379,-719.852976126044381999236,155.981729438987912317316
45.6300000000000025579538,-0.292783418656485827646918,-0.0446524716515933201010924,0.0305778090206637251369237,0.0911163993087370643886302,0.101522563815084593263904,0.025681401954244391372395,-0.00403788790380490113240963,-0.00822241933059182639187412,-0.219968630548284194148323,0.975463090553137845972742,0.0754095989986865444798525,0.127801035330290357894256,10.6208279004568861836333,0.0114515301114659559522657,0.00429050993695099733282738,0.0461636910828222904457085,7.03130271822939345582881,-0.0475656407250489438043317,3.57281642681387845428276,1147.92517789751377677021,1151.03987947040877770633,1155.96649516677393876307,1168.65913192503148820833,-361.621652936807151945686,-13.2295691491822786645116,-1183.36720215323498450744,-1069.30784078181068252889,155.98085041918238857761
45.6325000000000002842171,-1.13781829114860100204965,-0.139850299642637981856197,0.144930569554692856293343,0.0880278740968093720287158,0.100840114886353901524352,0.0263358007043541682279386,-0.00391474635777551687593201,-0.00809139922938236465232986,-0.219945407593998137896207,0.975469465638503563376105,0.0740396063986573094162225,0.134613753659414386865123,10.62583269255558171551,0.0116469252950721913197896,0.00463465102877254429142306,0.0484186628452983464088177,7.03132119629365615054439,-0.0475667516418218361273773,3.57293781031907542455883,1147.07597501536179152026,1150.90688829275791249529,1152.7020214483791278326,1165.49446509607696498279,-248.948720359338892649248,-49.7106521151633486965693,-1179.97607986801995139103,-1189.13101273650613620703,155.979944939147515015065
45.6349999999999980104803,-1.79962175853803141301057,-0.16477487779272523282792,0.246380555792322625263679,0.0836971333944382805958284,0.100024376664876638032275,0.0271650734669407721566525,-0.00383239860749694846026037,-0.00798542532831094872824984,-0.219904220931236266123321,0.975479549681611768363609,0.0733755530967250546581226,0.139730827778661692573081,10.6287957479317523024065,0.0118607850497461624755813,0.00499158237477954295352456,0.0506583283955683930099845,7.03134886084321930610486,-0.0475623146542374156120481,3.57307546335503323220451,1146.68043429571821434365,1150.79132620983318702201,1150.06661476743920502486,1162.71347686135436561017,-94.7590454054504363057276,-16.1613559393034940114831,-1006.05014196747481491911,-1067.95298848332936358929,155.979313055968390244743
45.6375000000000028421709,-2.39868274505993772649504,-0.150982653543015682418016,0.347847008168605809075302,0.0782650949071345136687228,0.0994455308899422213420038,0.0279844041071408144993882,-0.00378703429240122377980038,-0.00789900719048058919113942,-0.219846916263777558686598,0.975493085821731331641615,0.0732334556948227577422017,0.143149399564735435586016,10.6298134196659006533991,0.0120892809042185619960996,0.00535165040355253199960694,0.0528673610458983561644075,7.03138638395549175896804,-0.047553205362297276681538,3.57322629228447796734258,1146.60217978833429697261,1150.82608151306135368941,1147.67177073853918045643,1160.15470015365758627013,22.8517717381574989587989,65.4757114736759575635006,-971.304778581774030499218,-1008.09810065610054152785,155.978806913644945097985
45.6400000000000005684342,-3.03647804209374649886399,-0.116806684462042953409622,0.467174143251692597367253,0.0708811602115288347247812,0.099434278069613454831277,0.028778305217853086817037,-0.00376780743763999864670566,-0.00783280478775750729769634,-0.21978545757459766463171,0.975507481633539286214329,0.0735200802514743845250678,0.145059800291897800228469,10.6290043515955741071366,0.0123287481685930809527374,0.00570749267487990694092126,0.0550328462826072742353212,7.03143332751686056525386,-0.047540027773345691630702,3.573387609927650920838,1146.79469315440906029835,1151.11870476720173428475,1145.21009087452785024652,1157.67298635807128448505,101.71322893588850888591,145.700463644012131680938,-819.454411889973471261328,-785.732136941747512537404,155.978343701445794522442
45.6424999999999982946974,-3.49432807432143022197124,-0.0925447637773217368639678,0.56131591624727728007116,0.0637576659393588596191904,0.0998999953385105027292568,0.0293554740267117190988255,-0.0037641851770219662831618,-0.00777971561582112714622328,-0.219732278545950565629141,0.975519973686977848181812,0.0739818516694212280349063,0.145623715144957588396579,10.6265112956964102863822,0.0125754445830071927281413,0.00605389592779632165070458,0.0571456476801154925060366,7.03148471237422079127555,-0.0475254774808103741534637,3.5735570330142203410162,1147.11074593301327695372,1151.55458383128075183777,1143.57449867909303975466,1156.22603946895242188475,137.905039086920112367807,196.05560951357776389159,-555.855613398932632662763,-447.791236191777102249034,155.978077371032753717373
45.645000000000003126388,-3.86054517704739730277197,-0.086456167081014126396532,0.638079976461770836948517,0.055186728314498757763662,0.100512598771405170516857,0.0301032753784136568320218,-0.00376780549655857111002177,-0.00773268104073094892508822,-0.219697850261417443329393,0.975528227097848921189893,0.0743770051304872836794857,0.144969523811416450831402,10.6224901768495723075603,0.0128270480862798345877973,0.00638832154487131795989052,0.0592008287881512842987242,7.03153459845015316176386,-0.0475126480574439222226424,3.57373198202018338420771,1147.4842183498440135736,1152.09898281477012460527,1142.4308128075317654293,1155.43403017711125357891,144.508691999698129393437,215.565925737408861095901,-370.300467745247885886783,-224.609174771807062143125,155.977935237444199856327
45.6475000000000008526513,-4.13386784082757419156451,-0.0961390997372420647026914,0.683247220946663014196076,0.0454890112997535442374009,0.10097989809491114687745,0.0312517137739536723928246,-0.00376528488188459164662247,-0.00768568276392738673058469,-0.219683663513361215890995,0.975531960790119945237109,0.0744647876707447142763385,0.143341387250567026123704,10.6171020721037674405807,0.013082845051341029582459,0.00671149485302941460618253,0.0611978017106568419891666,7.03157804157265253763853,-0.0475038498549961440975409,3.57390891209946826023724,1147.83328939301213722501,1152.63241345996834752441,1141.72299634036585302965,1155.10299359509281202918,118.465611740537923424199,183.957880546435234236924,-174.727930550329546122157,-53.2346486123089874809011,155.977896459230038317401
45.6499999999999985789145,-4.27437816737167430858335,-0.114344705112376182620793,0.661223204397370256657496,0.0349012574505143946534957,0.100925670698674196934519,0.0331749716492937204992408,-0.00375483371952929157258638,-0.00763514584568584977336547,-0.219681335709239339282206,0.975533062295112607387182,0.0741126583899031632363119,0.140759081237592953428361,10.6105056044453309738174,0.0133439999873945815134224,0.00702467782205242093074293,0.0631401911397814347148838,7.03161336489817667683155,-0.0475005258028688842619758,3.57408527399841968730243,1148.07654640854616445722,1153.01877221750146418344,1141.55717315478091222758,1155.16785693404995072342,65.5899954266834441796163,105.676456263327565920918,51.7314757337507202805682,76.8079366954741971085241,155.977983194735259075969
45.6525000000000034106051,-4.27026060948375896231255,-0.124531019992106375959828,0.519560251212839996348691,0.0218146846823559573125273,0.100160941454961335828067,0.0365165243093936650597975,-0.00374441159883196665950078,-0.00756501599880726304653278,-0.219680862147559968766686,0.97553384522537944789633,0.0729775131064051008067395,0.136988892146814561501245,10.602858244856674829748,0.0136108742529641897622827,0.00732825304246965871651787,0.0650356465862979710168545,7.03164309373497964372746,-0.0475013198210855122627372,3.5742591762865902893509,1148.16123937014572220505,1153.16079574128525564447,1141.98165371903473896964,1155.48703327857037947979,-13.7689755298581584241902,-16.4457705388856538775144,253.798165235009264506516,131.550799386946891900152,155.97823386561077541046
45.6550000000000011368684,-4.11762198291687919748938,-0.108737980740645834298874,0.289883200769798898832619,0.010960659267731197655249,0.0991951805759371668669289,0.0398713517314758861265211,-0.00373492611754215001612645,-0.00746711779365777893191503,-0.219679016860306497438415,0.975535069905881124796565,0.0708484550794558076702856,0.131989354016998128305005,10.59429926086785833661,0.0138841335573899639366235,0.00762331530266699419762233,0.0668941542328334998179784,7.03166864322225215744311,-0.047504407567690372371505,3.57442821372401642321393,1148.00770153089683844883,1152.93654336480699384992,1142.82616398095660770196,1155.82561093098502169596,-117.643873549757373098146,-167.074936148917061018437,423.999592762014799518511,132.29583409082104594745,155.97856609975931974077
45.6574999999999988631316,-3.81663901701809260558207,-0.0591095630897715065832365,-0.0431701062039373528733677,0.000727625738807104226538169,0.0982496225529061323333835,0.0426181248885184119079561,-0.0037230553998659062994725,-0.00734046321358431449327631,-0.219671441307018017186081,0.975537728093976541643428,0.067648022442582056434901,0.125846421723694229521939,10.5849465940331501911942,0.0141643685710334862187798,0.00791035108687055191212245,0.0687267541539394455352152,7.03169259174435357095945,-0.0475072328372263263940312,3.57459205251727452079535,1147.57302000239747030719,1152.32542106054143005167,1144.10165168284288483846,1156.14851244902388316405,-264.408040794252201521886,-350.332968165551335459895,631.422959015749142963614,133.634094466628852160284,155.979027860236584501763
45.6600000000000036948222,-3.30873229527582557452092,0.0345660246218794098282956,-0.49753474525828278451911,-0.0101636058530094903346042,0.0976718199658543201335803,0.042777700882135880067203,-0.00370867452566816298981101,-0.00718224902789192133634177,-0.219656495806135970694228,0.975542218666827554152121,0.0632814548563947476544911,0.11857991770342214687961,10.574900088723900637433,0.0144506833493373357257816,0.00818770513077392118883591,0.0705444090771637638548341,7.03171771621381846983923,-0.0475076864870396728401936,3.57475223987111778711778,1146.68566132692490100453,1151.18487852397834103613,1145.9832787760369683383,1156.49378140331850772782,-390.112769680563872043422,-470.659049032824668756803,721.944652414862389377959,123.320617176096334333124,155.979733566733671068505
45.6625000000000014210855,-2.79088795680446510871775,0.128969332211655379749615,-0.851571930448130287594211,-0.0176382027433754605405536,0.0979953623936449247366909,0.0394132692471001536138608,-0.00369151171381309995897513,-0.00699116565054101919696183,-0.219640681202766557822414,0.975547112159948603959947,0.0576909071700185127617999,0.110230976606705347031756,10.5642399233246919720841,0.0147406784518403811967691,0.00845229700812275865084988,0.0723564995010271133635271,7.03174555244577437207454,-0.0475046734044423241138944,3.57491058665259053839236,1145.62245615399365306075,1149.97212581537610276428,1147.71137494491904362803,1156.76511553490468031669,-493.543916047013738079841,-511.45494057264971843324,691.757605539980204412132,111.117567494885520318348,155.9804494021459220221
45.6649999999999991473487,-2.21376247005065796003009,0.223306014948566500244453,-1.10489332973848286556517,-0.0231392735256249620912072,0.0989428545245032986521494,0.0340466373164579130805585,-0.00367627957955897217284802,-0.00677361854164143257356345,-0.219623683504083455630962,0.97555245401113321879194,0.0510114545780842587596737,0.100780851308829591528315,10.5530254818905913083427,0.0150317324924691859966419,0.00869907094415604646708839,0.0741695233489524513581514,7.03177699209176143568811,-0.0474980780199482088832497,3.5750687748202318871904,1144.21794174669207677653,1148.62760382111741819244,1149.44206680373372364556,1157.04936924079242999142,-690.890837725975302419101,-581.697375487485942358035,728.794719334009641897865,129.512350500205826620004,155.981299607425512476766
45.6675000000000039790393,-1.49500267952056953291162,0.323436110490083861268573,-1.25515036898483112182134,-0.0276797257373535172952916,0.100045022694817686836899,0.0280654581101809560972349,-0.003671375477292678629615,-0.00654270029489549282547545,-0.219600556842316052552633,0.975559276038250433593646,0.0435439708535487746132731,0.0901749996592939584427739,10.5412998173352256969793,0.0153210357257099697575464,0.00892171752117872779441754,0.0759862468265834339886666,7.03181322718780599245747,-0.0474892628995291152249614,3.57522983228963164847869,1142.16800196536200928676,1147.06363893793718489178,1151.35534854159095630166,1157.41267728740604070481,-800.748581583047439380607,-535.278927572288807823497,655.543331205791446336661,133.341132234204451378901,155.982477348017937401892
45.6700000000000017053026,-0.897708463756231922481277,0.392004231730874785899488,-1.26118074362944398991715,-0.0301335941661524525647664,0.10069081329902357380135,0.0243971003913290435116679,-0.00368611427032540604070698,-0.00629604457536890853991407,-0.219571043076719568665212,0.975567649342297338321828,0.0352866728018476627504185,0.0782813762237475341265736,10.5291047142476088538388,0.0156023939506438284047229,0.00911314455277772300645367,0.0778059383114452773888559,7.03185528985157048964538,-0.0474796873945240657799438,3.57539701446068747259233,1140.21419883877479151124,1145.95120918325460479537,1152.7197834597643577581,1157.71607490196379330882,-808.489471381434213981265,-375.427016065419081769505,483.255881038333654942107,115.981355510499255956347,155.983591578804038135786
45.6724999999999994315658,-0.320934794220244512530371,0.440964931835609696975098,-1.17763820016769349408037,-0.0314872796333011753522335,0.101299518044379047165826,0.0220638909212936586146103,-0.00372513645313706951919808,-0.0060449994875724569198816,-0.219534984131850546829057,0.975577499312574203393922,0.0265110702542630249922695,0.0651389051433140381375253,10.5164721997876782211279,0.0158709046079384338834295,0.00926765565142064970394209,0.0796233255693261782193204,7.03190430979530045618731,-0.0474693342395220013729684,3.57557430211569426958818,1138.12555460845851484919,1145.18650385761179677502,1153.7716279467804270098,1157.99258406495800954872,-912.558173221110905615205,-234.955080327170293230665,383.13416951158114898135,115.756798362085547182687,155.98484484678957073811
45.6750000000000042632564,0.330870079167565223077219,0.466125190738517491961801,-1.01462409064482672604868,-0.0317058667743113711812164,0.102312827524539753931698,0.0199949036703249358182255,-0.0037857902690013010837955,-0.00580481825723208090528349,-0.219492894795588783241058,0.975588489014134307986126,0.0175472978993462258578973,0.0509645074973722189692893,10.5034354694573668353996,0.0161222615530278653994678,0.00938163944654034180625768,0.0814294383279001443565193,7.03196097364748773372867,-0.0474585588172816152940925,3.57576664997410809121448,1135.65140797266690242395,1144.77643378161815235217,1154.63545430732324348355,1158.29485889377451712789,-872.891409172379098890815,-61.0994288715261362199271,250.543550887740877897158,114.154094435057942291678,155.986509507517780548369
45.6775000000000019895197,0.827125193493088661789159,0.446654090573287254617441,-0.845807090508431280717616,-0.0306629680311504421164059,0.103474444669520285189357,0.0182745132407858314194105,-0.00385771852864136809146967,-0.00559118740360926673449438,-0.219451913469025344793906,0.975598922415332414637135,0.00871018922274338636135838,0.036145031119975107314346,10.4900355403466640780152,0.0163529591933733592368228,0.00945432972299739722565892,0.0832129309075761020020323,7.03202289401982749694753,-0.0474474758857316852855845,3.57597490077976543076943,1133.76109756259438654524,1144.88100671325400981004,1155.02434570121977230883,1158.56335453713359129324,-691.861094329798902435869,128.357295032654604938216,91.2929466559865403496588,128.568964857530374956696,155.988029667929396282489
