t,ang acc x,ang acc y,ang acc z,ang vel x,ang vel y,ang vel z,quat x,quat y,quat z,quat w,acc x,acc y,acc z,vel x,vel y,vel z,pos x,pos y,pos z,mot 1,mot 2,mot 3,mot 4,dmot 1,dmot 2,dmot 3,dmot 4,vbat
0.0025000000000000000520417,0.661594773063305607863072,0.357512753680809203249424,1.71322468813254724651074,-0.0926809269358003368077803,-0.160043050224100535938732,0.0210342763776604838033002,-0.00113738233695795908084758,0.00494313063081926358510731,-0.0488884408600857439664011,0.998791281242019768349394,-0.142258997371369766415938,-0.13049040401707162617484,11.3976578918401543205619,0.0615382730559475357723365,-0.0273177512502647754089047,0.953196069797365930220678,-2.02031780711691011376274,1.50182272294573504467508,0.211846985050485797641429,1229.41345028398427530192,1196.71840765870229006396,1217.4526915544340681663,1214.88676481392985806451,-684.323464957924443297088,209.425790254590538097546,-457.492483137957606231794,-632.53712949790497077629,163.416159475625363484141
0.00500000000000000010408341,0.657900386798786818154383,0.535867310974746491325504,1.5240774994133197139945,-0.0865241360372748374851781,-0.158451041785603458089682,0.0302087306085740449346222,-0.00125550556840508869757556,0.00471238661310383489394527,-0.0488546964764652869028794,0.998793814295721782414716,-0.140314932239141043623931,-0.125512398119615481428824,11.3997303022789910897927,0.0617481998453310518271131,-0.0277632836678552950837595,0.956913099929713406588405,-2.02015064071082006691427,1.50174384413607375776678,0.214247157702334628526231,1227.70264162158946419368,1197.2419721343387664092,1216.30896034658917415072,1213.30542199018509563757,-811.278746099651584700041,157.032594574639034590291,-595.496987871547503345937,-575.509197915789741273329,163.429540215744822262423
0.00749999999999999972244424,0.406524559939012042342199,0.571342934795764367805759,0.981256283260934836221168,-0.0815465325807356727905173,-0.156301488602593047216871,0.0378706930549130363350407,-0.00137025505845192506829133,0.00448993284551375392704697,-0.0488206576629636249120558,0.998796305486711943899536,-0.138548480646573046737302,-0.120432291692227438906215,11.4016949420095148326482,0.0619435077995870719824723,-0.0282054038713053720210944,0.960644497017089094015319,-2.01998364414614473005827,1.50166648057188445442023,0.216645460400283790258769,1225.35705655348601794685,1197.5035706315754850948,1214.47520661507633121801,1212.00921882435090992658,-1053.87045131274135201238,22.0761761808262235717848,-806.432098352297543897294,-470.254888792123892926611,163.442441708854516946303
0.0100000000000000002081668,0.000632874421486610328792255,0.497622577234078045105292,0.219591527406387765353202,-0.0789686120287610426871083,-0.154023420787405634913014,0.0429028324920175049839166,-0.00148238279360480662387445,0.00427240328223033559440491,-0.0487930753000971953459164,0.99879842636194970939556,-0.136866971760756794829206,-0.115237652792988670702456,11.4034507566197564898403,0.0621293715730917087136653,-0.028644500831487482855886,0.964398979592195448873326,-2.01981687465490722388495,1.50159082751395733801303,0.21904369014050648067915,1222.43328936502575743361,1197.35235301524289752706,1212.27679985482768643124,1210.95414754622447617294,-1295.57593069744120839459,-185.584611910599022621682,-902.663874126437576705939,-366.128169986723094098124,163.454950412953536442728
0.0125000000000000006938894,-0.486290560788016357207653,0.316892666475065198916639,-0.653700371586518169664259,-0.080035367425156905829553,-0.152420170863218518153559,0.0425894423017070394843486,-0.00159516007758005412368874,0.00406030637848116618404681,-0.0487772568926087765617261,0.998799900030210352497306,-0.135257351818978632795876,-0.109973863642823410646798,11.4048629267351113725226,0.0623033776118446097624926,-0.0290859451313803148153614,0.968185287026100738216883,-2.01965004701934480735304,1.50151667728618587460687,0.221443655107209425025871,1218.87917689999881076801,1196.57564757202248983958,1209.96188724444414219761,1210.17857797441729417187,-1659.42531128766881920455,-485.461935477087592971657,-960.885964172075659917027,-285.446835951961531918641,163.466991251167712562165
0.0149999999999999994448885,-1.01612571967723375188086,0.0232778431048846351503201,-1.60141402725134596174428,-0.0849878707501199037732675,-0.152375292661625388879187,0.0353543054419600266680135,-0.00171259298437929853749229,0.00385606437871063162381446,-0.0487763983357237668192496,0.998800546121260679477416,-0.133743039119147311133418,-0.104704076186432515349622,11.4057677693598851220713,0.0624590295396182937359697,-0.0295363031223629252108864,0.972010705670383945431468,-2.01948345841485910057145,1.50144309467315517636621,0.223847392672816752900999,1214.13616280858741447446,1194.92504333785745984642,1207.47237003396730870008,1209.52691336646466879756,-1763.85726540483983626473,-702.221114101393936834938,-816.820497647176921418577,-204.374718567078133446557,163.480907036864977044388
0.0175000000000000016653345,-1.32408069956586693649569,-0.2494916792175190245473,-2.16247762298452173013175,-0.0907680708691461363146757,-0.153792659763919453697056,0.0258512155902671063312237,-0.00183960299740578889747533,0.00365822889178303405077752,-0.0487909327610012918952087,0.998800336191815629760526,-0.132251671850966978638553,-0.0995095667849306420027489,11.4059799513560626849085,0.0625969878178549432590216,-0.0300030235489185358177533,0.975879303420697175042164,-2.01931665138804783410365,1.50136837088597796530109,0.226257887902505311350509,1210.05989057297460931295,1193.06454200151551958697,1205.87778475620825702208,1209.15670438158190336253,-1581.53321319796282296011,-801.309356569299666261941,-513.596798926391670647718,-133.849403097019575170634,163.492064875295227466268
0.0200000000000000004163336,-1.43377419864655664127895,-0.522121490425620171649257,-2.384627190331410240276,-0.096468481492413882261161,-0.155787175075613681940467,0.0158507469045763675630223,-0.00198131436329359233647351,0.00346164568016232333802495,-0.0488203834925732688132527,0.998799303259998771942207,-0.130619292415154297781754,-0.0944768673713359125043709,11.4052985161103492828261,0.0627250224909828291153246,-0.0304928029835895876564766,0.979791326049880284543292,-2.01914936471278583240974,1.50129094563517462290747,0.228678780368548578705301,1206.22849674259759922279,1190.91849655501096094667,1204.90438603933534977841,1208.8576663509795707796,-1550.85585807701204430487,-954.945199347321704408387,-305.060050890279114810255,-147.052503942859488006434,163.502774271448629406223
0.0224999999999999991673327,-1.3244096756401420034166,-0.838769053307230172400466,-2.24354412966206062662877,-0.102229609860203518589827,-0.158241285580025425883122,0.00505502234655295056009461,-0.00213661740759930884880902,0.00326529336748063040221646,-0.0488604775439521119007047,0.998797663513134703627827,-0.128777158036996686174547,-0.0895611931043247405659358,11.4035116605267674572133,0.0628421343253044994980883,-0.0310002633577517588969741,0.983744400010965858172085,-2.01898111399608293226038,1.5012104161653776479568,0.231112588109641303724118,1202.30561128258955250203,1188.28981600477891333867,1204.35248450175686230068,1208.42144186186760634882,-1287.00506234526960724907,-938.368171683941682204022,-141.82211458000890047515,-196.047651220760570822677,163.515115083872188961323
0.0250000000000000013877788,-1.0511765147750733451204,-1.09679938332089488284282,-1.83109952465327663340133,-0.105939184612782580363621,-0.16035668401583932918264,-0.00216682966036888012897887,-0.0022987122858032231660641,0.00307215081848047789209177,-0.0489024555776525274297661,0.998795850882124858216571,-0.126749033401817867705574,-0.0846003837595396268600467,11.4004034026269014390209,0.0629388832211958682005815,-0.0315091924579522578153679,0.987733772431667711444447,-2.0188114570838160410915,1.50112694846301497619834,0.233561226823226747439932,1199.79347143087125004968,1186.22665569659125139879,1204.19527546643530513393,1207.87742809487576778338,-834.261517349932432807691,-770.556264822835032646253,-67.1271238921235493535278,-275.797346858325852281268,163.524979499896943480053
0.0275000000000000001387779,-0.630493392482782688546195,-1.35433850996319038451077,-1.21388067123627640953032,-0.108612788146412148071462,-0.162827504577881587710664,-0.00680790907446241627676287,-0.00245875374208900454933713,0.00288162055676894355085715,-0.0489401406268434868707118,0.998794189336774107523809,-0.124474796291863767927488,-0.0793932086033969225402629,11.3957624307476184100096,0.0630132920550151437444342,-0.0319982193557191360588909,0.991751751717744323144643,-2.01864060228183150869086,1.50104150758234289320114,0.236025706575537425058187,1198.13430369583988976956,1184.437034680664737607,1204.01684888229624448286,1207.0424551275759768032,-540.002950704911427237676,-659.410846994706275836506,-125.021884194529832257103,-389.076004944218027503666,163.534415214161469975807
0.029999999999999998889777,-0.128223695480575661242995,-1.61174222144148315827294,-0.524439668031373651402305,-0.110161673421390715610357,-0.165807670920108285450567,-0.00865627993522865776809816,-0.00261423799241819378863516,0.00268563593941508263474027,-0.048968274042952432412168,0.998792964000979388572432,-0.121714917720629409170208,-0.073886370238520529540871,11.3893882326202451338304,0.0630797857293516617271933,-0.0324575187295280814803178,0.995787433933651655593167,-2.01846908860311291533662,1.50095462081226616035678,0.23850575091818734807525,1197.09345667734669405036,1182.92960146161772172491,1203.57016604546265625686,1205.93204807015467849851,-318.398131848334685400914,-533.332141669506995640404,-290.297145060139826000523,-507.459005101691104755446,163.543500424226721179366
0.032500000000000001110223,0.41389187441999059080544,-1.86152336482231506309404,0.12910498974428880059051,-0.1094559561236045086563,-0.169675019292803236359291,-0.0066292816650242100684487,-0.0027607648465795028673575,0.00248011055664373522566812,-0.0489851652211014329529881,0.998792277924818061585199,-0.118322618321641911953712,-0.0680006689947492415360131,11.3810935749088724122657,0.0631462483986538342106698,-0.0328735735773542717130802,0.999829509713547892602037,-2.01829924451116227146485,1.50086637355045304786927,0.241000255243281918948739,1196.54231303659821605834,1181.77037397231720206037,1202.56536315699554506864,1204.50516010206752071099,-216.70426670743816544018,-444.915691069581555439072,-603.878651493232041502779,-686.70794106110349730443,163.552168868397103551615
0.0350000000000000033306691,1.03375304099763321019623,-2.13468656465974770952698,0.743203423244413130532848,-0.105589826853953044905055,-0.175509839603020467713179,-0.000885008305121280517205329,-0.00289937826556396511384905,0.00226490302097231326408644,-0.0489919210640567467929252,0.998792072478546733016458,-0.114237575530670196211069,-0.0617972199664700086452207,11.37070790861359270707,0.063214678086298325965231,-0.0332440996208066552597415,1.00386645315325018223973,-2.01813183853958921787353,1.50077719190331526633031,0.243506470239336497707328,1196.0099353438095022284,1180.70502300626981195819,1200.55077278799649320717,1202.49850836484915816982,-237.440283324758752314665,-362.66502076041450663979,-874.77070114541720613488,-772.003211297442589966522,163.562096559070710100059
0.0374999999999999986122212,1.48183585472211176714552,-2.32556594499929580877051,1.06346187681496662236214,-0.10056078604084185690315,-0.181136741510914162089918,0.00471718418272784774381012,-0.00303259933726232177447768,0.00204435473276367782324847,-0.0489867766557429556995018,0.998792415399826771782443,-0.109505397303430576649852,-0.0553846577507145845786773,11.3580815932932566170166,0.0632790831943499804124187,-0.0335712500528577775793515,1.00788729835868484663308,-2.01796679674477763555274,1.50068705812740743610334,0.246023045007160323649487,1195.3551116199744228652,1179.95704886851513037982,1198.1915096512684613117,1200.64514404558030946646,-361.875275741931716311228,-319.507593455228004586388,-1060.94801055223842922715,-766.688428772613747241849,163.569979443748110270462
0.0400000000000000008326673,1.83803711560922899970194,-2.46413027752373103851369,1.1868224623067691325673,-0.0949190684701528009092897,-0.186997741915558846059753,0.00915382495909229307318178,-0.00316409025943529924329578,0.00181907244180059429229657,-0.048969507281080661142969,0.998793304117912228434761,-0.104093131373032429798364,-0.048901793868303948531473,11.34309156135838314583,0.063341952373600532433251,-0.0338597530063694113211525,1.01188079987029166950663,-2.01780300549045188418518,1.50059663790480080081124,0.248548726482127835257785,1194.20055896509984449949,1179.10748503899367278791,1195.24603273523530333478,1198.66506622098609113891,-646.185581765984693447535,-468.196008179483726507897,-1378.14088127552054174885,-893.529546963144753135566,163.577463215256415196563
0.0425000000000000030531133,2.17431021809792035526243,-2.55787730181674755058907,1.16429576784026211910827,-0.0885145856662238328382841,-0.194107269125846054746987,0.0122300925156860352399635,-0.00329512674725821949617277,0.00159228925182680267069735,-0.0489348741556287908371914,0.998794983322475293796572,-0.0980401415166175654869463,-0.0424405396862475650654467,11.3256411464035693370533,0.0634006254056690699005827,-0.0341113853900029337373745,1.01583643318681238199019,-2.01764004126069496081186,1.50050572413804439442231,0.251084361179903070571129,1192.12418371114449655579,1177.61606882761770975776,1191.30080524489085291862,1196.17749631076458172174,-861.847755512645107955905,-674.892235109973967155383,-1466.76169100846959736373,-930.312265516750358074205,163.585988764050199506528
0.0449999999999999983346655,2.40490636132211221820398,-2.56680750914162647546846,1.05514265651564342896052,-0.0837329836629791407487389,-0.200208364763470675340429,0.0132523837959351853399426,-0.00342676707141472683057493,0.00136800979434372502012429,-0.0488825431655961623045314,0.998797456367268243759838,-0.091414481643951842060325,-0.0360936247634151621821452,11.3056613577258797675995,0.0634517591758871624119109,-0.0343279151221615799749465,1.01974397540011874063737,-2.01747896485021049883812,1.50041330602122102710894,0.25363227179727754201366,1189.89132018753662123345,1175.73302386344380465744,1187.91222428019295875856,1194.01350489340234162228,-950.894965755288012587698,-926.365183136886571446666,-1320.08832966957993448887,-889.313688133598134299973,163.592718641845323190864
0.0475000000000000005551115,2.61411087922009643946808,-2.49224719923858639702985,0.897213358846184139139268,-0.0789238514716816691452195,-0.206307081756492816104753,0.0139764842998729502121513,-0.00355255013729335400798903,0.00114662626203195687837888,-0.0488157296508827318048951,0.998800582757671140399225,-0.0842235956713743988411025,-0.0297819469338947359626779,11.2831129529329494687317,0.0634993892691969458175194,-0.0344960829419040312937561,1.02359368093335056926207,-2.01732139248254016550277,1.50032016578522386929251,0.256192916267795223195236,1187.36970888236805876659,1172.98424291193327917426,1184.70036359654295665678,1191.73092787009659332398,-1010.44211942125821224181,-1250.94581528805861125875,-1223.08409177339740381285,-940.770802613405180636619,163.599064411831136567343
0.0500000000000000027755576,2.81645153170791884278401,-2.33971200854294947291123,0.711641880562261519571621,-0.0736333662212194234308882,-0.212215806599850870250989,0.0152346650552966835640012,-0.00366505581937620486879248,0.000926527222400375907902792,-0.0487398259509588330229413,0.998804123764450269007398,-0.0764449665279086226776784,-0.0234024824459609301352536,11.257984384537946809246,0.0635520993347301610398858,-0.0346013283870897914162867,1.0273763497569046165836,-2.01716741979921998506597,1.50022778496350883692401,0.258764571052288061547841,1184.83910959043032562477,1169.4782947870035059168,1181.79680382132596605516,1189.30965088033531174005,-960.253847641206903062994,-1563.56701687109375598084,-1067.47140979478035660577,-1017.45038636440813206718,163.605094982818087601117
0.0524999999999999980571097,3.00521533201409551949723,-2.08375145857983490316201,0.490642270362812049633305,-0.067568757632936182755401,-0.217938946527571036915205,0.0170466402448456316731651,-0.00375765618952449316492181,0.000705666269279121762675322,-0.0486579008293581416477736,0.99880795479936157477141,-0.0680601779296964720655794,-0.0168659927763931474786752,11.2302900499180573490321,0.0636193881834753866000298,-0.0346321959094659376221514,1.03108368233133940172763,-2.01701690208897410627742,1.50013741763188512834404,0.261345297514576691000343,1182.56843964416202652501,1165.16640782757781380496,1179.36300654756905714748,1186.64367593827455493738,-886.689213480031412473181,-2020.84928610474980814615,-963.505606401350178202847,-1253.82231606117852606985,163.610749089588068727608
0.0550000000000000002775558,3.18875331360562030980077,-1.65070264384837184223898,0.180029562731341297165955,-0.0590146227291293290484475,-0.224283815595460067626732,0.0189615172320747246703654,-0.00382471088626221448689146,0.000478990550272324607048585,-0.0485736653958482728077328,0.99881192190227541249925,-0.058996887623543589618258,-0.0100971555611648975553374,11.2000694585703026717738,0.0637168017960399596377741,-0.0345800224099089212326241,1.03470801575246995618329,-2.01686870662598494163831,1.50005114600614142261747,0.263933400145991536867029,1180.40566352303017083614,1159.37404835647976142354,1176.97927578931921743788,1183.04053930002942252031,-679.414318860153230161814,-2163.48463865397025074344,-801.063889226906439944287,-1404.64487981894194490451,163.617102936235056631631
0.0575000000000000024980018,3.2772976240359983357564,-1.18924478676619016503935,-0.111600190502503762712827,-0.0508262953162356492797791,-0.228522324499187717838922,0.0198784950578311282731736,-0.00386433620582142013655247,0.000242593579665198775347987,-0.048493910018461046373961,0.998815708021805193084219,-0.0492186743281451816178773,-0.00309945237950945938487646,11.1673842741148465762535,0.0638575048420981783436901,-0.0344444729847199967998073,1.03824247443178996341828,-2.01672255644090903103915,1.4999701447355089367619,0.266529023114107477265833,1179.17136804986125753203,1154.3489846343079534563,1175.35768710143452153716,1179.62045153917983952852,-374.148911998918435983796,-1967.70072638537476450438,-603.104997336641076799424,-1464.63458420862548337027,163.622041191273268623263
0.059999999999999997779554,3.26641401900747752051757,-0.641952100756720933638633,-0.417740988122083989342315,-0.0419837352283559603338681,-0.231163497410083351724097,0.019792472154398377953699,-0.00387918255414109337114725,-4.10781845962013655886762e-06,-0.0484219483418976692767899,0.998819146218522857516575,-0.0387707135642169908873456,0.00402920848508948707678012,11.1323163730184049313721,0.0640470999751045905190594,-0.0342357790713704104867965,1.04168094207200567780092,-2.01657833369172045934192,1.49989400552453777670792,0.269132109264461183428807,1178.53491896303557950887,1149.53554472455289214849,1173.96375080263601375918,1175.71736637898629851406,-162.568677795707202449194,-1979.19871889480509707937,-598.33236604349656317936,-1819.59955177030769846169,163.626611900601375282349
0.0625,3.11624209500611826229033,0.0789394672849239031897639,-0.764538247303122142639609,-0.0313423355322224941876819,-0.232191274196919372752035,0.0182472110466122862393323,-0.00386875396994192533722812,-0.000260112138456838936154125,-0.0483594971193650954854881,0.998822156821248419156234,-0.0277463441030756097216425,0.0112703411285318255002919,11.0949669812039921623636,0.0642862371025990225748004,-0.0339578012274009688464815,1.04501822440857328189168,-2.01643565349719233736892,1.49982175114714189056997,0.271743445064182798098784,1178.35852466088272194611,1144.45299103983393251838,1172.36602527121704042656,1170.52245378032830558368,8.21607089251300948262724,-1697.05534842382644455938,-596.932152670432856211846,-1965.84394601181702455506,163.6316741938415475488
0.065000000000000002220446,2.87654898686154680831351,0.70274991911416295753412,-1.00403480948900591940287,-0.0232333073502079268113363,-0.231127800590459925311748,0.0156028227844500211318746,-0.00384370682097897762782845,-0.000524906961863845196794576,-0.0483115603333359178161999,0.998824450665665830584317,-0.0162232461935597066515768,0.0183692189425471025243652,11.0554554158054756385354,0.0645764455187499419874797,-0.0336364975583091571631478,1.04824862054155376611675,-2.01629351673720602633466,1.4997509609165842192624,0.274362937521750838154588,1178.57599931749814459181,1141.05026798243375196762,1170.97909003928384663595,1165.88814664892720429634,128.193469100915422131948,-1153.5471574517930548609,-585.572871284511506928538,-1870.25811819480463782384,163.635541901203879433524
0.0675000000000000044408921,2.53550041477355803110072,1.31462253238100879038086,-1.15719600855738713462983,-0.0167523796774051471347722,-0.228156511491745567221656,0.0116963951499265729483401,-0.00381445468820380308161422,-0.000798721084283643932566488,-0.0482819393720075387688162,0.998825798535261322186329,-0.00426765246121894870068303,0.0250907865698712165269946,11.0139178214918729281635,0.0649191845454079319299723,-0.0332966034410999978110368,1.05136672444975665108302,-2.01615082248770516315517,1.49967948566959208278604,0.276990891923333648616534,1178.9994920063872996252,1138.68525525257496155973,1169.43816091479448004975,1161.17116318935427443648,179.151854623660085508163,-770.72778679089356046461,-647.552195569732589319756,-1858.24203326369411115593,163.639046455210461772367
0.0700000000000000066613381,2.13006125605792107080561,1.89402291993345706089258,-1.22383178311852636177548,-0.0115682244750592803234079,-0.223777923056206945462421,0.00743552715482164675725452,-0.00378576543870080091044872,-0.0010810151042075302491724,-0.0482704321313481496402709,0.998826190197965813055703,0.00802944926518996127118299,0.0313359155744098519247309,10.9705050723232968579168,0.0653120753910943208087048,-0.0329507551218117047953093,1.05436804343306445019834,-2.01600663630447263230394,1.49960649613086394182915,0.279627655369282468456049,1179.471758590616445872,1137.19662904847928075469,1167.74132906143518084718,1156.59693648260872578248,177.728961056618913971761,-406.870915724858491557825,-711.133141629490182822337,-1746.19937864027042451198,163.642250667373787109682
0.0724999999999999950039964,1.66782282803581427543804,2.41533117235133376610179,-1.18858145431411643677677,-0.00726477076057610408887921,-0.218128362674144510302554,0.00372986384779436111816531,-0.00376032415638346238784262,-0.00136667851195288944654571,-0.0482743467037043336165247,0.998825751104083003895084,0.0204757985661843736058252,0.0370554552788156729703495,10.9253808752039454077476,0.0657415619416100438510142,-0.0326072606567212458505978,1.05724932079857825151237,-2.0158603806493808896505,1.49953230749957189260613,0.28227209398512398408343,1179.88813681167039248976,1136.65090067395067308098,1165.88249520664703595685,1152.44016629615293823008,152.251669229463288957049,-76.5380261136671435906464,-835.064401007368132923148,-1683.89165856774843632593,163.645094225661694053997
0.0749999999999999972244424,1.06817612844201681454592,2.95927219577139943851307,-1.05282033238005956476968,-0.00308525643917751963424267,-0.210395426546527652966745,0.000356199909181024814384953,-0.00373752875721573406958553,-0.0016487614261257693259316,-0.0482882509140908841582807,0.998824755886265069904084,0.032840075081919828381416,0.0422766625778695781523453,10.8787209331766678843678,0.0661888112195225253309161,-0.0322675102104200417496571,1.06000837036802519897094,-2.01571151376399004817586,1.49945823465742189561922,0.284923226093127646141312,1180.2330169367637608957,1136.81393891791094574728,1163.56600705639834814065,1148.17747818976999951701,95.2400351802679381307826,148.357255181417571066049,-842.981330995507164516312,-1422.16550005264116407488,163.648092290434760798234
0.0774999999999999994448885,0.54621999977459212427533,3.33699394807587568223539,-0.886101458013830112214748,-0.00081888969867796156804074,-0.203033220262070823736167,-0.00166470859117628672968481,-0.00372233918572019211942759,-0.00192347801362335499818224,-0.0483097635915038722820292,0.998823307667605186921378,0.0449709978310455643635279,0.0469130493789753633127049,10.8307124998731314491351,0.0666419825041497243534039,-0.0319435675101543761766898,1.06264278402772927023534,-2.01555931403635435472665,1.499385191264119621124,0.287579367431752663808453,1180.36433698757173260674,1137.39268694985776164685,1161.66758855166949615523,1145.32933879588972558849,18.6174493463567891637922,270.933170687476149396389,-728.59532239408440545958,-989.510079737919113540556,163.650248060251300330492
0.0800000000000000016653345,0.0233942784014366106370986,3.62612496177186915957691,-0.690812003326439549866222,-4.92954692752394982562664e-05,-0.194471966695254877555143,-0.00307560757816651179560874,-0.0037202437140215105677854,-0.00218818392386049614603549,-0.0483400676605214157932622,0.998821337131593045555178,0.0567473830246633462182082,0.0508718694688410771886922,10.7815527120503258373674,0.0670920267935288666683036,-0.0316477265038888552761698,1.06515037547143487373091,-2.01540477055088507185587,1.49931334233158786162221,0.290239801231968685968354,1180.32610418349554493034,1138.16860477134832763113,1159.92303044442792270274,1143.22992779108039940184,-58.746075636554401455669,343.097839027768429787102,-715.391961154636419450981,-768.950371075379052854259,163.652051889206461510184
0.0825000000000000038857806,-0.574802429669650338794895,3.85957727260645988565102,-0.446359977545517649932805,-0.000933718616180570157303542,-0.183189764526374476716342,-0.00405235524809116360450689,-0.00373282220898849643672679,-0.0024405522178056124338319,-0.048378445286918411727406,0.998818884593647093872448,0.0680560892093656916168598,0.0541476163674068644571236,10.7314471195099816469565,0.0675306500170804457905405,-0.0313837513577186824620391,1.06752930363668707691716,-2.01524939248556389514988,1.49924192445445614296773,0.29290542326013185858713,1180.07060660938896035077,1139.10817614499660521687,1158.09062874589631064737,1141.48458694051282691362,-135.072690353217581105127,326.850154501516669824923,-629.422541100847752204572,-534.257757682416468014708,163.653814680539596793096
0.0850000000000000061062266,-1.02638851180566370580038,3.95587139122493480769549,-0.24374340722047885265944,-0.00320140863443444398730997,-0.173449362927292932701206,-0.00417312657990328520624113,-0.00375724572363361330323839,-0.00267688679621567266961324,-0.0484199150124771868219931,0.998816218321993631867883,0.0787554237455822536695393,0.0568273985495347036533964,10.6806086656284993097188,0.0679468260970614162941317,-0.0311461581624427122361176,1.0697780857568590651141,-2.01509412595321713013163,1.49917017354494119807384,0.295577336399431178648456,1179.65074073172945645638,1139.80285554385591240134,1156.77591773892368109955,1140.55863900266831478802,-225.51532407542234182074,248.60872528683989912679,-501.381308775261913979193,-291.813692400955631001125,163.654953059106134105605
0.0875000000000000083266727,-1.40637419962288978680931,3.9528074503201970912869,-0.0428357325135279090599916,-0.00693911324893879688513465,-0.163767577810376152580574,-0.00400986541152217792344237,-0.0037889115678725912399194,-0.00289480484004690655566727,-0.0484613531958238349939272,0.998813521892567779403294,0.0887338581987450192301026,0.0590337719851035183649124,10.629256974496716026124,0.0683332389460006989212459,-0.0309247768399087165358541,1.07189500433352025154932,-2.01493949697112872954108,1.49909792069254166335668,0.298256177526582233472396,1178.94302998901184764691,1140.35121977143080584938,1155.58372220201999880373,1140.02551847850804733753,-345.87122603597953229837,191.230110395600064521204,-482.9455074002917172038,-168.033370842931930155828,163.6557538391234345454
0.0899999999999999966693309,-1.71705414325776573036819,3.87322813509543406595981,0.164163779537018633680745,-0.0114897190584893355708163,-0.154275464393462152790093,-0.00400169851757190084967641,-0.00382439060790437787215601,-0.00309372134773673286914364,-0.0484981561665296379004531,0.998811043513941343441331,0.0979221275609949981522107,0.0608610717450477206602599,10.5776175220906178964242,0.068687473451291308768063,-0.03071159047637642830475,1.07387796093905318883799,-2.01478592888235041868938,1.49902547053503476526259,0.300942329733674129865761,1177.92138460154956192127,1140.75900609583391087654,1154.361190201922227061,1139.71847214845365670044,-503.413987301656618456036,122.765086205072520897374,-534.607949041857068550598,-82.8220064823200772252676,163.656278944997637836423
0.092499999999999998889777,-1.94436486838573197033497,3.71089144910241230945758,0.390271733499614859042026,-0.0162453421932075361966419,-0.145412303661216879557827,-0.00418362657690564930523802,-0.00385748246353326100510639,-0.00327192202311345301662948,-0.0485254413942147327931664,0.998809059910391372483218,0.106225454229438187603307,0.062455116455656461971202,10.5259203597517050354782,0.0690053463494499780273017,-0.030492607284590703131677,1.07572540260677862455907,-2.01463312039848219114901,1.49895322936003583258469,0.303636210237712034221147,1176.42596005250356938632,1140.965045202456167317,1152.91068245681071857689,1139.611408446096447733,-784.681261167224192831782,26.0797096708756477312363,-733.740070146904372450081,-5.39643248348510962131286,163.656476618778924603248
0.095000000000000001110223,-2.13200025135329251924077,3.43145559593477633697489,0.688233238804364821916693,-0.0217852426426958789562605,-0.135501411014690431589003,-0.00399219203218799736920808,-0.00388314161593877318554013,-0.00342837621262072735420223,-0.0485408097696747795057881,0.998807721276958937473012,0.113564741532230367715428,0.0639312202736129764346629,10.4743990399838171612146,0.069285240694972549668762,-0.0302558511437717517211787,1.07743618649698746914112,-2.01448170720704311520421,1.49888115266844734740914,0.306337264355371841073605,1173.99797829571343754651,1140.88940464418828923954,1150.69248985118770178815,1139.69148998603623113013,-997.102061087615766155068,-103.550768641525706925677,-910.157322662779847632919,69.1343801997390414726397,163.656341441003007730615
0.0975000000000000033306691,-2.22599031946560943495683,3.13243042827504192260335,0.9477105416536403259542,-0.0263494415466782871959595,-0.127412943877105555579021,-0.00283512737675167695097778,-0.00390070733684912780356302,-0.00356025787298331133912122,-0.0485415294047774059649214,0.998807183140770660223495,0.119827754627894314531922,0.065305089757697193375563,10.4232895925233997047599,0.0695228124171388961460849,-0.0299990960537235874794337,1.07901010334134683787966,-2.01433297261594645988225,1.49880906899910248952779,0.309043744754956994924555,1171.44044974706548600807,1140.44729135924853835604,1148.35989584349681535969,1139.95708034709514322458,-1116.83023085129116225289,-289.926920363313627149182,-1030.54883033118949242635,158.274174196867392083732,163.655922745973384735407
0.100000000000000005551115,-2.25751233897886161017254,2.76901703582063696273963,1.18939974069707221637771,-0.0310707750376131852654282,-0.119449112329668233334345,-0.000425779900432048845695943,-0.00391557206842931514179096,-0.00366565886689087464672676,-0.0485266470077493836110527,0.998807485318291443654459,0.124927354908998283766763,0.066463732030730776623173,10.372828629681988488187,0.0697168217844930104831747,-0.0297331141331697440532977,1.0804476949410879438318,-2.01418801875052499994467,1.49873708140892270002098,0.311753224441551124446192,1168.41382714145697718777,1139.43977004237171968271,1145.53974569953174977854,1140.48286085702056880109,-1395.91975286834781400103,-614.628466210887722809275,-1320.62956280492358018819,302.505925945160640821996,163.655191225683665834367
0.102500000000000007771561,-2.21195889390604083502012,2.27560884364158599879602,1.41469295138300976688583,-0.0373504471164345375200355,-0.110912592251938876830586,0.00387031784182384572950975,-0.00393494203913977592251827,-0.00375235828366589146617982,-0.0485015200178654931617572,0.998808312727533120778389,0.128977077910622406342611,0.0672656225179036892924955,10.3232496762819732083472,0.0698874331678235455322934,-0.0294712121424321425722237,1.08174937951196215024652,-2.01404637295013655418074,1.49866598203418077694948,0.314463374162086028995589,1164.46085098272374125372,1137.37414902819409689982,1141.7567480294721917744,1141.46960997682094784977,-1458.65457278282792685786,-921.730959090793362520344,-1415.26867913430851331213,423.404601815537603215489,163.653957042035330005092
0.104999999999999996114219,-2.09070785301926553856333,1.84358496954734896178252,1.51818606310191128727638,-0.0432268347242249426076732,-0.10541645168128842280364,0.00856664039286588081811846,-0.00396492480966823858390402,-0.00383080640005015703175584,-0.0484725149101074767599151,0.998809294168511385692,0.132141485447571704892056,0.0675947141268460477414592,10.2747815150658663441163,0.070060040436526582752208,-0.0292244547815570902826732,1.08291634713910367437961,-2.01390749763673904126904,1.49859612704939770821966,0.317174225725343927884126,1161.1205542775428511959,1134.83111524691776139662,1138.4634023038602208544,1142.59988386609825283813,-1289.48833387780973680492,-1195.13034653882868951769,-1294.20176447102016936697,507.943559373007758495078,163.65263524435076192276
0.107499999999999998334665,-1.8713809382098642863923,1.43562250860920936901266,1.51210056542827553371922,-0.049226583195080289567791,-0.101933779745584943143832,0.0139071917417312937437224,-0.00400807863992612162934437,-0.00391078299672201114972614,-0.0484445241351944416718922,0.998810145972259033619878,0.134566640654360247797428,0.0674071866832369609445763,10.2276464976709320353621,0.07025717175524399948916,-0.0289970170238436873721977,1.08395080888216965853132,-2.01377092270572832788389,1.49852736516344875461471,0.319886461910508790307262,1158.01340931333470507525,1131.39849729549996482092,1135.28573920711710343312,1144.00932777368598181056,-1168.62096548784279548272,-1508.71717077393304862198,-1215.07997940398013270169,595.656576584360095694137,163.651013155467865090031
0.110000000000000000555112,-1.57416179551793367075163,1.08328849507689350950557,1.41665606246175990179381,-0.0547024059509409535384528,-0.0998239683993232956860098,0.0190001887026862090190882,-0.00406269399821875508427294,-0.00399874336665256499556698,-0.0484201328057885307942776,0.998810724789198078887864,0.136328584520273465852114,0.0667425582446248139012468,10.1820591377796798582267,0.0704921894547703015154738,-0.0287849508060278452825642,1.08485610942525001476611,-2.01363534011456613015412,1.49845979420559216599429,0.322600370594277374713954,1155.27744945010363153415,1127.2875293930480893323,1132.38800240684031450655,1145.57816674902005615877,-978.662706471231103932951,-1771.93211703711153859331,-1057.42598283904862910276,641.619423968267597047088,163.649145142420962883989
0.112500000000000002775558,-1.2068602444484028968219,0.831167068298432121231656,1.24016821436723745364361,-0.0588504681047704245044905,-0.0987405813116520175709567,0.0228411168595587001084457,-0.0041276740285208935593575,-0.00409685479518537461196548,-0.0483975520333185943444576,0.998811111651195737692888,0.137423532989926266978387,0.0656228755101228716783979,10.1382251039749213816776,0.0707673051353940457675051,-0.0285870800657874388206459,1.08563637835147885901677,-2.01349888312011771063226,1.49839336601423100958641,0.32531681542305185272923,1153.12009578097854500811,1122.53883671031439916987,1129.99860929292185574013,1147.21742489352732263796,-806.421191884782501801965,-2167.65734048244485165924,-908.39215596433780319785,704.014898668901196288061,163.646984479563002423674
0.115000000000000004996004,-0.736621975977174825445104,0.666275359239800080146665,0.990163895478499034297215,-0.0616976294127618563045701,-0.0978334715740806909467508,0.0256911166454546271986636,-0.00420629810066527106554579,-0.00420596137408507479704678,-0.0483761729192137279742525,0.998811316676060267916171,0.137835122298727741352309,0.0639814766978644700046175,10.0963394490523530322434,0.0710806132117437344808408,-0.0284120859275893908324484,1.08629586187596749446982,-2.01335965866000243806866,1.49832804035391342623029,0.32803607567523573873558,1151.24534349067971561453,1116.44924269063585597905,1127.84604162701862151152,1149.09824124236456555082,-576.842418534260445994732,-2237.60861418554486590438,-666.14719897502197909489,654.569086456330637702195,163.644058636604455614361
0.11750000000000000721645,-0.364170775935917401255892,0.644009544721440008174795,0.793036856939822620837788,-0.0622806186658154681268229,-0.0969734761271805467686136,0.0269819294633333629784833,-0.00430208198844076426803351,-0.00432386149091700498769963,-0.0483532928072560944099401,0.998811462927585380633388,0.137499505061522142579378,0.0617470237608002403550955,10.0565847191398951565589,0.0714219774029307835627733,-0.0282700960412401725019294,1.08683953221161422320051,-2.01321708695350221063336,1.49826350526625762249466,0.330758243071257007628105,1150.23588368830723993597,1111.35079363938666574541,1126.66787329804674300249,1150.49027032580897866865,-310.07855875823281621706,-1970.32613495548866922036,-354.728711700591475164401,506.663482303566581776977,163.641346928896979306955
0.119999999999999995559108,-0.0579796436840660650569035,0.72737745487889116091651,0.648784043461186676893249,-0.0613209605367881771531557,-0.0957766352231742695844119,0.0274892585320288228289964,-0.00441594472327333942979211,-0.00444840573356938915466907,-0.0483281746250311186607895,0.998811590073647614929087,0.136367289473462049986807,0.058904252553294449146204,10.0191284236540933960669,0.0717800661123001587649028,-0.0281656009046972917453378,1.08727301175135626642998,-2.01307060979102159237186,1.49819985660310872610523,0.333482804670750254683043,1149.69495069688855437562,1106.59761201585843082285,1126.07239806851566754631,1151.63155865388239362801,-160.001533350260018551126,-1934.10304078025001217611,-157.793735604218738899363,445.533946508613496462203,163.638356366584389434138
0.122499999999999997779554,0.202870585593941221702607,0.9213138094271681177716,0.562467200431641334290589,-0.0592524981731186659028587,-0.0938853897481204402453159,0.0274729281235787346771016,-0.00454306658626420223345832,-0.00457585924112703483490616,-0.0482994136526440770440516,0.998811802932695225187842,0.134369892942193369655968,0.0555543682188956236545074,9.98412126520650922145705,0.0721388530618942702687946,-0.028091085649058919471166,1.08760318877856221320144,-2.01292081466260164290816,1.49813675588878747468868,0.336209805997159272283881,1149.4358760215559414064,1101.68027843548543387442,1125.87890462002565072908,1152.7179400583520418877,-52.7389587336983325371875,-1626.20022870755610711058,-15.5095480883573912933571,361.419927673886945740378,163.63445144986371815321
0.125,0.330725073200615726776164,1.13478592099695996253672,0.56261501742385355839815,-0.0575928427798921491187478,-0.0917189944075214730334622,0.0273877841427915234839841,-0.00467711650874163675090101,-0.00470029258616513553881155,-0.0482651894162757638673256,0.998812245494004380397257,0.131412870830155958934427,0.051828871414010921347959,9.95169582931722729313151,0.0724772538422255307999365,-0.0280362117553060591346181,1.08783824178514088032443,-2.01276899600241199195239,1.49807419086124959939355,0.338939138500128189779304,1149.43125590322006246424,1098.46661087232064346608,1125.99485032807388051879,1153.43865829225183006201,14.943419277597046246342,-1064.6269038650179936667,59.9320485900534052348121,267.185396024160354500054,163.630938506523108344481
0.127500000000000002220446,0.386590817992315094464573,1.36529357662656902761,0.612952820777346474301339,-0.0565070188907097759045683,-0.0887264859529622584854991,0.0279965871240851968404506,-0.00480664732348236832526478,-0.00481716579455311166152454,-0.0482245650770770292736778,0.998813038015276766223849,0.127443884048627220639816,0.0479643760509618072296334,9.92196409821422342645292,0.0727769961725340808200713,-0.0279794272005799184166452,1.0879875651380928047729,-2.01261510036963864322956,1.4980132224752837899473,0.34166869300762542360772,1149.51059311794392669981,1096.35714391616033935861,1126.17856486297591800394,1154.05386703847284479707,24.8892535941194879001159,-647.591624913638383986836,51.3377370857142096838288,241.425736492055648341193,163.627162713517066094937
0.130000000000000004440892,0.406852124268633819070828,1.5805599104013854372397,0.671930864860105336866525,-0.055644384118642586933845,-0.0849265963208478275037194,0.0296175058294580705042787,-0.00492119386218969542823309,-0.00492362220408922284659026,-0.0481739191657664655998872,0.998814420086952092781019,0.122463606207232164613252,0.044180896342544906385541,9.89501633764721510999607,0.0730240433839823982475892,-0.027901600453599323392595,1.08806139533457324475307,-2.01245932147242001519771,1.4979551020273653705317,0.344395833727682287861427,1149.55570217119066001032,1095.22865274775244870398,1126.25153901350245178037,1154.64578697471210944059,-15.3582078940871582517502,-217.275647445012310754464,-31.2796978974801902495528,243.354600789780079139746,163.623173284679467087699
0.132500000000000006661338,0.414502523652298837664176,1.74426019625013672964542,0.696153944440442318253304,-0.0547383336666959624539075,-0.0801936101648864640978331,0.0322766943590243743367196,-0.00501747903613867542171878,-0.0050158834364132307004347,-0.0481125025040072193394103,0.998816463971265888766027,0.116477286194088383575185,0.0405574466353893839376532,9.87092038127156712334909,0.0732040959153689718696967,-0.0277988183412564461571836,1.0880705601750915167969,-2.01230239578331326910643,1.49790026670733245062195,0.347119362731574843117244,1149.4338020784734908375,1095.27076567893527681008,1126.02216637348851691058,1155.27064004242174632964,-118.966656326665443543789,265.621553997880027964129,-196.298684131988750323217,289.449112599595252959261,163.618931078455261740601
0.135000000000000008881784,0.446369658383495238052063,1.84899029724943231300927,0.638900251132782037721825,-0.0539699235031519952698886,-0.074061942822594983848461,0.0357656652349693168768674,-0.00509527511905971675076898,-0.00509104842819136857445805,-0.0480427142897530412568585,0.998819072548774222752854,0.109524127807840584991617,0.0371161906357394613675815,9.84972005729241217864001,0.0733062552554124696735371,-0.0276728041757923655385998,1.08802600677071192869505,-2.01214497680417814251541,1.49784857175438612664209,0.34983930901069920649249,1148.96086888955733229523,1096.55676051774184998067,1125.2700455928425071761,1156.09303253771008712647,-237.327671611137503759892,649.183354011119604365376,-356.03785209536874845071,308.489349552610008231568,163.613553821934289089768
0.13750000000000001110223,0.51569322105075798834406,1.84740055765044197677582,0.502097837357535770053119,-0.053871298486323909715523,-0.068989020789480562378948,0.0385400788021118198556358,-0.00515889179001685453662684,-0.0051550005104878419623371,-0.0479728487532945224725012,0.998821794017625830264251,0.101830713708368714165431,0.0337997980218209606584345,9.83143412252543313911701,0.0733405659010707838829646,-0.0275325707459374222074722,1.08793702613181730853853,-2.01198788344413204143279,1.49779905388826395373769,0.352556551338531143358068,1148.24716372041780232394,1098.51668244899087767408,1124.24197711301167146303,1156.81308679018479779188,-345.327758280836576432193,926.473629816791003577237,-473.033222070943850212643,274.240884128994139246061,163.60883759934452541529
0.140000000000000013322676,0.645668203764795722854331,1.75103650091159845914035,0.275182585590597883484776,-0.0541413085224125428807085,-0.0640069684284182982558775,0.0408336181779539730829498,-0.00521103998651742394976338,-0.0052167246796558063015592,-0.0479078644059038744051904,0.998824329348132700090446,0.0936905962816179105345782,0.0305853479121590901557148,9.81605717184354986670769,0.0733245913544932209626737,-0.0273826364795823826159271,1.08781198563284697833353,-2.01183147237276305219211,1.4977507161371483856982,0.355272031264639798209259,1147.23423009815314799198,1101.18912866682580897759,1122.90487948248778593552,1157.46423695835505895957,-484.478204554488456778927,1285.71452643341103794228,-612.320720477100053358299,232.182870538781372715675,163.603881143273838461027
0.142500000000000015543122,0.861599141464253537314733,1.53718870899510884342476,-0.0689861162867198424164528,-0.0539879862385172631933372,-0.0583404258300567329920128,0.0421404104696961809284339,-0.00525403460531931147670104,-0.00528243996994884248280533,-0.0478515351787609025113746,0.998826455174013916327169,0.0853469101607737673509391,0.0274533312792028527660193,9.80356090329888019141436,0.0732708176457824433835953,-0.0272258272879955520728856,1.08765879150807509567755,-2.01167635749418849400172,1.49770210033505013491606,0.357986744428121395067421,1145.82477269764535776631,1104.94525508115793854813,1121.18037351062616835407,1157.97400114287870565022,-517.2289160970673265183,1426.28140586958329549816,-610.415150243855464395892,113.700043314657321502636,163.597659556982705453265
0.144999999999999990007993,1.06019528970263965383936,1.29585631984581461928485,-0.376348555213497026894487,-0.052452474117650936535906,-0.0544144868665457151490905,0.0415850950966254601093297,-0.00529322085311794039708122,-0.00535371889547824140326293,-0.0478064497333918134169828,0.998828014924399987251036,0.0769561636621296785154556,0.0243173560073497579958612,9.79389493481194328694528,0.0731828268960220407191031,-0.0270709759065801483512992,1.08748481350579773163645,-2.01152262529955994097008,1.49765124874557531420294,0.360702451273005098020263,1144.64808551766782329651,1108.3205356961736924859,1119.85280373126852282439,1158.03273717492834293807,-433.243026004495050074183,1350.67272737006260285852,-460.756350194881065363006,-71.4249535798902428496149,163.592249185217610829568
0.147499999999999992228439,1.22039706613924003875127,1.02214707093263834636332,-0.651744027739011300148775,-0.048802040171753928443632,-0.0517670476885912847486715,0.0392507220307706516937429,-0.00533169610192069792775627,-0.00542845073987660055314652,-0.0477720892605947855535931,0.998829032190607146723949,0.0685995329941620213265452,0.0211275240478958278855792,9.78698732299057461148095,0.073056668517773690196826,-0.0269219127960266327304062,1.08729715280925520737298,-2.01136995540170371299382,1.49759666332911778319215,0.363420926732367977063376,1143.65855756762289274775,1111.69861871800821973011,1118.8765917596517738275,1157.61687637497925607022,-344.94661890826108674446,1317.65874016650627709168,-305.440614403368897455948,-241.598265802576634087018,163.586607113873583330133
0.149999999999999994448885,1.30544736740358291449127,0.74931723319956855533519,-0.867266639293786778530659,-0.0440190450790326689989307,-0.05010700924915844484131,0.0360014667415450018150835,-0.00537130594950323628222755,-0.00550827356675753429526843,-0.0477513775350792146756618,0.998829351453685343464883,0.0604251415693279683716277,0.0178563785785752007773119,9.78274545748392476696154,0.072897355635950511487664,-0.0267785201867903957517747,1.08710184664051023872844,-2.01121783676914311911332,1.49753882747143762799169,0.366142438885551979588229,1142.9233524231265164417,1114.9088293970062295557,1118.32560065925167691603,1156.82474584591545863077,-225.611794660198739848056,1210.30607480465619119059,-102.016079997292678172016,-381.737413122391103570408,163.58077482164662797004
0.152499999999999996669331,1.26763655790238249920776,0.506621540411337556442106,-0.989416473666352103144561,-0.0391574762880511767493275,-0.0493076686095640856488664,0.0325882503506324666675553,-0.00540956020762896078873938,-0.00559412021504900047741415,-0.0477438990862012399563064,0.998829001985182207690173,0.052555501182191044495795,0.0145552571501057752961783,9.78105742913155218332122,0.072708612443733056096562,-0.0266320209504543846390501,1.08690517865954583420773,-2.0110661994057261736657,1.49747939578947319994029,0.368866659738902369358726,1142.53049859432189805375,1117.7501490920315063704,1118.36651135966531001031,1155.70818930936729884706,-104.679178938658779429716,1133.13078937035152193857,152.191488410062305547399,-516.26860883402468971326,163.574716095106481361654
0.154999999999999998889777,1.07380237991330851343719,0.276033549808983869056078,-1.02627795254432552241042,-0.0338761086740439754105836,-0.0488900034727299884207419,0.0288840334917110086454528,-0.00545155101778223728087314,-0.00568850827477540392507205,-0.0477476232759652535753148,0.998828038199755297021909,0.0451401752838281253299435,0.0111239328707882761254622,9.78179315595993337240088,0.0724992462297111978086761,-0.0264908578417933741888657,1.08671311723948993410716,-2.01091490314974263853287,1.49741979047041873229773,0.371591463439175651028989,1142.39995652843322204717,1120.57448334385799171287,1119.08655810130198915431,1154.24340280174533290847,-7.46209094622826629716883,921.875811534072568065312,358.992932350065188984445,-519.805461775058120110771,163.567188730556409836936
0.157500000000000001110223,0.807787202308761886904165,0.144330752174628540451806,-0.977288652087049070082969,-0.030219548999043489151406,-0.0487391192191906560959858,0.0262612040082245840055819,-0.005503036417475517909359,-0.00579177583686613789426545,-0.0477625924650543001726,0.998826424939250001600044,0.0382727211611654238865299,0.00744260328209165288038118,9.78480525082989061047556,0.0722745117572524964355551,-0.0263657988818157135169074,1.08653257616388443373978,-2.01076393650128393275622,1.49736145319167368583635,0.374314403629058434219701,1142.49318813959075669118,1122.35952814970187318977,1120.16147602141563766054,1153.10916200049200597277,59.7608642147860749105348,583.012497348135525498947,495.203851301948361651739,-399.165738681312745939067,163.560706215178385036779
0.160000000000000003330669,0.481183908387127989847443,0.0792848532420535184739308,-0.866815154964906131596081,-0.0279085412322776782456657,-0.0486376481199979268654765,0.0241831254449290412866791,-0.00556898428989055418319998,-0.00589746419946025977193438,-0.0477818543952129720642219,0.998824503475444491762403,0.0318975161750559080275913,0.00339850318000338956492268,9.78992979432438659159743,0.0720256598024508892796902,-0.0262684648299525078107841,1.08637212349207135098084,-2.01061406238728679340966,1.49730532438820507223909,0.377034130841039982762197,1142.69876084950715267041,1123.48954583059867218253,1121.5625773578117332363,1152.24757410833876747347,103.246397015027383758934,338.179543360137984109315,642.789508393206574510259,-290.812963718053367756511,163.554012210938566340701
0.162500000000000005551115,0.0976731997308590838002829,0.0773512459763009280200308,-0.688765521862289453736139,-0.0272729780594312722075134,-0.048610643680187297366313,0.0222026482606001648867355,-0.00564802975350826765715828,-0.00599712142496089742338405,-0.0477955190505051641380874,0.998822803961494698476997,0.0258958172713679782295237,-0.0010001526705691616420113,9.79698795924129584022921,0.0717399885438800427595041,-0.0261980904812618153876258,1.08624131668033641062721,-2.01046727138379877075636,1.49725140366050268880826,0.37975080873776512202511,1143.0094201246658940363,1124.0504258665025645314,1123.37542356338167337526,1151.65509718190173771291,123.357060395437542865693,73.9998509814540028628471,648.068049456059611657111,-136.025380526325420760259,163.545743354205939112944
0.165000000000000007771561,-0.15309136829068270557741,0.13641569002944653465903,-0.518665605112679339860904,-0.0286041688026435203529019,-0.0487676465368549749701543,0.0209517403240498702177153,-0.00573536797916303960759299,-0.00608196988102342132181954,-0.0477944645134304249567414,0.998821842963256933956018,0.0201192740345234044596623,-0.00567796985312635400788839,9.8057881989076971507302,0.0714047181353311272156148,-0.0261469400333141296921546,1.08614988021368397141941,-2.01032611528112514776012,1.49719901926374232559169,0.382465042736625515651383,1143.31554615148434095317,1123.85954508550594255212,1124.80291760509203413676,1151.56744720570713980123,138.269173253320218464069,-201.160188667244995031069,509.876873490292837232118,50.4623025762156913742729,163.538662961948745078189
0.167500000000000009992007,-0.271045266981216670387766,0.250645809462290425351227,-0.341543082043142320891604,-0.0311639980789732706778494,-0.0488932830589210581928583,0.0201648329803077314137383,-0.0058289261199647151440173,-0.00615022063219423931190732,-0.0477783336417383422412009,0.99882165712395476475649,0.0145381964249348821782704,-0.0106064500842177767553354,9.81612935553639687213945,0.0710233340862183037955901,-0.0261117680574959043493521,1.0861059165922848368524,-2.01019011026584148993379,1.49714819958098588337236,0.385175108399968268990676,1143.70076599093249569705,1123.0446249231663387036,1125.92480793083313983516,1151.90740869478281638294,173.260846662924308247966,-410.53658837558907634957,371.258936534604458756803,206.087508293421535654488,163.53139509672109852545
0.170000000000000012212453,-0.253493972363973973926932,0.398661486045776225495274,-0.167345410552078938115628,-0.0338923362559956156681018,-0.0486602325474878930067213,0.0197274045518551939537577,-0.00592341563765317116740938,-0.00620132528304301409299848,-0.0477468788222376108731915,0.998822291459703248683866,0.00912524088465812427406476,-0.0156898473486005718413594,9.82780375966609831550613,0.0706015100077329454952846,-0.0260825543040777187153711,1.08611657838056974156871,-2.01005831665526413232215,1.49709928990146146077223,0.387880035863523819905652,1144.18185038479896320496,1121.80686214362799546507,1126.65921228776505813585,1152.59788474717424833216,219.32087720451798418253,-561.660431089557732775575,181.060857507827506651665,360.538176144563863090298,163.523979297808637056733
0.172500000000000014432899,-0.0733066702288698579526027,0.564523183075501089334125,-0.00405407089463922370997651,-0.0359498834759027843799295,-0.0477111967857323793218427,0.0196408891928208685639934,-0.00601064073535342423965089,-0.00623311930955429936707102,-0.0476997151068746516600072,0.998823828956086345876031,0.00380144935700395258937334,-0.0207720453350342740272971,9.84060068103106644343825,0.0701403645946518938814052,-0.0260433914372003756654284,1.08618779290777989210426,-2.00993107937857251599212,1.49705180311299601569885,0.39058183884414243713934,1144.79737037695508661272,1120.23632276771854776598,1126.83011221837227822107,1153.71009957550563740369,298.382477917175208403933,-711.176561560932213978958,-57.6367898361695054632037,584.328927357864245095698,163.516394248714703962833
0.175000000000000016653345,0.293576102608555045136995,0.747765926188977747557374,0.172505960709254280160962,-0.0367554530566785997436341,-0.0456237849493991154403716,0.0198880673935758790771278,-0.00608103122007321635761334,-0.00624590886453175488102207,-0.0476389167151690870460889,0.998826231768017103185286,-0.00147948478908900560302442,-0.0256619023907625962155343,9.85431075879683859852776,0.0696450761371697341095555,-0.0259749496531927470677203,1.08632302134042957320048,-2.00980834606245650775236,1.49700543135469721356401,0.393284001463656718300399,1145.67376277438484066806,1118.25097933582333098457,1126.37102833858421035984,1155.51952938396357239981,335.66596095634099583549,-701.99134969712179099588,-264.072174807280475761218,733.843041580215640351526,163.507108178565488287859
0.177499999999999991118216,0.679237510275308431495489,0.860390437605339841731222,0.299240941172459640196024,-0.0356639333259115634544578,-0.0432706759324644821274042,0.0203826285628632662694226,-0.00612446846515730947135836,-0.00623912593823069440424067,-0.0475659734372174056171723,0.998829500081457766214044,-0.00679243480173845337599658,-0.0301507543732806165825977,9.86872978416663748646442,0.0691170890022398121121938,-0.0258569446258393453863533,1.08652344501815512067822,-2.00968891904131252701404,1.49696028766668809417695,0.395989326768936777956043,1146.47570018173678363382,1116.72636601923295529559,1125.50975134433588209504,1157.37931478340669855243,320.705231813146042441076,-540.759586495826397367637,-409.618642233637842764438,793.66149121160935919761,163.499224865920609772729
0.179999999999999993338662,1.08580686892844835433891,0.904559623787980826570276,0.399231820092923350706826,-0.0327647826946191600416824,-0.0405092010757138049070747,0.0211845012705883413428598,-0.0061404150107104002107028,-0.00622157546198516975960446,-0.0474865154283008947255773,0.998833312083586610796715,-0.012025231395564647818297,-0.0342032474385199417032943,9.88366328170304875300189,0.0685771989302010470668236,-0.0256884390664254419478496,1.08678617659432341646664,-2.00957091798366338508686,1.4969159118681034659204,0.398697864826356829226484,1147.27728893345056349062,1115.54718140334421150328,1124.3229351274160308094,1159.48783684002160043747,334.40160620675641212074,-411.886348856841891574732,-545.737050708930382825201,943.988976259696869419713,163.491201113097503139215
0.182499999999999995559108,1.53374985909072503176276,0.858908306426047873927132,0.480689795520820362106917,-0.0277805709133394883314505,-0.0368026952467025506021692,0.0224698046222440994679204,-0.00613268297443310492905733,-0.00620344282651785500909414,-0.0474053703855233585229279,0.998837348663208057786278,-0.01703579364334871504294,-0.037861206120402272901071,9.89892951824079148082092,0.0680473263244874559951825,-0.0254779310519918783528581,1.08710608037570355399737,-2.00945144781175111248217,1.49687209150083799791275,0.401409702990297545532883,1148.14770821277056711551,1114.66693427494874413242,1122.78106609079122790718,1162.09925966470518687856,293.2352110707594761152,-231.272858467172937935175,-546.008468587660445336951,937.497869564503275796596,163.481421794005854053466
0.184999999999999997779554,1.83962213414374620157332,0.735943613898318527155595,0.510616549387466478471254,-0.0227975507569781708772094,-0.0339467323878830037897636,0.0238232034687248413196148,-0.00611186625866538303653019,-0.00619377078747715067996715,-0.0473235027755301088103757,0.998841440087354093257943,-0.0216954752444921267207079,-0.0412938157494351365528473,9.91436182181469760621439,0.0675453830229005014462729,-0.0252492631742296247399082,1.0874764056540227041836,-2.00932804806570297628809,1.49682894651026510146608,0.404125753571144885611943,1148.74346498880436229229,1114.39081711100834581885,1121.59289278447772630898,1164.17532618784412079549,204.375307177087790933001,-30.5676562024472957546095,-414.111717744389920881076,774.440450059045588204754,163.473155112990866655309
0.1875,2.0518163478658184573078,0.537661489860444374855319,0.495656446044697107655708,-0.0174001000294594608541754,-0.0319782520967474073736447,0.0254250254326914559843686,-0.00608605632468637962328994,-0.00619910611225936089563326,-0.0472464844825000868100418,0.998845229263863876312257,-0.0259211711235404207442912,-0.0446183596005010757457043,9.9298114044363643415636,0.0670822773152238566174432,-0.0250205252094256383466053,1.08788997571505108297174,-2.00920057943023433466578,1.49678635989680519635669,0.406847002333908192017731,1149.16958474865600692283,1114.51409599393650751153,1120.71050750206927659747,1165.97146191500041823019,142.285481361432061930827,96.8116331097461682020366,-279.189446081681808209396,653.630959984911328319868,163.464776805907860079969
0.190000000000000002220446,2.17958051961892751435812,0.295584724505599860666649,0.442753561996468592010245,-0.0119033767241145341936326,-0.0308610294260107387298575,0.0270361694874707951530279,-0.00605928982827146425660381,-0.00622221821418991304780688,-0.0471796604366196137281264,0.998848420304622397480898,-0.0296994613527058887170185,-0.0478693086207591170233577,9.94514870200488054763355,0.0666595436299698973492411,-0.0248013463604154597852425,1.0883400163392040749244,-2.00906996992969588688993,1.4967437723750010025725,0.409575158634929881174003,1149.45489239561152317037,1114.87487527655707708618,1120.19694555406931613106,1167.44348098776868027926,87.4716712492953973878684,180.760977354475301126513,-101.576447490742708623657,499.688221560927104292205,163.45631329567774514544
0.192500000000000004440892,2.20625075750951804565148,0.0275147116047423853646414,0.349823134928802126353276,-0.00645627201241593361158433,-0.0306434275369141632949788,0.0282931818571794634065153,-0.00603031365443611362675558,-0.0062629190103211931570093,-0.0471252346465704866074198,0.998850918576723478814472,-0.0330698536365368472855764,-0.0509720763742990065625627,9.96026416329799424431712,0.066271614639557385739721,-0.0245904284318930327346564,1.08882084822423430559013,-2.00893754979180627628921,1.49670167404887033413274,0.412309745633009427923099,1149.60694310490248426504,1115.41790088070888486982,1120.20262526461556262802,1168.46990302280505602539,56.0250323649597206099315,268.319858848690046215779,122.506238079949866914831,347.4685607608077475561,163.447755388107736962411
0.195000000000000006661338,2.12811046549774518510389,-0.290455334103617790475482,0.206998351147118730963825,-4.90646836481857268746909e-05,-0.03112125360141156787952,0.0291145566177198958368599,-0.00599243486326097880151353,-0.00631924410517585490726367,-0.0470815001151099546405909,0.998852857675447847185524,-0.0361005458297293663205707,-0.0537387050423802151155606,9.97506819699324509542748,0.0659089110457503207785024,-0.024375126780656595354424,1.08932851792340068541876,-2.00880477983863370283757,1.49666132348056013512405,0.415047612534712284659832,1149.73501755743632202211,1116.21647457080052845413,1120.80947674446906603407,1169.18082379157272043813,59.511618455508092040418,320.973484284331505023147,309.157231011749615845474,180.520502497483732895489,163.437386743453146209504
0.197500000000000008881784,1.97838605725223515285904,-0.529343255421469205401763,0.0751009350831940286630228,0.00516262092116165013933049,-0.0320606988710206916581846,0.0292138141047310791187375,-0.00594666746033051338976572,-0.00638694218120724500897811,-0.0470483479378792993075287,0.99885426066439753078896,-0.0388858313786892562102793,-0.0561328736940810771316457,9.98948830091716821755199,0.0655586113620200694462881,-0.0241593331083346032905901,1.08986066448491314417879,-2.00867341808763066879351,1.49662273198505291205151,0.417785305655039740369006,1149.90450119718002497393,1117.02276830213054381602,1121.74841141967431212834,1169.37250553529247554252,111.469421272431546299231,368.045481594390025747998,438.209599432820652964438,7.65168163984525762089106,163.428670303475684022487
0.20000000000000001110223,1.75281557293422629584256,-0.714412664473057845704318,-0.0565233069477582353301592,0.0101445387714158286041055,-0.0338823819452700736309936,0.0288282132924773115689732,-0.00589572085349628332434646,-0.00645939723184785555276655,-0.0470231075489547858947681,0.998855277349782744167328,-0.0415536805648232393517461,-0.0581511394652400245841584,10.0034680971965261875312,0.0652037791358676954711626,-0.0239507272248993957619589,1.09041692457213290623486,-2.00854546959709967524077,1.49658530042391380021627,0.420520744462852147371734,1150.29236466379848025099,1118.05670197877248028817,1123.00052474163317128841,1169.21908219977194676176,255.279925874719765488408,532.451373272987893869868,586.076416562354438610782,-125.864869097540463371843,163.419882489064946184953
0.202500000000000013322676,1.41685254563170071051559,-0.846693343856481872578001,-0.205263050652761486203346,0.0151802408233579627649945,-0.0372930089862699848390903,0.0280598570129482575985502,-0.00584133274599770140750321,-0.00652837869162659501648394,-0.0469996751768875231647371,0.998856237190646201185018,-0.0442540941828026002102803,-0.0597704549821145084131935,10.0169661030919172617359,0.0648244942129427154098309,-0.0237548407193298345696508,1.09099861190230273955137,-2.0084214410466256772736,1.49654850666164374040079,0.423252744342372977381928,1151.18090082655362493824,1119.68502516849548555911,1124.67879350248608716356,1168.74318118980477265723,414.396052006577178872249,678.195616841457535883819,619.6916047497319368631,-206.399145004524882551777,163.40926246660399101529
0.205000000000000015543122,1.1054727518830047561238,-0.871057014163110321369743,-0.320221083580582543959281,0.0181409531131393741976154,-0.0408247411069137741690405,0.0272873127573987628302632,-0.00578137797516151737825529,-0.00659045518810130216691423,-0.046974686941490186031789,0.9988573324297786992787,-0.0470340927196555014244694,-0.06088806171610357947932,10.0299559608368138441392,0.0644114047842609255267732,-0.0235672958275639915504129,1.09160742175578295842797,-2.00830012482058428702203,1.49651241187488914796688,0.425981301075753437945792,1152.36434492383136785065,1121.44768006297977080976,1126.0989827653818338149,1168.18708647474932149635,572.301749421057593281148,802.929950872293602515128,551.239448720479686016915,-238.349967910835204065734,163.400355538825323264973
0.207500000000000017763568,0.791423215675674085467506,-0.81368961645265269755356,-0.428406417604498379603228,0.0198453662817001143248152,-0.0440259416627730437721056,0.0263538968839322831905214,-0.00571820164784005158242763,-0.0066452682404568681404089,-0.0469478925540772473734563,0.998858564068633936194885,-0.0498648779825890814398903,-0.0614920238843948904761127,10.0424237074161055716104,0.0639625347730524984601885,-0.0233920801130579544824251,1.09224448690300746100945,-2.00818081490451305626266,1.49647690003074362863345,0.428707598299686631904137,1154.04240957365891517838,1123.69967492285695698229,1127.43499074608848786738,1167.55143135025059564214,744.577225262631941404834,985.679723193293284566607,513.831551200976377913321,-259.735293725408439513558,163.39139538069522927799
0.209999999999999992228439,0.493864483546694377213981,-0.711125540680734413712116,-0.534171578139025160503195,0.0207613480352536669548691,-0.0462812478483565145626066,0.0252669446852045870288705,-0.00565737050233751023742279,-0.00669567295905198599931252,-0.04692223856824929983933,0.998859745633818629784173,-0.052641120946733746532864,-0.0616387477144919246341281,10.0543671136431136403644,0.0634833169647250200595678,-0.0232387887807916811155895,1.09290978326714371959838,-2.00806177132019270104024,1.49644208592231264809413,0.431432949422747735734873,1156.08723105014450993622,1126.37607867894621449523,1128.66814052138670376735,1166.88841000612228526734,878.437089674802791705588,1166.45196276941169344354,473.548507271291271081282,-269.727672267164393815619,163.382395280366438328201
0.212499999999999994448885,0.229799823663034419318763,-0.593449458408129792985619,-0.640685875280278760435237,0.0210679139834783375750948,-0.0472512226725726180998066,0.0240106872728080220080749,-0.00560731638675396847071308,-0.00675052173131108785436583,-0.046903173090418977253524,0.998860517591593666253402,-0.0551266384785931984335861,-0.0614453495965437621051386,10.0657959319157530586608,0.0629926654536458324740167,-0.0231216183703575571539712,1.09360136008606101398755,-2.0079423310713551131812,1.49640686124848887317285,0.434161155885281702104805,1158.43459502203290867328,1129.53193473670398816466,1129.80273328244493313832,1166.20279298891477992584,1048.21841780690101586515,1472.02197552746702058357,497.290514847963549982524,-308.299060009721586084197,163.373352562485706584994
0.214999999999999996669331,-0.0422539894418002895393194,-0.48263138670754396342133,-0.771780248985120653770764,0.0210599089306607589744402,-0.0473591241336371385206583,0.0224150548932808661717342,-0.00557447660890171125397385,-0.00681469217107191771454211,-0.0468905208320686966994018,0.998860822960749850096818,-0.0571614837272771680876104,-0.0610002547367264821853716,10.076729969039101675321,0.0625006494805094431344017,-0.0230507007164379336405791,1.09431674364656950082519,-2.00782286013448807437953,1.49637023305272665041343,0.436894388131094879579308,1161.32832313917901956302,1133.73618855658355641935,1131.154593095626523791,1165.34691470607367591583,1025.49327184201411000686,1574.68509468121601457824,514.768751130213331634877,-317.952557661919570364262,163.362460241522285286919
0.217499999999999998889777,-0.232494907516934662394803,-0.437829921232306740197515,-0.881809662841937735855424,0.0208603130251278530427061,-0.0472084628714438125918207,0.0210629037206130076409494,-0.00556041194046202457562655,-0.00688639148489624420418354,-0.0468807366750795748155944,0.998860837603127160733152,-0.05872165734911945211838,-0.0603096303977282491293188,10.0871983843463564056719,0.062002639876845469513178,-0.0230259301326238494111998,1.09505367840854606065193,-2.00770320538525393061491,1.49633141601691344035885,0.439632300854067736839426,1163.56206138124298377079,1137.40536021011007505876,1132.37657703809600207023,1164.61303020060518065293,797.581949308777666374226,1438.86127942878238172852,530.640121643818474694854,-288.310003905826022219117,163.353355879256241678377
0.220000000000000001110223,-0.386794313689065583083959,-0.448075761025654717428779,-0.982052271784202623905458,0.0204606244878469366310636,-0.0476059833658820999446881,0.0194767572415559288290243,-0.00556770555505004850760375,-0.00696116600047065690187731,-0.0468697807312120420797363,0.998860773410352953405322,-0.0598356951414232146602146,-0.059414301404555718011391,10.0972392860787181234627,0.0614890424434958449140254,-0.0230493851959653051064691,1.09580974337051229028361,-2.00758354026454277629909,1.49628969643902975938943,0.442374758285483005160188,1165.31623288572291130549,1140.93049495372747514921,1133.80779370384561843821,1163.90536468654454438365,605.291350369042788770457,1426.57955265180908099865,688.619544669654146673565,-283.205404850741388145252,163.344232134061172700967
0.222500000000000003330669,-0.527496664521236002798332,-0.510235686873646621108946,-1.06523384999242831661093,0.0196073042467431700452973,-0.0487544855861046927403279,0.0168836020604234311737191,-0.0055893496347813034427765,-0.00704284777644373447685888,-0.0468591724074350901574348,0.998860568967370077153589,-0.0603762849232534343224543,-0.0581683754287638174473862,10.1069032468867341378882,0.0609686882925488046747198,-0.0231006674534436837187279,1.09658198932499462152634,-2.00746427782052849764227,1.49624658007496580403028,0.445120203398976788111696,1166.58851813308820055681,1144.53825797336912728497,1135.81967476144427564577,1163.19700317635147257533,305.806552675357750104013,1151.05089011481049965369,779.578913976410376562853,-215.27456562857858557436,163.333273072630248634596
0.225000000000000005551115,-0.600120033341110414859543,-0.587594848239903932984873,-1.07797331271591989576564,0.0184373728576926604327824,-0.0500664803983866812941983,0.013927203453155963253085,-0.00561451378692687848998011,-0.0071297212521450673006207,-0.0468486410817031129205645,0.998860305394050129734751,-0.0603366691935560278681194,-0.0563654646645591825282473,10.1162480542346511214191,0.0604391585914560644510196,-0.023152021385318750923421,1.09736858981011620173263,-2.00734662138646591245106,1.49620349222160919921976,0.447866893052697501165227,1166.8452656490997014771,1146.68574940430153219495,1137.70568827372767373163,1162.82899185840165046102,-59.2721714660000955632313,615.604169941206578187121,771.520700313566749173333,-76.5787175733293423718351,163.324141249030020617283
0.227500000000000007771561,-0.612516308694725619687915,-0.671063356674581612537622,-1.00219277849422128134904,0.0166715539589751653160032,-0.0516473521501387977661324,0.0103022739080290259144901,-0.00563294382898122791142326,-0.00721740643693133659269945,-0.0468403935119224984484632,0.998859967702931061950267,-0.0597711127481990178722526,-0.0538261751723065687280645,10.1253374779680651585068,0.0598937865965844251636696,-0.0231773372397408375378269,1.0981682917429613777216,-2.00723197471141290293417,1.49616118433600542303452,0.450614639642661796159473,1166.29215727575819983031,1147.61627882307516301807,1139.67727826301211280224,1162.8141095884848255082,-327.339952320425879861432,147.195463785101168241454,773.214565039415219871444,64.9733864139761294609343,163.315022638701066171052
0.230000000000000009992007,-0.564995544469671928666799,-0.744822493762202220146662,-0.839855381851771554124753,0.0144841905618382487536122,-0.0534119727111328490565256,0.0066943544100008982658534,-0.00563585404473293007099333,-0.00730434221986908573803765,-0.0468358213132285886026729,0.998859554091187429314402,-0.0586857018457710294390139,-0.0504092615976112698450429,10.1342409772697532588381,0.0593335731756585785245939,-0.0231538863346607975968183,1.09897962018287675967088,-2.00712163853668412727416,1.49611984104377615523163,0.4533644772306089643088,1165.20856588749757065671,1147.4217267232270387467,1141.57176109892475324159,1163.15385879047153139254,-502.485274485979516612133,-334.181501200873469770158,698.743058827312211178651,223.429543830070343801708,163.305924885765847420771
0.232500000000000012212453,-0.441392897466718170385036,-0.790256739116531048416903,-0.576421432754879337068132,0.0122016195273340656568539,-0.0555630760704716869513575,0.0037763717684802539792388,-0.00562715336228850754318742,-0.00739378526948236171334461,-0.0468385615548435538246785,0.998858845407796236415265,-0.0569886277335837215796133,-0.046237654676000446152262,10.1430311055000945685833,0.0587725743923969284887576,-0.0230864217486982138682894,1.09980002594768544454951,-2.00701682443324713744914,1.49607916621595338213524,0.456117078409913223602246,1163.77973090332829997351,1145.94537131707079424814,1143.17099355714867670031,1163.93125730763517822197,-616.003636559161691366171,-872.605543015787702643138,587.235049616901392255386,427.159810707371036642144,163.296864183140144177742
0.235000000000000014432899,-0.218812882785697881971032,-0.794804776923240363650791,-0.173297949715178006835359,0.0100307224460515435199293,-0.0587658487817374758366284,0.00169076572807990354804786,-0.00561184276200116845950694,-0.00748142664011697353793062,-0.0468508713078851016242687,0.998857735763980736365397,-0.054753143995676462063571,-0.0414733806110805722222601,10.1517801838223959975949,0.0582089186526174584557225,-0.0229833775933099768162826,1.10062799769518870895979,-2.0069184517100557840763,1.49603918490556764275823,0.458873342406975692764348,1162.1285477047017593577,1143.05869900814809625444,1144.50793634700926304504,1165.28965784400838856527,-528.91625370048086551833,-1163.29051829193190314982,366.989623933931966348609,545.948102392275814054301,163.286048995984174325713
0.237500000000000016653345,0.00362260492960443658549963,-0.752135202325881380147621,0.19855024728786155319149,0.00910911081443527281820138,-0.0615098867933593432266726,0.00145671073352654045600374,-0.00559149359717584903267662,-0.00756037651402642011527755,-0.0468701996176449989239821,0.998856386479695101954235,-0.0521215678192314679773034,-0.0362184100845220902087362,10.1605599769384706831943,0.0576345067676067440709531,-0.0228467494663746363559031,1.10146289720053802696498,-2.00682688479835080741509,1.495998799899501685573,0.461635069398293018672064,1161.13514963482589337218,1140.12891872561112904805,1145.00594167681833823735,1166.66099781959655956598,-257.733937348667780042888,-1174.27398843620358093176,57.822409530035926650271,563.86910099554631869978,163.277094820345070047551
0.239999999999999991118216,0.220855618291888045057192,-0.669468408586062269094441,0.55528910236249362508687,0.00953898969932437217067456,-0.0634533646414865704077357,0.00291976762355847501567707,-0.00556493478047839079669856,-0.00762659198497093928498236,-0.0468924260369146111981919,0.998855029369491331792119,-0.0491938216607565870219787,-0.0305228557577555820179427,10.1694404188536307032109,0.0570464288184103635037658,-0.022672771571776002830223,1.10230470446529560391014,-2.00674101187705744564482,1.49595824826586554223695,0.464403396873705909264629,1160.83987801795842642605,1137.18732906596710563463,1144.79704839465944132826,1168.10900334898610708478,63.7766042959813859170026,-1189.3310226674257137347,-241.268402359993388017756,616.399576331880894031201,163.268213384531151177725
0.242499999999999993338662,0.419825745313907539024711,-0.545433004547882571699802,0.908561684116488521567589,0.0115795861865034023507892,-0.0646979446059571527971599,0.00647696325854081687151131,-0.00553702181318031436130234,-0.00767375680165317125558389,-0.0469112503861821503181595,0.998853980914224282017244,-0.0461214679024792018058321,-0.0245658988861085295085651,10.1784851174484369806805,0.0564359568639640832299342,-0.0224719552969328134617299,1.10315472870822439688254,-2.0066587176409411696909,1.49591833227447335019633,0.467175973237091979317626,1161.45403265630579880963,1134.18226361227402776422,1143.79959966501837698161,1169.74299570125594982528,382.107648371129130282497,-958.761063913697512361978,-458.476763257703680665145,559.685593166295348055428,163.257653256171010980324
0.244999999999999995559108,0.501236549353063054468294,-0.435671413415049502138032,1.11111836738985991779316,0.0140047379606846513627749,-0.0654140047271381253057854,0.0104498146190027275254097,-0.00550944682852713609605422,-0.00770153503159326773691573,-0.0469202724170277793436235,0.998853533107155078241135,-0.0429466164751952650391331,-0.0184603558366274109192595,10.1877515161032050627909,0.0558054473702302503146377,-0.0222478710353403164035058,1.10401563170949623682304,-2.00657791223059378538096,1.49587957404545601747259,0.469949332591566404371264,1162.75041625981407378276,1132.39352374639861409378,1142.50466457837092093541,1170.9074313148175860988,647.359618098243458916841,-532.181378876702638081042,-555.520221831556682445807,407.506142314059275122418,163.248944053239654294885
0.247499999999999997779554,0.474837770223087152210439,-0.328670856611019190918199,1.20669910678821845628761,0.0163359575013679973742864,-0.0664196871471049304913592,0.0144117619161550237355529,-0.00548449567110665878177933,-0.00771461498933957452034393,-0.0469175550168942079309886,0.99885372780211678644946,-0.0396150745012112670551119,-0.0123294753246925865158845,10.1972877950041880268373,0.0551666832379467952929275,-0.0220050637395378667626744,1.10489144689620766293103,-2.00649773072579540311722,1.4958413598410067457678,0.472721190603853758105402,1164.69083074679701894638,1131.52135671789051230007,1141.02199855586059129564,1171.7805264128262479062,843.445092322325876921241,-192.211078018362798047747,-573.054395856569954048609,294.320081367640966618637,163.240340345568085922423
0.25,0.359796568585174059151655,-0.228288200139736913163446,1.22255534467112880747663,0.0180996831940732350041401,-0.0673971962440049338072257,0.0178141175920357407169714,-0.0054656753131102700504762,-0.00772399596440472013814116,-0.0469077953175742815017379,0.998854238827729612459905,-0.0359468349681641291537559,-0.00631716112388686253098502,10.207131087894897092383,0.0545439741585402523837978,-0.021750095397006338066026,1.10578707912776930122334,-2.0064165400117088822185,1.49580352937832006254837,0.475489733214673748751267,1166.96764172142570714641,1131.43246835630679925089,1139.63939259908806889143,1172.37903172165579235298,938.888163067075879553158,138.806160321564561854757,-473.270150222515042059968,171.746276248131692909737,163.231832255296922085108
0.252500000000000002220446,0.153313000522958847726684,-0.143962582281112999593731,1.16582599796519992274568,0.0189965389047969043789799,-0.0678722328098588234546185,0.0205130746239367139915899,-0.00545319017770828397273508,-0.00773906280693576961726698,-0.0468934991984275018062078,0.998854873265562992479261,-0.0317987970045451734391051,-0.000498014614943387626255777,10.2173047653925390676477,0.0539562129670556334115616,-0.0214831965666878350884605,1.10670868959897394923075,-2.00633251319695871117688,1.49576653370953005506294,0.478253288756029182327012,1169.38527156213240232319,1132.21538751949833567778,1138.65564780474801409582,1172.63925779406690708129,1035.17729404602414433612,508.388218536446856887778,-294.037596388488680076989,43.9577759967505343752237,163.223449119055430855951
0.255000000000000004440892,-0.170636250839425573921915,-0.0747694846883814046023531,1.04658439496963273640517,0.0191507335518340676694393,-0.0676523371704464138165491,0.0232367940839536893382622,-0.00544735729759489566842445,-0.00776150812743791728570697,-0.0468737182711054869987954,0.998855657455028023150589,-0.0271833986013305245466043,0.0050496394917817124387005,10.2278169072288882546218,0.0534042332898547744690632,-0.0212064924451690270390536,1.10766318737573499220161,-2.00624634291313741485396,1.49572983886209698312086,0.481013294571999983073596,1172.14352819165583241556,1133.97440944898903580906,1138.16920461714562406996,1172.59882060163954520249,954.8250528151576190794,744.582203738354337474448,-53.3863115929761491429417,-58.6089171948514788823559,163.213546087393694961065
0.257500000000000006661338,-0.479499424682092723060123,-0.0507203521860929082420988,0.924530599010760956169008,0.0186507856612308092758568,-0.0669156431292091818940904,0.0252277331693433436166085,-0.00544993063041465230361693,-0.00779545360227650724338488,-0.046849510214337912461513,0.998856496930981219151136,-0.0220597498680404485726925,0.0102260798278260411214857,10.2386630768982502814879,0.052894044831803398165615,-0.0209253631991633999576141,1.10865610418252891200552,-2.00615941812055487147859,1.49569279647520936293859,0.48377280833348518251924,1174.15939682620819439762,1135.93829853819011077576,1138.38871624678313310142,1172.34621320809264943819,726.715433273283679227461,840.129246662672017009754,200.069725559160190186958,-114.76504772053876024529,163.205433014096087163125
0.260000000000000008881784,-0.796456813679332187305704,-0.0585717378330609314551758,0.796042145986282756453534,0.0173347820605096944457379,-0.0660505936056166031988823,0.0268814361193821030338036,-0.00546251328689098970131655,-0.00784712474458652484154975,-0.0468220840706048066492961,0.998857276145503902853306,-0.0163403994007919328712575,0.0149444258226831185737415,10.2498278007594727512242,0.0524363634770482617275533,-0.0206452176802756695583874,1.10969104332652435118689,-2.0060727770851918272399,1.49565559493899269405404,0.486534878313668039950812,1175.77710535802225422231,1138.17505568230239987315,1139.16955324494142587355,1172.02499536303685090388,617.111627548592309722153,994.290548284879150742199,429.177233499649048553692,-105.157831283986425319199,163.197475147270665729593
0.26250000000000001110223,-1.14381489812269543371315,-0.0815388977136242976140323,0.645792730077486276663024,0.0142999882623832119676877,-0.0657779694160942618452736,0.028412730648755997464594,-0.00548121860970084313902095,-0.00791975455510535684966467,-0.0467929152692736216589964,0.998857920904107743353961,-0.0100002684844346240167212,0.0192364115874366289893338,10.2612858607151604672936,0.052035055733355262130857,-0.020360289326877376026026,1.11077021038501277949706,-2.0059869614818026661851,1.49561935595286343847476,0.489301960454660234134394,1177.2449549639511587884,1140.90975127961451107694,1140.5346024142813803337,1171.82042405167271681421,468.635913860452603785234,979.970581272435993014369,535.241978322982959070941,-3.24203326349561127273091,163.188117202979270814467
0.265000000000000013322676,-1.37466110250467843378885,-0.0849816838989636141876716,0.526118764356065526932582,0.0104756921352573747346915,-0.0665668538512633745085623,0.0293444393880899316584543,-0.00549671141702331479683696,-0.00801599050914290726932432,-0.0467610211213350668302269,0.998858507453030064482391,-0.00302737847684651784074816,0.0232561914634125399548026,10.2730052278342238736286,0.0516925336008520197594862,-0.0200536990929311258191614,1.11189429206052703413832,-2.00590198399774166659881,1.49558572398280342774513,0.492074945324203982810474,1178.12028492732451923075,1143.0749085886645843857,1141.84576313655634294264,1172.0087851967193728342,297.975715050733640509861,816.171233093563614602317,524.036562893479185731849,191.697024639597486839193,163.180487279793283050822
0.267500000000000015543122,-1.51630317588793395167102,-0.0415638527410818331420117,0.406970359506009349281896,0.00588125925135872182347718,-0.0678499764774937591527149,0.0301307886666815141762932,-0.00549954056553920295202786,-0.00813200873584633658619492,-0.0467240456348599897395957,0.998859229609033394403639,0.00446055764500201401556723,0.0271657766289638419321406,10.2849492107709519217451,0.051397341053712269909326,-0.0197096199820136278035854,1.11306317607129878766159,-2.00581734812284206981303,1.49555653356750584137558,0.494852668607764722974451,1178.73483353920482841204,1144.99060744508233256056,1143.1547852287487785361,1172.77890917487070510106,221.085565606563051233024,712.410359128852405774524,507.176915735999045864446,421.523375420155900883401,163.173042605619514233695
0.270000000000000017763568,-1.57493245501285117349255,0.053067867135455505656072,0.279131444023046793034837,0.00129293551597527080383732,-0.0690114404705324951949663,0.0310162263940740624834635,-0.0054827720422871602246051,-0.00826240559703623339560252,-0.0466815168200211058624483,0.998860192848098127349488,0.0123170231576691657782163,0.0310845168908437802235412,10.2970802420012343958433,0.0511354285487621434969085,-0.0193179477691747432388514,1.11427569713044949395453,-2.0057326482437347614507,1.49553295791555074245593,0.497634236455350709160683,1179.22571275535733548168,1146.63696038430884982517,1144.3816477152363404457,1174.11640207382015432813,188.045432551507303742255,584.673814190409188995545,467.916882076223885178479,667.713062563233847868105,163.165759365421166648957
0.272500000000000019984014,-1.53776253473398294424612,0.206859765896083958036655,0.127841295175863206567968,-0.00292847907319338917470075,-0.0696347760872203930260227,0.0320657847590343145216529,-0.00545357136581884217180205,-0.00840554551871519790851028,-0.0466369664483243726027517,0.998861200531830806248479,0.0204859948253467288870056,0.0348542949275567268130338,10.3093634446382491631766,0.0509034359818684306597802,-0.018898823372521071639607,1.11552884393062767820481,-2.00564749417554466504043,1.4955135785651505475613,0.500419238703626034769911,1179.6750607019623657834,1147.91397651603438134771,1145.49436963912989995151,1176.11747448768687718257,206.662925060981990554865,471.581428068156640165398,477.282671531292692179704,996.333635192831025051419,163.158680042755634076457
0.27500000000000002220446,-1.40100521829112212301993,0.435930184107114981895137,-0.0906921289916763628813356,-0.00735773635446814074090316,-0.0694209978178791931036073,0.0331091002741571854839364,-0.00542188861322070395770689,-0.00855890696664611885791096,-0.0465936857660191466878885,0.998862062140491668849052,0.0288944357354987968466986,0.0382667261940003930464904,10.3217678862474340206745,0.0506972329190481518779166,-0.018477821578927730583608,1.11681888397520800992879,-2.00556264074904477823225,1.49549637052246331414551,0.503208482794108791225085,1180.2590273806622462871,1148.99486752464963501552,1146.76806107289280589612,1179.09807024978431400086,223.854035728299805896313,323.027493053950536250341,474.838104504669502148317,1143.45075949545298499288,163.15043219496899951082
0.277500000000000024424907,-1.22844376677347311144217,0.635562263297943519368971,-0.300832253724710507736262,-0.0104016377841806770265798,-0.0682486995636646526230962,0.0332612065647571730764298,-0.0053966726172399925517964,-0.00871684509686439408515657,-0.0465531736051843850199283,0.998862708715245295465479,0.0374009536100024242433193,0.0411374771853744505833994,10.3342677534806970385262,0.0505066376874013511777406,-0.0180775392091417838602574,1.1181418812281795904795,-2.00547976228084090521975,1.49547990025369603728223,0.506002933663757925586424,1180.79433088060386580764,1149.52911398130413545005,1147.86856016165324945177,1181.83472828516414665501,212.456460321163632443131,148.227325992411209654165,471.135575991729240286077,1080.54285317839367053239,163.143773324907527921823
0.280000000000000026645353,-1.01679169255504642244148,0.80487273108869672455512,-0.524682553939714413360207,-0.0124677617159695639653672,-0.065910500409780067854193,0.0322735131428042026913161,-0.00538317319925133395963623,-0.00887130755982550901761474,-0.0465148090450474699375505,0.998863216802125863935657,0.0458061806686823197454217,0.0433608276557130231654291,10.3468431007502310592372,0.0503167106506649461361569,-0.0177114152636323116118966,1.11949395564837872463215,-2.00540023429956004719088,1.49546313346367387708824,0.50880337185659973986418,1181.32130968226806544408,1149.73600415461169177433,1149.12373895285145408707,1184.500784515676286901,204.762631448147487844835,38.9546126809818460401402,607.603583035051428851148,1080.78690658749019348761,163.137346489615993050393
0.282500000000000028865799,-0.734805983982667942910894,0.932917680068321875097581,-0.784712008564598550997005,-0.0138969674459478737676976,-0.0619510205110609182832526,0.0301103554810144107001246,-0.00538514095513807113102533,-0.00901092924720844380692686,-0.0464759949452577467154946,0.998863792581360376843236,0.0538346330980911252916954,0.0448615421088558799511681,10.3594800279954455390907,0.0501057497457254447104091,-0.0173888279279887578154806,1.12087161997971995752721,-2.00532485660077419709069,1.49544480800859225233523,0.511610615598954376892493,1181.81814403784460409952,1149.72388704470904485788,1150.9065780768285094382,1187.23866281810160216992,140.882640156132652009546,-24.8208749001605397666026,706.009686650894991544192,883.462510383878111497324,163.129913355855592271837
0.285000000000000031086245,-0.478027925301099720911679,0.960713072105711218817703,-0.977897841461965788845134,-0.0147800268768771680266694,-0.0583056385787300915368725,0.0277383167729500952625177,-0.00539717745531479668047448,-0.00913603350957655803432633,-0.0464390878987771468788814,0.998864345805346331985675,0.0614358740898856836576414,0.0457646500576142228888799,10.3721696047179037236674,0.0498779147135139933055825,-0.0170961162815293152283935,1.12227105206953403637726,-2.00525418815182909781925,1.49542479808901496163287,0.514424612276020543077948,1182.02572288304872927256,1149.61189978011088896892,1152.65378738610593245539,1188.91809706759568143752,25.6692533081149818485756,-37.5181580762727762135,749.34390110583922250953,519.219554022947249904973,163.123959366526690928367
0.287500000000000033306691,-0.187559177509405539119314,0.90910651565736388945993,-1.13161514038110411206617,-0.0157902371297154210660896,-0.0553237581633798866653784,0.0249972881504778830785707,-0.00541155519115751448139262,-0.00924534698452860598250069,-0.0464039755931271030719998,0.998864928116925399059767,0.068517938956496812763497,0.0462424464716007441178469,10.3849061348008770977458,0.0496336506559866275090087,-0.0168141826953003559186328,1.12368962894957480358471,-2.00518841509966794234288,1.49540345963261889217222,0.517244533227621094972903,1181.94649030438517911534,1149.53629625432768079918,1154.65329758235770896135,1189.83476058821634069318,-80.3822753215180512142979,-7.17677877678405007344509,830.320970207739605939423,241.040616281818728339204,163.118263855642226189957
0.289999999999999980015986,0.142048773530574851120534,0.807424114549151306086117,-1.24446797863288050045583,-0.0168484728423188498402929,-0.0532027852914599766465109,0.022067147826080126676862,-0.00542011780133313386675908,-0.00933700890375565965839666,-0.046368219384401762606096,0.998865712404100269949936,0.0749704633741796744317298,0.0464749414693476012305773,10.397685447637899258666,0.0493716470910821603190755,-0.0165230291512410108756281,1.12512618565811473025917,-2.00512715977435185266131,1.49538130743286168389261,0.520069245317333117561986,1181.62381150644114313764,1149.57601588622696908715,1156.80539223714458785253,1190.12330014900476271578,-175.430753513093776518872,55.041892920872321326442,874.459721365483233057603,-10.4868931581678381803613,163.112789313364970666953
0.292499999999999982236432,0.523140893608905921396968,0.670581104396904659203926,-1.30046674576405130174805,-0.0175496339329776450399745,-0.0518545740487559303488752,0.0189508386393525164737017,-0.00541638761396876118603405,-0.00941203606149747067088907,-0.0463295146445301189719324,0.998866834744696063808078,0.0807395327956796221569036,0.0466081839614427215212622,10.4105026103183373464844,0.049096411864003888791963,-0.0162062898271748273559822,1.12658088671531997349007,-2.00506963395628767798939,1.49535907195573614103523,0.522897576087893223295566,1181.06933653681971918559,1149.81150571893203959917,1159.02559618918508022034,1189.78232612242550203518,-266.944185157580932354904,150.423770985935192356919,952.75518500607097394095,-238.766674142288849225224,163.107588731472276322165
0.294999999999999984456878,1.02010872996392465417159,0.494067280588392887530347,-1.29356634851564500365839,-0.0171142840718560215740318,-0.0507296210558738566720471,0.0151701210117386655479299,-0.00539401330779048192309855,-0.00947586407030396107864512,-0.0462891362123394878302918,0.998868225865456316192592,0.0858599353327147707393152,0.0467870725691861694128804,10.4233491244032840938871,0.0488212759625588216261249,-0.015847571080312927715994,1.12805524793051370480157,-2.00501398514442330522911,1.49533819837861936541401,0.5257282706031712882222,1180.28909058065323733899,1150.32813474115664575947,1161.56916816217494670127,1188.92946677829331747489,-277.46510718789045313315,221.244345809009047343352,878.702726791060854338866,-334.851259314609421835485,163.101673410440923817077
0.297499999999999986677324,1.431218056597600929436,0.35123816526625106781978,-1.22059491165383215971474,-0.01483843041578981024331,-0.050142695742254085600198,0.0122968859214601256707455,-0.00534983701079010543627534,-0.00952887603331556941321789,-0.0462509664005407508668988,0.998869725062697777495657,0.0902637522535380126820215,0.0470826411209504663846204,10.4362111566013524566188,0.0485471166565754341792882,-0.0154385198663299499921564,1.12955284515242104781407,-2.00495892030197531141766,1.49531916440144874158591,0.528560008524286195630282,1179.68201100088026578305,1150.91772744797708583064,1163.41910982314038847107,1188.10806982585245350492,-203.343043540871633467759,254.525314735292113255127,642.824412104982343407755,-287.400174610865860813647,163.097020671546260928153
0.29999999999999998889777,1.77841463171679703414441,0.222472864192977626274228,-1.07028441095125503856877,-0.0100909953667544845939963,-0.049837044052110528180588,0.00989233213996381505195288,-0.00529170579519682403313308,-0.00957705009719664844547449,-0.0462201625017881062573721,0.998870994230387720946851,0.0940124814940443143118642,0.0473394500000387102867094,10.4490676132674806808609,0.0482870749810630633946928,-0.0149954238512516897091631,1.13107770838713372896223,-2.0049030372908402952703,1.4953021456143213985257,0.531390304071837737964756,1179.272375362948878319,1151.60076131483310746262,1164.78329022269986126048,1187.49246590523898703395,-112.524819802774700860937,306.426423264019547332282,445.793631825744853358628,-160.073858489658817916279,163.092660870308776566162
0.302499999999999991118216,2.05346515096744886008651,0.0867199903492372192737037,-0.786828230263613148665058,-0.00246307054183476448541712,-0.0496659192776082586417985,0.00665756663765760484802181,-0.00522766192139337542571509,-0.0096268048653024851368798,-0.0461979854329311392935331,0.998871871656106691261812,0.0971832668578639508050188,0.0473963854518537480720042,10.4618884161065199833729,0.0480538897883773519215111,-0.0145356503367920688457593,1.13263460770965651569497,-2.00484521666393078476176,1.4952876061795798978693,0.534216832610765912647821,1179.11938690186639178137,1152.44985956429718498839,1165.64807798226911472739,1187.3077005334041587048,4.48308973695929680047811,310.709617931661057355086,165.089191384458757738685,53.8600887832671517685412,163.087773336043255767436
0.304999999999999993338662,2.13400283424369563434198,-0.0131649623474476094170393,-0.455558499141796413578476,0.00435803831084822720920435,-0.0496096117765972774438232,0.00325352289039786829460965,-0.0051644489343106768711178,-0.00967799449708441929252078,-0.0461824384453072694922682,0.99887241941164350844673,0.099723546660786852036118,0.0471116134878057993273792,10.4746345546716916885543,0.047844201473769318311291,-0.0140747041320434789629656,1.13422881111204310045082,-2.00478561230432950068803,1.49527473603769345267267,0.537040835027131402412692,1179.29479081163367482077,1153.15430940449141417048,1165.60873617962215575972,1187.76176634915532304149,125.703662076239083944529,284.630928317437565056025,-187.941126283476307889941,314.992632301391211058217,163.083990600592869668617
0.307499999999999995559108,2.05384405826351468249413,-0.104380241388103589539327,-0.0343429962877621480776824,0.0104680198248628814061689,-0.0495950285643495525356172,0.000172752667041929370943254,-0.00511180818870204771442456,-0.00972472388242041560491025,-0.0461714543963312462615534,0.99887274626840438784825,0.101473413487013927603009,0.0462738508619074950800609,10.4872588478839965375755,0.0476411733066741879816242,-0.0136354408542506792823001,1.13586483007402727629653,-2.00472537463956168579671,1.49526184450843602213865,0.539866016784065427813744,1179.74790521224758776953,1153.87301420588437395054,1164.70837235085173233529,1188.88266369491111618117,216.362438660644130550281,298.972154346938339131157,-499.73429000924579668208,542.434542317277646361617,163.080512280088072429862
0.309999999999999997779554,1.8545908477069801278958,-0.191548240211104087160621,0.427481073489503426987568,0.0155465065498882476502374,-0.0496186243482706693108675,-0.00104461593911952025336143,-0.00508174827770741487087403,-0.0097564972738706633864636,-0.0461607459782850115814767,0.998873095347904471630329,0.102190742919933616472683,0.0446196737555957859133748,10.4997069254890611489373,0.04741719043598358052094,-0.0132464906676334169544074,1.13754564887780040827181,-2.00466527172814412693924,1.49524720167428237793672,0.542697052958752812479304,1180.37660300493689646828,1154.64917017622610728722,1163.11006472957592450257,1190.47393906074171354703,279.678790157867979360162,338.715782024291627294588,-781.732103230205439103884,707.86894444990980446164,163.077288180986528232097
0.3125,1.54019755141101022388739,-0.273834110717555700986736,0.865975735111948363709189,0.0196628309872111314837717,-0.0497425986789106905350266,0.00125589101136178550935374,-0.0050745077155243721936384,-0.00977357323495002365543183,-0.0461487209661846503605531,0.998873530948765964154745,0.101860366266959406766901,0.042143468520201919635948,10.5119166755513173683312,0.0471675254814935829283939,-0.0129086174455363064672575,1.13927161769732565588242,-2.0046058840369291864647,1.49523025977508283723694,0.545537754383082384990189,1181.14629916303692880319,1155.5665931160058335081,1160.79971183470070172916,1192.42200841716066861409,358.292929963135634352511,452.323440135250677940348,-1118.55759947898059181171,867.773153821416713071812,163.074372084963471252195
0.315000000000000002220446,1.07033633301782860058893,-0.359162946102050240071435,1.26560006707427019634338,0.0234850875303072650912561,-0.0501345146669938471206684,0.00721507070711052255623796,-0.00508020004999428214514934,-0.00978578908610062275785779,-0.0461336340837884065213537,0.998874079977111417605329,0.100673873448703127264636,0.0390648968384935402209379,10.5238205486508231700782,0.0469080596649087550042978,-0.0125990244552206028666452,1.14104097351692801431966,-2.00454713850460430890621,1.49521172097913335186092,0.548387744748439875941415,1182.16806765475257634535,1156.91078737690236266644,1157.51727673218101699604,1194.81280482984880109143,388.499712507154640661611,539.116527895611852727598,-1226.73630939907411629974,828.961566343831918857177,163.071229826429942022514
0.317500000000000004440892,0.632112549816347901732172,-0.40711060607982380021852,1.44279633782603133873579,0.0254499173746729027978386,-0.0507809000913854238778988,0.0130430843840705842917593,-0.00508750226243956209237762,-0.00980685651526667229171963,-0.0461149688148214872973618,0.998874685323156152882973,0.0989195293652160440034393,0.0356428903382129819155111,10.5353489553593071548221,0.0466634371871944078624672,-0.0122919296446455938998099,1.1428508249127069529294,-2.00448807572427334378062,1.49519372406345052439747,0.551244053927474775278483,1183.0887977255727037118,1158.26217575548389504547,1154.66603028770532546332,1196.56681624887983161898,389.550159522104536335974,583.808960530904528241081,-1083.65690724299292924115,592.097805136608599241299,163.06890890767920154758
0.320000000000000006661338,0.181007126664783329905717,-0.410755043622065607600291,1.44085948847694278462939,0.0261024527397598800348977,-0.0518773444449412216017414,0.0183140163625772553479543,-0.0050917021523656496445609,-0.00985030701936411706709507,-0.0460922355375370379482192,0.998875259586364250274926,0.0969053508650338929486523,0.0320037295585696435207268,10.5464331304568741387584,0.0464588194367503426462918,-0.0119776571894559414471759,1.1446978084757948312955,-2.00442834808044345606959,1.4951784807776122843137,0.554104602673948121172032,1184.11581845236310073233,1159.82983217955688814982,1152.09899219596604780236,1197.77329385553184692981,494.39136335445209624595,716.0471742338806961925,-978.307149831743117829319,360.127025740257181496418,163.066896286948463057342
0.322500000000000008881784,-0.338331651686173018322989,-0.33881285946101846739964,1.25824358457857421456083,0.0254501203637977520266578,-0.0536968171538398514330837,0.0234667319974396285098273,-0.00509020516042234423548241,-0.00992313624913376997327408,-0.0460647979536196391925351,0.998875778692124516311424,0.094820139845722684057705,0.0282299877580716521152659,10.5570071485968171032255,0.0463050357218791341917807,-0.0116530247942029010349563,1.14657895423990385808111,-2.00436766460729742789226,1.49516734174338061791332,0.556968461538029369073399,1185.56075454234496646677,1161.84241162665330193704,1149.7744945385466053267,1198.36745137758111923176,580.39898640099579552043,730.826276531660596447182,-679.767948228663385634718,68.8443624427690679112857,163.064835915967478285893
0.32500000000000001110223,-0.730402143522529745389704,-0.20205868185585940111082,0.995643763586538721455099,0.0238588405320960504629735,-0.0553858263136633513501472,0.0266465440312756741969569,-0.00508492774710438653895661,-0.0100226160883899913234263,-0.0460326430382236237437432,0.998876264856448536910705,0.0926666366137220004484121,0.0243072942066486982759521,10.567009542340226602164,0.0461916167734236146613647,-0.011326775111349293365115,1.14849180338503598086675,-2.00430633464565666201906,1.49516059817793878217174,0.559835823133006282859014,1187.0178133843680825521,1163.48396356221519454266,1148.70015245482272803201,1198.11751566774569255358,647.971098415973187911732,606.07355796623721744254,-222.607448043981804630675,-229.626452188676722698801,163.0634127861134743398
0.327500000000000013322676,-1.05952391381330413011597,0.0164589246294995772412761,0.678228248778162123855395,0.0213480181308587368960161,-0.0565051466775338961934239,0.0284541394113069674720595,-0.00507836500823450644193091,-0.0101384520685502792225474,-0.0459970107208125186804004,0.998876755466591270682386,0.0903007435901292399016427,0.0202092438857941064656032,10.5763840885299487126758,0.0460913521449496238480137,-0.0110098311736783055492239,1.15043414641744701221171,-2.00424477198582273729244,1.49515804661796369856575,0.562707760955298508243061,1188.8006100344248352485,1164.87277941648449086642,1148.66145729832669530879,1197.21931911663773462351,766.369392282285161854816,481.442691995197947107954,154.101428185958724270677,-427.524336208761781108478,163.06229181557779384093
0.330000000000000015543122,-1.32532882721665523639842,0.291992521870733101607698,0.362179645851468556827513,0.0182441696162854855023383,-0.0565360654081311087004735,0.0288900379636907178593219,-0.00506510662981880278865621,-0.0102631816588632102105194,-0.045961129065382147484975,0.998877204794095918671815,0.0876405845521966569977579,0.0160864939262880465853378,10.5850801310631812413021,0.0459833457438636739045279,-0.010694080284271404931995,1.15240319050116335475309,-2.00418290621357098046929,1.49515919108128225722965,0.565585186372884018979335,1190.84966034577951177198,1165.89117702219118655194,1149.47065959575252236391,1195.97989398670188165852,864.697494771916467470874,288.633534271957330474834,500.074455796356687642401,-518.116405258660506660817,163.061418782036184893514
0.332500000000000017763568,-1.50590916239274719146124,0.613597573079885050262305,0.0963361770029790565050831,0.0146298915722563802055411,-0.0552468636479830563223992,0.0277850533329956767003566,-0.00504690490386768778746651,-0.0103846155732745699940001,-0.0459283590177941916654625,0.99887757025937629062895,0.0845195389812550407215852,0.0119406745899822471640439,10.5930539726718659920834,0.0458373444753923595107459,-0.0103874422218841640230824,1.15439587264791998499902,-2.00412114421580422884972,1.49516212225749689501697,0.568468944390847719105864,1193.12409750828442156489,1166.31594708784427893988,1151.16182957730848102074,1194.62873709034442981647,1005.27620675052185106324,32.857952725953481376564,888.600341149002929341805,-547.100338857398583058966,163.060841063234363446099
0.335000000000000019984014,-1.61714998544884425157875,1.02244048432217615740569,-0.127351606180523518885295,0.0098065116236765188101332,-0.0525594184109943393656827,0.0256464329953383640692266,-0.00502686998153592783794563,-0.0104896279888828103388221,-0.045898370425250453741306,0.998877985343456731293088,0.0807583948143337088110272,0.00774990818830223991697803,10.6002688158484748015553,0.0456218873236450897512562,-0.0101001616203965395579534,1.15640882968616498516212,-2.00406034450979531058579,1.49516471276508244869774,0.571360450057031288295661,1195.87604137953212557477,1166.05546678582095410093,1153.91366130149754098966,1193.24439229241488646949,967.282382895608861872461,-218.601953347569889274382,1076.62261673722150590038,-429.205005338735247732984,163.060484119447380635393
0.33750000000000002220446,-1.62014622597854618391011,1.36346305383006671796409,-0.231117182875974463973634,0.00553311792088676934059377,-0.0495505870902139267109021,0.0239870178901667972792833,-0.00500961943471391751847577,-0.0105711394856353065041521,-0.0458712490493213970177422,0.998878497212766225388236,0.0763104489529017049331827,0.00347022209777839672761868,10.6066944806014120672444,0.0453206004291408295903132,-0.00984415457311400149409408,1.15843805557069701173134,-2.0040012355126139986794,1.4951656716788725987044,0.574258965146853150862682,1197.96050942276247042173,1165.22293732110642849875,1156.54494266099459309771,1192.48271206365075158828,735.033982478216103118029,-435.778066263128096125001,1057.4978678390825734823,-203.650680227064924565639,163.060463006978466182773
0.340000000000000024424907,-1.53332394971916685655344,1.68665575382673216253693,-0.270469371724014751023901,0.00142447249911803876069871,-0.0456794879368772610561678,0.0230350013146334055280651,-0.00499642712984410021503923,-0.0106312916917041654779608,-0.045851287092166723158293,0.998878877580672175362508,0.0713217161584454306666458,-0.00086101038578308315696308,10.6123073713202185075488,0.0449391999391858185108894,-0.00962144829067428791757877,1.16047906184553517583424,-2.00394497805331761597358,1.49516508557691918390731,0.577162816879236428846411,1199.55121129192320950096,1163.87657645450531163078,1159.20115064069295840454,1192.22613889127956099401,535.887105411984066449804,-664.680957726613428349083,1106.83665361989278608235,-10.5820064872659624910511,163.060723802168041629557
0.342500000000000026645353,-1.33675442957617840455953,2.03703917854503036011238,-0.284781917442036791587867,-0.00301937582510594139384441,-0.0400678989089272158397037,0.0227432248293742700351316,-0.00499234208171450959817816,-0.0106691693729732590967263,-0.0458404298704608512138314,0.998879018794524564661685,0.065875923355745935605654,-0.00528820687923469041902269,10.6170902651304146502298,0.0444777212161389032263337,-0.00944275519305352861731961,1.16252799749902258064083,-2.00389332435135258947412,1.49516296334258469435952,0.580072038699469771927397,1200.63994494982239302772,1161.89953253247335851484,1162.0791259290940615756,1192.42980203121442173142,243.824211880837310673087,-744.41395915282487294462,966.045715983908849011641,128.522150113440034147061,163.061356645190244307742
0.345000000000000028865799,-1.10843783074540191968538,2.28850071590787207398421,-0.298941864289430148104998,-0.00620162969270503933172378,-0.0349361976175242353037653,0.0229000168953264852944596,-0.0049999579554721599108924,-0.0106864780845915240126143,-0.0458384708867335954884936,0.998878898620705668598418,0.0601063009493524591508873,-0.00980144988352305533696462,10.6210314491801671721305,0.0439426964326861888010534,-0.00931278271519213676765681,1.16458135769820558813592,-2.00384607468133646435149,1.49516021415832578433935,0.582986658134955537668986,1200.7703323513273971912,1160.15450665874118385545,1164.03137922061250719707,1192.86874964184676173318,-106.707522320448234154355,-668.875596826637206504529,663.012121048313360915927,181.894946392867325357656,163.062145988540009966528
0.347500000000000031086245,-0.831940908390217948031875,2.488529119220290297676,-0.339771919647445908019279,-0.00847747445740585151008339,-0.0295426719959659897507542,0.0229824864733492242874213,-0.00501441927227840381076085,-0.0106890438952204087225129,-0.0458426669041843981577955,0.998878605801465591085275,0.0542205408090466051129752,-0.014230068694116025304619,10.624124195168130668776,0.0433497597436912074364557,-0.00921867144709604194319219,1.16663601148956086461794,-2.00380164287421314028848,1.49515816509437238224223,0.585905512970601338729182,1200.10640733822015135956,1158.55515454834016964014,1165.39418653433563122235,1193.33927676317875921086,-379.287875880072192558146,-583.845848170948897859489,444.96329445882980735405,159.256779313272858189521,163.063201521463582821525
0.350000000000000033306691,-0.53093778017005066605094,2.63678370654343385837137,-0.410051254974745427173133,-0.00976695974152896016773351,-0.0236780404971966007554585,0.0227487778468099081929932,-0.00503058093810047207705693,-0.0106866640978538606637782,-0.0458517034651144753110152,0.998878124295711766755801,0.0485027868176333837313408,-0.0183967313207305180333684,10.6263655972632911073106,0.0427238730451582962577284,-0.00914642729172625117139983,1.16868904304914744685107,-2.00375844954679305232048,1.4951578793297359837311,0.588828924822936583538535,1198.87389297192703452311,1157.23527741788643652399,1166.25619569290665822336,1193.66503353841312673467,-596.528328194068990342203,-433.953018574224984149623,239.352791008880274148396,71.7060090652474286798679,163.064473329926926226108
0.352499999999999980015986,-0.215963869343752334906128,2.70717228791957698064152,-0.513077262571897341203453,-0.0101813669675288927946033,-0.0169807022170606822242256,0.0221464408064559470368238,-0.00504730769847731419036618,-0.0106855735076123725679764,-0.0458644719502233552677062,0.998877447064202006465905,0.0431566098565323574831609,-0.0222171042050008371582237,10.6277548529627168250045,0.0420821407113479567518866,-0.00909177095939130673618589,1.1707382289321106583202,-2.00371575323024941894801,1.49515951293126780896614,0.591757076145421723190054,1197.1237656972498371033,1156.38538945546906688833,1166.59095048938002037175,1193.69780680850499265944,-842.308362882212804834126,-247.096951017558950525199,60.2048761970769916729296,-52.9595038270605016350601,163.066000307881097342033
0.354999999999999982236432,0.166258641698319359347735,2.68270748866732722248685,-0.659642453586607335758174,-0.0102453636180659946042226,-0.00822998169795702283479955,0.0210917927528350146459957,-0.00505892809496242060185445,-0.0106918838164559229508832,-0.0458804977374925593291977,0.998876561231118231809489,0.0383685739201081593696685,-0.0255164561134140974174578,10.6282924068470752132498,0.0414409667146338062115873,-0.00903958541343818401669896,1.17278184271079588540942,-2.00367309955531514020777,1.49516321880878844119422,0.59468896055091124974723,1194.66235115751601369993,1155.99979266279865441902,1166.55722007389204009087,1193.40023601927782692655,-930.041284394791659906332,-32.1384483395831637153606,-56.4665840239740148831515,-145.091538461247040459057,163.06812010577650084997
0.357499999999999984456878,0.482850772736289679532007,2.56574274056571338675781,-0.782588094293339864293557,-0.00990699753819788454800577,-0.000918011325686115598788961,0.0198320305040267444440794,-0.00506635076056263268517998,-0.0107046565386357470095469,-0.0458982402692078156336564,0.99887554324019334206497,0.0341712494076999856451593,-0.0282731324309268353123237,10.6279774193981868535275,0.0408011450882823575869729,-0.00899052791952033303335412,1.17481884245235068675584,-2.0036314170976590176565,1.49516777341609241602782,0.59762532019794301074711,1192.47355927527587482473,1156.22469721377115092764,1166.30861756926015004865,1192.9723491161987567466,-868.885742961128130446014,197.715192902296450938593,-117.092984344344486657974,-170.9643691834115486472,163.070120376361956004985
0.359999999999999986677324,0.787551691357215033484351,2.35728564519162064883062,-0.876338065389399289983885,-0.00876525457624102895259899,0.00574466072931789639710587,0.0179017115940376218830021,-0.00507685482843616212034199,-0.0107157857268711451115273,-0.0459159040551065170121525,0.998874526065108181427377,0.0304400904800320309950834,-0.0306155032893084266820694,10.6268061523211088115204,0.0401475776970141723376528,-0.00896048050267752270447996,1.17684872273447260759838,-2.00359233499884625828713,1.49517163569752087326492,0.600567539913701597953377,1190.31792244271036906866,1156.98836862731013752636,1165.9717551521703171602,1192.54541417336076847278,-902.493778637698710554105,440.568748342638684789563,-150.601829898778163396855,-141.867927174052852024033,163.072356169485289001386
0.36249999999999998889777,1.11944410451351972213274,2.0305880786127397108487,-0.914914847046212620362837,-0.00613115991830446693117151,0.0124078254200780842275709,0.0145463997197489147694682,-0.00509417101102300866333206,-0.0107180501744751598136585,-0.0459295557857017158753798,0.998873752267612435851163,0.0270547658958579656518495,-0.0326038129812608809543484,10.6247722230465733161964,0.0394670042529938341901996,-0.00895658056834985893956969,1.17887107423783921156257,-2.00355768812650136823095,1.49517413784274211252523,0.603516556380897517541939,1187.96109038208737729292,1158.42754095548434634111,1165.55560841976625852112,1192.26300948032849191804,-798.206880564838911595871,590.923962355190610651334,-152.284171561177430476164,-38.8530352594898076290519,163.07530278840903292803
0.364999999999999991118216,1.34963276014961786053448,1.72359914854883267132379,-0.860247321857471880512946,-0.00276529229932893005558525,0.0166834371298017654361434,0.0109687302595973760338532,-0.00511757063982847155980682,-0.0107021964175098380916973,-0.0459329913967240696659466,0.998873616947157594303519,0.0238366676704700325428732,-0.0342143208947950500098401,10.621865932978138857834,0.0387408029041923576696327,-0.00897552553423731913628814,1.18088600568498303111653,-2.00352790472888964146136,1.49517516009234685547824,0.606471766762335384726157,1186.32688803988617110008,1159.94298843908609342179,1165.21033429436442929727,1192.35114899706331925699,-554.275137333297152508749,635.482951647736058475857,-145.980774105873791768317,118.01978396456424036387,163.077971497030347336477
0.367499999999999993338662,1.51260979599602607414965,1.41542929496939184907944,-0.703053232722935961263033,0.00115368235173950346716953,0.0197894476265647496771027,0.00735898595961985944879924,-0.00514035897672079043763116,-0.010667817850128748224936,-0.0459200559580977690776749,0.998874448549163518329408,0.0207790049137389354338978,-0.0352980396176535912711181,10.6180748989535764792436,0.0379701277837239600798647,-0.00899889379662437149942633,1.18289354122917078626642,-2.00350238646010225807004,1.49517551009167637410258,0.609431433597885319208842,1185.18971469542088925664,1161.60495571372302947566,1164.82570454923688885174,1192.85310840015131361724,-354.62809612704370465508,660.902443769190881539544,-172.085008674366548575563,266.310236569461039835005,163.080853406963541374353
0.369999999999999995559108,1.61128272633343794240091,1.12710574130093088562887,-0.47158948866916278186423,0.00495844394812791286475395,0.0220986888828898046799321,0.00464404150942651725714194,-0.00514989428144544628823676,-0.0106276195553829180817651,-0.0458933148181413438915222,0.998876056152482649785895,0.0181379587986350981898553,-0.0355803486247607478332178,10.6133845246033828857435,0.0371858693609940713087347,-0.00899240085966988844656811,1.18489340974666546024707,-2.0034788190226411330741,1.49517706863779475945364,0.61239339477135434908206,1184.5537475592509508715,1163.24750065793205067166,1164.34990925099259584385,1193.68270017991062559304,-125.178554202193367927975,624.214229488461000983079,-229.485880454876479461745,388.988460061773025699949,163.083905871921700736493
0.372499999999999997779554,1.62613060413350973831825,0.877315105058512401114967,-0.18649411604817678345114,0.00877201026835326864994347,0.0237348872783106831785283,0.00365588199606566629368265,-0.00513442656294009220491192,-0.0105872943950401539325856,-0.0458589718973563889581335,0.998878148688490674622642,0.0160132064002327240137546,-0.0348245812458906900399569,10.6077757619385781850951,0.0364017056694715540610119,-0.00892451434956018779809384,1.18688621278885841903161,-2.00345561702497398925971,1.49518112360158950124855,0.615356958266886855390965,1184.56382192440992184856,1164.72602686116533732275,1163.67827514696250545967,1194.79805070046018045105,140.462443547676116395451,590.198688386498702129757,-362.160302268102554990037,510.946579257687972130952,163.087156476385075620783
0.375,1.5386335726309690041802,0.626295490317880010344709,0.157864375480315344280058,0.0134606991564800784755285,0.0253141521335715144469525,0.00454003250649398330807127,-0.00509487469313474154730681,-0.0105472530144803296192624,-0.0458209316566873248177671,0.998880530829642454548889,0.0143972898619951911181047,-0.0330778148228506943540062,10.6012243650952218132488,0.035619372166021665004898,-0.00879434890813891173566574,1.18887255312003081719752,-2.00343157155036433181294,1.49518706928107381060045,0.618322259495467485557185,1185.25605977698933202191,1166.19849409986454702448,1162.5391077396520813636,1196.23743307619906772743,338.412779349800700856576,484.124490595558654604247,-485.155970567074746213621,505.870201155448285135208,163.091277046012436358069
0.377500000000000002220446,1.37210790462039988746312,0.452194256914634884481075,0.407042219185795861591259,0.017119396409898048061482,0.0264543391733308673463565,0.00660279294093962885320304,-0.00504311562777873603757861,-0.0105059183358149847015151,-0.0457812905427690403081797,0.998883057612566016558731,0.0132449177950682422943984,-0.0306303930125233977999066,10.5937024520103619806832,0.0348364812173458798794101,-0.00862716075071482541014589,1.19085233149762226290136,-2.00340670465521109022689,1.49519333376890606324139,0.621290900003126811412812,1186.25588582115892677393,1167.1466493141431328695,1161.25249529412712945486,1197.32740170623742415046,434.676833434331967964681,325.116284227169387577305,-591.610985970509659637173,373.370527434917335085629,163.094887751911784334879
