t,ang acc x,ang acc y,ang acc z,ang vel x,ang vel y,ang vel z,quat x,quat y,quat z,quat w,acc x,acc y,acc z,vel x,vel y,vel z,pos x,pos y,pos z,mot 1,mot 2,mot 3,mot 4,dmot 1,dmot 2,dmot 3,dmot 4,vbat
0.0025000000000000000520417,-2.79499048259768212432164,1.03064133710120042763947,-0.937508200648162870471936,0.221141506994483705295096,0.0802337748052033283840956,-0.0139579485878357535677541,0.000126524226067037712890537,-0.0538006101666823333129486,-0.932345869275591820901639,0.357542396971580134223956,-0.249222585904330412587271,-0.0194428040108498983995489,10.2093243722213298241286,0.00117320163179822009591469,0.261434329169100032608242,1.22866106136238872892363,0.362710813277020982514642,-5.26612133977312968369233,0.578488528877878604994578,1216.60027095478085357172,1222.62793091458911476366,1194.14572676789339311654,1176.46904325724062800873,-1197.53760308085475116968,-183.359510256559588015079,-1013.5968017295454046689,224.207668948474747594446,159.434999373237161535144
0.00500000000000000010408341,-3.04562472820073848467359,0.540151065946406494511223,-0.794993147645736919493231,0.215815751084021595351814,0.0832287821251486009677123,-0.0165393807075600481060196,0.000242804455172865058399517,-0.0539506740490984029734456,-0.932327867119558284514369,0.357566352963948841381381,-0.242813951708424569098099,-0.0233245574787013659756596,10.2137143861655648180431,-0.000451219844124890745451495,0.259686963298534412292184,1.22956568926823672782689,0.363012862809284742038329,-5.26628832926163248373541,0.581620782144307790773041,1213.6064269470787166938,1222.16953213894771579362,1191.61173476356952960487,1177.02956242961181487772,-1240.70927313487140963844,-316.660142291993963681307,-901.816725139679078893096,143.529426269105925939584,159.442200106308092699692
0.00749999999999999972244424,-3.30913731474178085534277,0.0132171197847341381770292,-0.589626772729508696890832,0.2087831198118483277959,0.0834218780651239250056861,-0.0186269889955391031166609,0.000360872126527164054695523,-0.0541026214265905303069104,-0.932307716598912983307912,0.357595607638390600158118,-0.236404692584097464447268,-0.027124984795641696178059,10.2180415750093338544957,-0.00207502063486514690127116,0.257938018612734187851032,1.23047792407842360162817,0.363317553633901002552165,-5.26645312759541450731149,0.584751570287118438429275,1210.3967245891064976604,1221.04463020312914522947,1189.63664314219499829051,1177.18669038858615749632,-1412.42238258355428115465,-671.308546804084471659735,-725.146952024215352139436,-24.2238609442210872657597,159.449440641599721857347
0.0100000000000000002081668,-3.5692095311162295168117,-0.578677814722169836514354,-0.30202816943721660924993,0.197437341264537546958735,0.0808103299465619956398754,-0.0204057610965749681997128,0.000485280983777516090535431,-0.0542545011174792521368992,-0.932285689575894305214376,0.357629737383275636553037,-0.230075102543991077963526,-0.0308209974116750856643066,10.2222376886846415544596,-0.00370905223956887603042887,0.256180521082267798060883,1.23140432214075357109095,0.363626352757534632154091,-5.26661552508059127575279,0.587879392764049990560693,1206.54431503416094528802,1218.81298940492729343532,1187.98600000344845284417,1176.90844312489070944139,-1378.91344349436599259207,-966.542646613697570501245,-494.43205051729808019445,-166.510387974767553487254,159.458161883786516455075
0.0125000000000000006938894,-3.69246158387028167169319,-0.99154044181455225359656,-0.0572203433735740119026048,0.186378498737296616205583,0.0771963386618840924358054,-0.0209061545327836051377801,0.000613683812208375275773498,-0.0544027685426696910875322,-0.932263435811107488149219,0.3576649741803973880927,-0.223780747237759314316463,-0.034460923081314071003689,10.2262148960878604952995,-0.00535018947219870547038489,0.254397058545806520335475,1.23235444530660465112248,0.363938691925475843458315,-5.26677444931369542757693,0.591003514592059131516066,1203.50215737163466656057,1216.21191697006065624009,1187.1644828896085073211,1176.35413844871231958678,-1147.55048801575890138338,-1169.4367420559049151052,-243.332097178972645679096,-263.551231106384932445508,159.465447069418559067344
0.0149999999999999994448885,-3.69396810192939906158927,-1.29292259670708320484778,0.154314705698511606124512,0.175736172727165379514602,0.0732101896552779518589915,-0.0202462625130112421067974,0.000740982786031979794721947,-0.0545414851595505886794335,-0.93224165780583490015232,0.357700390347743979457817,-0.217445466357436667514946,-0.0381441792785297828505264,10.2298644053884437710167,-0.00698924902781884044289384,0.252562743349761087419125,1.23333951918179707263334,0.364253491857849054369467,-5.26692848301726623816421,0.594124092409117787738637,1200.80656259408215191797,1212.96580569464776999666,1186.76933951755358975788,1175.59068696935878506338,-1076.56737136417154943047,-1514.10423399238402453193,-123.982799900886647037623,-352.179702133253101692389,159.472739774692826131286
0.0175000000000000016653345,-3.57084877841650172314303,-1.52479633407846693060606,0.330032681810157879631618,0.164544872521319524016903,0.0684165364118828056572141,-0.0183596825047413203524371,0.000860521501746782735767227,-0.0546685622249207803236004,-0.932220969166726143306789,0.35773471500737552553062,-0.21093724633222837860913,-0.0418970775405375847610934,10.2330584078009749759985,-0.00860972602226955929793917,0.250661120113938762354877,1.23436841339810743356509,0.364569391749497151433701,-5.2670761565418811045447,0.597242630142351127453537,1198.11932051481380767655,1208.64139580009873498057,1186.5445688901040739438,1174.5932399380460537941,-881.857498980752779971226,-1594.64599131388217756466,-78.5155878370005524402586,-357.841000909866068013798,159.481488671694734193807
0.0200000000000000004163336,-3.39320826387213259067721,-1.62214888339403628947366,0.392974210842764459794552,0.156344682588022504399206,0.0643878201081298090491245,-0.0160970071402434591889552,0.000966611915662948708444224,-0.0547832144487888639261541,-0.93220285442468731051946,0.357764216762630649082411,-0.204134324533356448228005,-0.0457068269288163631092203,10.2356525314873927356984,-0.0101969959573323040724624,0.248680784639173341199481,1.23544766187299548398926,0.364887087313265356947056,-5.26721713934706503579264,0.600360369261789927897155,1196.39727509917838688125,1204.99257573807835797197,1186.37676157836858692463,1173.80148196480945443909,-579.856688578820808288583,-1390.14811692900434536568,-101.887672512612027730938,-288.661142587852907581691,159.488770230559509855084
0.0224999999999999991673327,-3.17672230101710262317738,-1.64201772960870817641421,0.367333644577815143783539,0.14900216520235276540518,0.0603935890416706921968171,-0.0135985246980213775325197,0.00105257642834724867569873,-0.0548842104927198537467348,-0.932188302557571568662809,0.357786529917352102980743,-0.196905400808941782875294,-0.0495688349776046838224275,10.2374912111337685871604,-0.0117340299729683135432357,0.246610148690769775958742,1.23658204189793141658527,0.365205441723314483404295,-5.26735111625033347593217,0.603478102613807965148851,1195.22003707191970534041,1201.69065521545371666434,1186.03513052754101408937,1173.14993422510679010884,-389.633405154563604355644,-1213.79617669067533825,-184.650985438156538975818,-229.313552728626689258817,159.49603457087775382206
0.0250000000000000013877788,-2.95389662818560871926366,-1.61657697932455413081243,0.285404972743386109446107,0.142513033599645622118146,0.0566276512193683648210829,-0.0116143918069048085461858,0.00112112333774065002847675,-0.0549723744206593936678651,-0.932176819386360766550581,0.35780280607513692547883,-0.189292270048286831451989,-0.0533647882049820068695034,10.2384093003871310401109,-0.0132228252711471747082861,0.244452803909235821810952,1.23777092294602297783968,0.36552245946206957105673,-5.26747719007927894807608,0.606596584747572387108505,1194.44910807340556857525,1198.92359485462498014385,1185.45350665117780408764,1172.65491420116632070858,-232.714767346260430258553,-944.32964790871642435377,-297.238875259108624504734,-161.527757056501258148273,159.503279580675666693423
0.0275000000000000001387779,-2.74466197656746047073284,-1.55898179937200254130403,0.177049504954228831277163,0.137153864790073576340745,0.0534637243840051373799938,-0.0111896267198659596364685,0.00118006691541619793649198,-0.0550523950884647256254212,-0.932167961263801858606826,0.357813459975736936069524,-0.18141075336208500878854,-0.0568666411723142348200177,10.2382407067136913525474,-0.0146747443575108646451888,0.242227724877019878757523,1.23900807342526220189427,0.365836407445276123873157,-5.26759448455577405923123,0.609716860531894111474571,1194.0564632351884029049,1196.9690069759101334057,1184.54893615124547068262,1172.34229543982428367599,-123.822591542057182323333,-673.815330323077773755358,-458.977033879091550261364,-111.738673192030603331659,159.510495968970531066589
0.029999999999999998889777,-2.51424661611615229972472,-1.47381137617075363976937,0.0787295893540576052771485,0.13126721833258334082295,0.0502991957833872488370375,-0.0124376332252866539374025,0.00123950347653747710262306,-0.0551312442026051161003686,-0.932162197744258347320567,0.357816170852268633506554,-0.173405853823853872697214,-0.0597931130432407670349804,10.2368261146084886803465,-0.0161061605294315207670408,0.239962773023510628211952,1.24028291245963062650048,0.366146082413073503669665,-5.26770258398029689317354,0.612842002388954143476951,1193.82999511569528294785,1195.55451820300959298038,1183.1586214817823474732,1172.09622083520616797614,-72.609229499857960377085,-397.252308115730500048812,-536.664188781196457966871,-88.8727840392220826970515,159.519116664099357194573
0.032500000000000001110223,-2.32363078782232967967047,-1.3935342328719571014517,0.0582272776796481927874538,0.126054897353258310577218,0.0477832436946946589872987,-0.0139886745822721900861518,0.00130373527265375990617791,-0.0552130397204022640988974,-0.932160761668218040831846,0.35780708053722137806929,-0.165335682220330321134938,-0.0619700832981159299706064,10.2340216373287002937786,-0.0175236274676159632657235,0.237675315666004416392809,1.24158460090708100409529,0.366450674829564670975657,-5.26780121292534975196986,0.615973542713823873917534,1193.69341708768911303196,1194.98274543533148062124,1181.86561520733948782436,1171.89793151962817319145,-76.5809132092726230212065,-171.643395906357767444206,-506.204049057486827223329,-104.633869977123950434361,159.526264490505809590104
0.0350000000000000033306691,-2.09950447175098808827443,-1.29264816886458988598463,0.117490360533724400027289,0.120216199914505855739222,0.0448463525831311951574953,-0.0150567276825044511767704,0.001379484186016300935676,-0.0552998050402597127184201,-0.932164421641162865839192,0.357783848873181375971342,-0.157325073203792714648941,-0.0632573544786918240401263,10.2297012499461903445308,-0.0189411205370756258181686,0.235381016937210557626869,1.242900469208878311278,0.366752046540900822346742,-5.26789114533725122413443,0.619111932523098595915201,1193.44709054964891947748,1194.69630122347780343262,1180.62760123649491106335,1171.57305148532054772659,-161.391650156520057635134,-153.583912086651338313459,-482.995039074967507986003,-195.337933956170758165172,159.533371327443006748581
0.0374999999999999986122212,-1.75156725921299649684215,-1.12302002871236394909715,0.26790519096033954538072,0.113289174010039267459504,0.0405964138133166549393671,-0.0155188204959026323365157,0.00146824325334646808849381,-0.0553924437343738806927007,-0.932172642682246865852846,0.357747718825632332606546,-0.149413814063775379770149,-0.0635877077867598450300335,10.2237638147658884690827,-0.0203604826598545243787619,0.233089157117876782931987,1.24421773160172133287915,0.367052327803021660734828,-5.26797291353844343575474,0.622257059775057297379419,1192.88645883690651317011,1194.214825874898224356,1179.45064001196465142129,1170.92124184984731982695,-260.171393057089630929113,-259.644081661827044626989,-347.098923872545299218473,-289.144332620844750181277,159.541848983058940802948
0.0400000000000000008326673,-1.37892726339016657988168,-0.926020064752151816911407,0.435097211151804275086619,0.108195796702360902408202,0.0368646805865085538944648,-0.0152710383111512564696666,0.00156736284150861960966228,-0.0554946735348974609647321,-0.932183865535018640890996,0.357702181377682670859741,-0.141546493543841689355389,-0.0628874590602878369427486,10.2161359588165296941042,-0.0217710054199034379329714,0.230812540223697681973647,1.24552229919191814744295,0.367350932931567619732505,-5.26804632799288086175693,0.625408760391898743691286,1192.14623358436347189127,1193.39808081516866877791,1178.8921066171321854199,1170.12732982221632482833,-351.922480729217284078914,-458.671610649116303193296,-104.594037733613632212837,-364.955703707891757403559,159.54886985963193524185
0.0425000000000000030531133,-0.921355880566528839814566,-0.669276990797204929251052,0.605354526622805089175472,0.104193551110690771355216,0.0339618809306372129719342,-0.0139511240373467893666204,0.00166964869937243315205222,-0.0556073679454246183606614,-0.932196772117154237591308,0.357650555687196558540819,-0.133603120705638706011698,-0.0611913354181100460627007,10.2067738777124841220711,-0.0231545593098893727479481,0.228553727970877085251544,1.24680195031949936357307,0.367646016875795345058009,-5.26811183281832118296961,0.62856703853935702586142,1191.12684643326042532863,1191.92146782165264085052,1178.92766982329658276285,1169.09646333130785933463,-496.078593884976953631849,-813.312179016975733247818,173.075127384072487757294,-493.457826693338802215294,159.555843863929510462185
0.0449999999999999983346655,-0.302901353054140010101491,-0.313685422428537696859507,0.761379965473496733707748,0.101178933002010779107493,0.0321784105948327292523459,-0.0108465877939067506519066,0.00177052186044561617704607,-0.0557305601439758921400447,-0.932209675903138412778048,0.357597240923944958979064,-0.125521613482666272165744,-0.0585520481360470787524086,10.1956620841491645279575,-0.0245001638693278997460645,0.226316083830782638353085,1.2480445968751172625133,0.36793692234942376728668,-5.268169824579877591475,0.631731993861699869796666,1189.66584061493858825997,1189.33151992008379238541,1179.75748225405254743237,1167.66004068874963195412,-554.86118443641339581518,-1067.98177710570644194377,435.519664785488430425175,-548.12463509897520452796,159.564157698315227662533
0.0475000000000000005551115,0.232636730500387439724008,-0.00286674944883387938440733,0.820605459571717710254291,0.100485647676208808554144,0.0322125522085882839973259,-0.00745913174846328779626914,0.00186736603962528598631143,-0.0558610835690784429674594,-0.932220659288247821550044,0.35754772909435639238751,-0.117301838527708465753641,-0.0550904718349852773329189,10.1828132193242932856947,-0.0258044963236990568256068,0.224097531932719584712999,1.24923997139551379298439,0.368223230496577846881934,-5.26822066382234233117288,0.634902962052350972044223,1188.35254051107835948642,1186.58155893612411091453,1181.10526814722402377811,1166.35584015581298444886,-515.972659110274889826542,-1179.7669624558227496891,654.327153195981168209983,-533.613026803458978974959,159.571040022650464607068
0.0500000000000000027755576,0.730923369895925323369568,0.294344567103250520645474,0.790509614500195523234538,0.101848867040222210156308,0.0335776965752007383603228,-0.00431150817434200125943811,0.00196264291466675218009175,-0.0559964211067576350666641,-0.932227917264646821493557,0.357507093813110077284989,-0.10903442398490327536198,-0.0509000351555867619479656,10.168265756809214295231,-0.0270760695260820541396818,0.221901981750208587840234,1.25037797853461229991012,0.368504477994654522365892,-5.26826441077356388831276,0.63807852773886231112499,1187.08597731938721153711,1183.43268510780467295262,1183.02911802003245611559,1164.99197555473233478551,-513.249649426097903415211,-1416.8658072936075313919,927.184263211529923864873,-608.820155078911170676292,159.577875183412572823727
0.0524999999999999980571097,1.21434715528175662946353,0.61699231646094643277678,0.661319709761260643432479,0.105890703662687490904659,0.0358401289617282514665675,-0.00152208571868553453956818,0.00206053536355768314794479,-0.0561346073469057571525553,-0.932229740104459914107338,0.357480069687230228581143,-0.100837283138311126218234,-0.0460718832103793954346749,10.152082060142625152821,-0.0283271130511883566238662,0.219735909035483512052878,1.25144989209935486584868,0.368780641833289735131984,-5.26830103411512418176699,0.64125653047323405431257,1185.78629226394787110621,1179.49722989965607666818,1185.7411894632816711237,1163.31173938041843030078,-420.533223261100147283287,-1428.3264001130198721512,1006.93218798578573114355,-623.778964868415982891747,159.586023737823552437476
0.0550000000000000002775558,1.47799400853001050570867,0.856826040856690007707641,0.496187902457929042032703,0.111023039471814591316878,0.037691661357071838678312,-7.63680504247614915349154e-05,0.00216568483524118542832282,-0.056276409409548283635516,-0.93222546625607860537599,0.357468229318034569352847,-0.0928130033192380715645342,-0.0406623597821483204195481,10.1343448106299174327205,-0.0295692151334706679333131,0.217611759515625557970253,1.25244804652723362714539,0.369051814001931710595983,-5.26833012831578439971736,0.64443569700938874156293,1184.98331120308171193756,1176.29105310723957700247,1188.06377895996138249757,1161.87308073039025657636,-250.593089393714535617619,-1232.47482170950092950079,864.633506492327001069498,-587.801686288775613320468,159.59277023698044217781
0.0575000000000000024980018,1.56985542921555665252242,1.07350693181679579524257,0.300486782284582198965239,0.116992964137602462049159,0.0398205158887828744584958,0.00063013146559899992169701,0.00227896914178782761944975,-0.0564193803267234658682661,-0.93221555173830727980544,0.357470754430143311530799,-0.0850136949875047037705755,-0.0348330444805330513569075,10.1151536643105650625785,-0.0308081284402621537188427,0.215529972091213495311024,1.25336905902427009351641,0.369318367948137604717118,-5.26835163718330168336479,0.647615410026917359687104,1184.53332681697929729125,1173.33485579110856633633,1190.06435699574331010808,1160.37273094897454939201,-122.103624174633353050012,-1128.45424257629974817974,687.622479272477335143776,-616.00668279156741391489,159.599472039575516646437
0.059999999999999997779554,1.5252423945815516415081,1.27603421192728738731148,0.100224102582421495388765,0.122351532583449565394496,0.0425453412484204027133039,0.000882688100058447492300695,0.00240266365519271191120154,-0.05656332773758209614412,-0.932200317676209810890953,0.357486813598695385429949,-0.0775024036021460388523607,-0.0287043458148708019450623,10.094619267327685108171,-0.0320499738292804037254058,0.213496292697980344366115,1.25421045552004506440369,0.369581449464502498347684,-5.26836504266269045615445,0.650794537279282270247904,1184.37279308220854545652,1170.64878189435808053531,1191.50189135632376746798,1158.79304731643242121208,-7.16989525576537189976989,-1008.87231965602995842346,376.500062223021984664229,-659.997697617382414136955,159.606137497743276298934
0.0625,1.35274264877741079438067,1.46579155448515097148743,-0.0839496660578533671071,0.125638326110084908027176,0.0457698318212329813281514,0.000711650212101849950242782,0.00253337873548166014198157,-0.0567074042619206616921979,-0.932181710316497658119772,0.357511474578172838700851,-0.0702380695309920283220251,-0.0224596962884209272459657,10.0728602063971717228696,-0.0332883751141768088888107,0.211507827354368377337224,1.25497310733915368174962,0.369842611501111806493469,-5.26837017841831301012689,0.653971515631433297777164,1184.49747734070047044952,1168.29049419282841881795,1191.94685730685841917875,1157.07274246088763902662,92.9562365105538503939897,-973.017885775515424029436,-92.0411114642319319045782,-802.53951798417733698443,159.612760000311965313813
0.065000000000000002220446,1.05768664723120209281149,1.68314008651902358160157,-0.262488922687621695217786,0.127411674112948070103357,0.0499260068852769925418222,5.01031047015882650009361e-05,0.00266844986914247395831667,-0.0568489588498830369922565,-0.932161836566344659260608,0.357539673304047567192754,-0.0632096056623800001128544,-0.016313772243612925660905,10.0499976586141084311521,-0.0345194095283290897091533,0.209556216892433810894403,1.25565984036315803074046,0.370104207444771904356173,-5.26836728375973706306468,0.65714610319039812313946,1184.83757426476131513482,1165.78369246548049886769,1191.04168579900260738214,1154.78034972651153111656,132.291778937042067809671,-875.852653046830823768687,-592.315751291243373088946,-887.856082485767842626956,159.620658432444486152235
0.0675000000000000044408921,0.770916942220562062537681,1.85630471623277792936335,-0.360570861199356551551887,0.128125567734460849012024,0.0537764299893739652902447,-0.000928336348812377511185989,0.00280441048333730617858617,-0.0569856655422625243967438,-0.932141864402322606331097,0.357568758378989992596786,-0.0563948404469466618715856,-0.0104770667688341562184817,10.026151863906596517495,-0.0357356683577388645201012,0.20763149750112305791383,1.25627439950670716228842,0.370367602029809561692275,-5.26835688676104307859305,0.660318535709922938004013,1185.158936235385681357,1163.91123092759426072007,1188.98527855040219947114,1152.63346204845879583445,108.969812773693675467257,-712.452015576581516143051,-1087.11488473627377970843,-916.131243456492597942997,159.627200729572450654814
0.0700000000000000066613381,0.455722801997913207205926,2.016719203567329365967,-0.390911905425431804861347,0.128772372180335603619739,0.0582402030922230112830462,-0.00241038776746720171534344,0.00294068759851031421431733,-0.0571151506109674467204229,-0.932122039955535774957696,0.357598476882529159315283,-0.0498323899435561962212304,-0.00513180278011340917920791,10.0014385964588932154129,-0.0369359124442864561466138,0.205724674999371692774019,1.25682027749266311822396,0.370632450986835504380679,-5.26833998329713804054109,0.663489503552207371406269,1185.38242332862978400954,1162.22143238759758787637,1185.60611137532123393612,1150.1996935092290641478,51.2220826747580844084951,-700.200910382137863052776,-1748.35001915076077239064,-1140.11663839728703351284,159.633702607058012290508
0.0724999999999999950039964,0.0366832365179514813258166,2.18392162015333957114649,-0.34026097869596555467453,0.129369769904756126699397,0.0641845001928176006611437,-0.0046641004647380388675737,0.00307223998022919430120337,-0.0572339167536207171771423,-0.932103845061763580659431,0.357625573713267530528981,-0.0434862177319817883036634,-0.000502790918580325874032155,9.97596829227086168145888,-0.0381107426260937909301418,0.203818165828441005826832,1.2573023148716915287082,0.370895957507052176360673,-5.26831726148754153626896,0.666660404284622032378138,1185.41504664875947128166,1160.41022637568357822602,1180.24352845464841266221,1146.9328788564723708987,-37.859501286993761937083,-619.399960107558626987156,-2131.89261353877964211279,-1252.45889386683529664879,159.641459143402300924208
0.0749999999999999972244424,-0.35865367640940643001457,2.2929594916103002155694,-0.230177932640122956398088,0.129232692913004570955948,0.0695402665598726515971961,-0.00656823558337704411363989,0.00319888090980253569223235,-0.0573405559067577466625387,-0.93208837758754725655308,0.357647431396302284412059,-0.0373997291051208352596902,0.00327543730991484982606465,9.9498425356842226108256,-0.0392608854978492363696496,0.201902333297371588960445,1.2577232313759536541653,0.371156528957893361297948,-5.26828947634264821431316,0.669831486400269682235376,1185.19312582219481555512,1159.12443258705980042578,1174.94664830762735618919,1143.93739903989489903324,-143.645543660568250743381,-451.981966497259747939097,-2214.75821824446757091209,-1245.7324593594864836632,159.647885752892392474678
0.0774999999999999994448885,-0.815509593293382684109361,2.35947662523468171258401,-0.0734885652482948209529567,0.127961252635038852387694,0.0753122729551643638190583,-0.00755426119908461299323754,0.00331959568056849202433156,-0.0574346414166899618680695,-0.932076292486229029954359,0.357662461642578199949583,-0.0315969061566433312426838,0.00610046286649920666000924,9.92315415665989597471253,-0.0403846306129321264144494,0.199967952985767277729323,1.25808514737332477473331,0.371415028569738792096899,-5.26825795795540496868625,0.67300279856570321967979,1184.69681893045662945951,1158.1503165431972774968,1169.1697373634260657127,1140.70421655967493279604,-275.849288597464465055964,-339.92405647909407662155,-2561.4453314382876669697,-1461.07648727597597826389,159.654275128672168193589
0.0800000000000000016653345,-1.44686223660455648420964,2.38010892481601477044251,0.121778608567953305907849,0.125390388998023988298414,0.0825836321651528815213084,-0.00684773708741895879847927,0.00343218391987854714100803,-0.0575160095060546008860491,-0.932067991562067765798361,0.357669731954742942114933,-0.0260796218703511391290295,0.00788851733699506840746807,9.89598703998047746210887,-0.0414775761521521332819695,0.198004325936895458903919,1.25838986954612108704055,0.371672897508804223054568,-5.26822419908921002473789,0.67617499970636163464377,1183.81387937920749209297,1157.42481230466432862158,1162.13942165043590648565,1136.63201660351501232071,-363.907119848363095115928,-188.085546770207486133586,-2532.56317621589687405503,-1508.83409009097567832214,159.66190117004776993781
0.0825000000000000038857806,-2.04610342417678525706037,2.34517001448945050512407,0.255933000481425421135384,0.12230219130471464694665,0.0885424419457844641412336,-0.00511260479312580350813588,0.00353954789208430539021455,-0.0575826576373571555333974,-0.932064085540792564010815,0.357668043060453633152918,-0.0209565377880602428384282,0.00858157977327983489956864,9.86841602366469849982877,-0.0425494900540740045302712,0.196000234729638983521838,1.25863820325970054980758,0.371930523847703198292436,-5.26818849689505874778206,0.679347019384544670295156,1182.87728333121481227863,1157.20988880934623921348,1156.50692148234656997374,1133.16004610922004758322,-406.864464468480605319201,-15.8642818627867967506972,-2144.18490755465245456435,-1378.90027798502956102311,159.668223358556673474595
0.0850000000000000061062266,-2.71308350149801258410776,2.25897557430631756858475,0.334636270346780007045595,0.117667216904305968472322,0.094107436835445062994765,-0.00322320552673960140921405,0.00364841848852616359305534,-0.0576335448863566426891403,-0.932064177786626979482776,0.357658618121737437167695,-0.0163997928737641025798144,0.00819186977069216726299317,9.8405072811822389411418,-0.0436178415283224180098998,0.193950344100564803229148,1.25882915781241844221938,0.372187822436355009170228,-5.2681501969871904478282,0.682518697358520332052478,1181.77955705686508736107,1157.34549089535039456678,1151.41849711266263511789,1129.73751521358985883126,-460.10030265188066778137,91.8826204703690621045098,-1909.2107969314822639717,-1336.05843739851366080984,159.67451339387298503425
0.0875000000000000083266727,-3.41721855037601107696332,2.13515528813508170813407,0.363612511827379414341976,0.111524956585432211131348,0.0993274464557678954390596,-0.00165810471536401182225673,0.00376685563083216812946263,-0.0576714998396984993012104,-0.932066268375097650711325,0.357646055751893121588125,-0.0125775953200579389268388,0.00683709550249035624691629,9.81231892002636030269969,-0.044698910938399671888277,0.191860564632694519104916,1.25895945608150228167688,0.372445675702702316822723,-5.26810771552871148770691,0.685690973447750762304054,1180.5767818179554069502,1157.66930191169808495033,1146.96086749768915069581,1126.47975392222747359483,-501.772421522856404862978,139.28131777993283435535,-1599.97418678767940036778,-1229.25975115840856233262,159.680778311395556556818
0.0899999999999999966693309,-4.12666488635706762977406,1.97240971535041231810226,0.342527736895009926598732,0.103504643051848685408878,0.104226302584196697798014,-0.000630051892199035533381757,0.00390438762858407416300732,-0.0576981637014878367963888,-0.932069030450987656699624,0.3576333562075215133369,-0.00968644848282977991016374,0.00464437685137543410096583,9.78390302747252249560006,-0.0458141176464015448255296,0.189736076260742236865298,1.25902526908875356248529,0.372704827922218706603985,-5.26806030208968500971878,0.688863888308866911813766,1179.27069494925081016845,1158.04189748425005745958,1143.41862617872425289534,1123.59121645779782738828,-595.864380971171385681373,126.370990821942783099985,-1321.85278327688388344541,-1142.39889591149426451011,159.687014901466795890883
0.092499999999999998889777,-4.91287764082103706186899,1.74046708270684091779401,0.280339163306814576070991,0.0910934524579384424791684,0.109811115920624563502273,5.52109067539725272845928e-05,0.00406329184836268057778863,-0.0577119153861657685489206,-0.932071841610261020427686,0.357622310713038182861112,-0.00780565035119147859060673,0.00164967952752602398103221,9.75530774283912549549314,-0.0469713427837061131553398,0.187569130666370570414969,1.25902485024270061053642,0.372964934882000387350587,-5.26800814530102101684861,0.692037146462294860960185,1177.59745991309955570614,1158.30115686580779765791,1140.35160358130474378413,1120.7677594426700125041,-631.882322307546360207198,34.4961564051572793232481,-919.139584338198915247631,-902.233882198469586910505,159.694468678113679516173
0.095000000000000001110223,-5.45138449135814884272122,1.52455472219391352517448,0.21312410029004155709309,0.0778798669084472816592779,0.113899712163155267252712,0.00029546763374704154833314,0.00424262104241176617874798,-0.0577091235987839887289219,-0.932073457988181530708971,0.357616715474097845994805,-0.00696509808791463940619293,-0.00215151973146908426226531,9.72657727994051590769686,-0.0481727845965369411151968,0.185346523113381567160474,1.25895726090152915155329,0.373223744193970641269686,-5.26795079074260552687292,0.695211373688202183274143,1176.11128333771307552524,1158.2143782662758439983,1138.82292825703325434006,1119.08004704680547547468,-616.767476878703178044816,-116.556369543741212169152,-400.378309705910965021758,-518.094321855960060929647,159.700656997407151038715
0.0975000000000000033306691,-5.79842580144940988873259,1.29799334000464483551696,0.143673828058686808839539,0.0624330897049029179268764,0.117006785769536519881129,0.000345098582030095623121579,0.00443625249605090511695327,-0.0576868190663427649056416,-0.932071996193879592773612,0.357622006769576894491536,-0.00709080912328673412109437,-0.00677203517076062355695143,9.69775209344414967915782,-0.0494082182412658998948984,0.18305442480258571347207,1.25882212405559590351345,0.373478175091475794733498,-5.267887525300278817042,0.698387051505371170279091,1174.51362252870603697374,1157.71837501808909109968,1138.34971203277518725372,1118.17728783339020992571,-731.854442751272699752008,-311.172301217629581060464,18.0814936189108088626654,-213.201667000430262532973,159.706823618026817257487
0.100000000000000005551115,-5.94251367750609205131695,1.02808501111512429204708,0.0660045704041113956428433,0.0433069867218764323335556,0.119899414230263817726652,0.000317508430003620801054809,0.00463404602397486046344577,-0.0576462983777489626491253,-0.932066932471030895612785,0.357639449614546578448682,-0.00799603903112571304245826,-0.0121650738201399960525251,9.66886858256210857121005,-0.0506558393144247165462701,0.180687065452060702241965,1.25861867314663289363352,0.373725540368890940534641,-5.26781744103694293812623,0.701563679423533814727421,1172.45201112395670861588,1156.65851676018769467191,1138.91333572512780847319,1118.01403871180332316726,-778.561279388531374934246,-451.593124618511467360804,372.144950722394810327387,81.1375905205749603510412,159.714201181227338111057
0.102500000000000007771561,-5.82582737789472293599147,0.811062481155838121971158,0.0074880652486417715804623,0.0278360541000106896658561,0.122132090054278052981829,0.000281121262324197527995157,0.00482515181403250087432966,-0.0575876497595396441564475,-0.932059241394755488840929,0.357666621642689919191582,-0.00947975143403980216594285,-0.0183043261542808616271216,9.63996012745288055612036,-0.0518945929935253416620533,0.178236466719676189818244,1.25834709901129548903498,0.373964444762060366223011,-5.26773966710330920903971,0.704740102736480800160734,1170.62081613176337668847,1155.46040939499653177336,1140.21043678638716301066,1118.58297578599308508274,-747.803472613669782731449,-519.181504026301922749553,650.223929978120736450364,343.408874948227719414717,159.720332440511981531017
0.104999999999999996114219,-5.479684006045983934996,0.606887112527551009222293,-0.0461864895641668354864251,0.0134029860033345951664252,0.12443672201802274956961,0.000258491108688425408942274,0.00500047698826721394999018,-0.0575118812435120585480064,-0.932050099106144225302728,0.357700416488498207367996,-0.0113587465440038344610674,-0.0251306823529612033407687,9.61105649648228776982251,-0.0531068998579838635887285,0.175699457957280508191289,1.25800759139002593656187,0.374195557981406190517504,-5.26765402741835675470838,0.70791489561778164762984,1168.71299376088836652343,1154.06260924005619017407,1142.16445537501840590267,1119.73108308654445863795,-841.304914659396445131279,-632.145693288658776509692,946.673500514772968017496,589.666589922172761362162,159.726448606097733318165
0.107499999999999998334665,-4.84346160103835465804423,0.389114629541375434129691,-0.107913065171389641050403,-0.00225837368295116885930085,0.126627621959072816926195,0.000230826601725681544979157,0.00515724710606228330805889,-0.0574248337295431982019167,-0.932040475822633829316999,0.357737404846915907352667,-0.0135223741905127932405595,-0.0324540066876843891208182,9.58218283169685669520277,-0.0542853957560188032926973,0.173090282155355018600673,1.25759834220858501829809,0.374421135545788819065649,-5.26756088491015450614441,0.711086541169654862137861,1166.41429155846640242089,1152.29968092855324357515,1144.9438042889610187558,1121.53130873560394320521,-831.884032427341708171298,-645.003515445613970769045,1032.62583237633316457504,690.891512265533833669906,159.733773048839509556274
0.110000000000000000555112,-4.17371334090670931260547,0.248546001087070728141626,-0.15789199772708592539594,-0.0133391495911971292437359,0.127286203897219452052525,0.000166306068182326365198151,0.00529859197066534937797799,-0.0573326787874356424978828,-0.932030906188173191573298,0.357775160810226311447479,-0.0159564391409483148642767,-0.0400402889364050718068455,9.55336011627350067954012,-0.0554354831609033676942389,0.170429190312113704175445,1.2571169594175588546392,0.374643273642974949932949,-5.2674609958315308233523,0.714255276239358805057122,1164.55357359875165457197,1150.83759166282811747806,1147.32758453690007627301,1123.18554064787213064847,-721.918605742165937044774,-573.73917098443553186371,890.172088392136288348411,648.62036487725106326252,159.739865985770279621647
0.112500000000000002775558,-3.42017844787508806803089,0.17680988279371001592466,-0.203837854896664227855041,-0.0218439315935281888614306,0.126768838761081525934316,-2.04837105484125582023896e-05,0.00543337861304613468221847,-0.05724033110906494997705,-0.932022010045437276914981,0.357811157355607145635901,-0.0187491781125617880399137,-0.0476438767688257200361157,9.5246048709153665612348,-0.0565765367266135021928619,0.167738025207121305149016,1.25656082666400981118215,0.374863559555330461137146,-5.2673554350243865229686,0.717421763427656622447159,1162.80469852975556932506,1149.4309850736310636421,1149.39466473092170417658,1124.77441055999020136369,-679.483906055610873409023,-552.687435077177269704407,719.559750536199544512783,596.1497273399794494253,159.745949431328483569814
0.115000000000000004996004,-2.64191443543307835639666,0.175525311440535403129104,-0.241433076057277484771646,-0.0283666976538186864364999,0.125840662227986926913204,-0.000383044629798603975239651,0.00556842805940158721428324,-0.0571509026466318417747381,-0.932013552055524385764329,0.357845415102503172644077,-0.0219591813166270417856385,-0.0550706851520785939380076,9.49592903222344730806981,-0.0577235022352814153290268,0.165032366256358642431223,1.25592884821823735919111,0.375083475993042925189513,-5.26724477112217037699793,0.720586310575206723250119,1161.15615406847359736275,1148.0741544874422288558,1150.92538328958107740618,1126.16628928457203073776,-644.922783260926166803984,-535.82103289563701764564,433.169778476257818056183,484.32158219620714589837,159.752025851979254866819
0.11750000000000000721645,-1.87864228633031604687176,0.257755798869052199506768,-0.259794943004376499562369,-0.0330501324332311552378627,0.125004136630790518847078,-0.00104117371554614496047264,0.00570498635630077143704453,-0.0570628480026966616867057,-0.932005681674546115900171,0.357877778219615805266329,-0.0255712938179893552181898,-0.0622537710431813606781759,9.46733975426834817312738,-0.0588819269957506635781996,0.162311459550159825626636,1.25522294501012732226286,0.375303196368462432808144,-5.26712896572345457002484,0.723747775866550147050305,1159.58008461345093564887,1146.75187990915287628013,1151.56051362330299525638,1127.19601847097123936692,-703.419299164944732183358,-585.624960463838988289353,41.9734630144831371012515,352.340657815421536724898,159.758094263370139742619
0.119999999999999995559108,-1.02446738777474211090635,0.425001970286519203945375,-0.247019949036343999804188,-0.0368374003421073209496583,0.1249387781274438058432,-0.0022053103198375954667465,0.00584374287417488771922969,-0.0569741891171694977979989,-0.931998559131043569081498,0.357908142087132674635797,-0.0295588958089452354116577,-0.0691434940689474863972919,9.43883830386613986718203,-0.060056139574807869407902,0.159573032956561083883784,1.25444562542121240689141,0.375521883223919494820819,-5.26700779576629507516827,0.726904820070311208368707,1157.63905757264888052305,1145.14602968512303959869,1151.13525060465349270089,1127.92799257364913501078,-746.00602208470400000806,-602.886475394917624726077,-347.822618603550608895603,183.479345287333103442506,159.765366947312941192649
0.122499999999999997779554,-0.390256137251430768042582,0.585528770785375463070466,-0.201131238603416501176113,-0.0382662531286643362027355,0.1262129215921623526242,-0.00338197521103783017848432,0.00598525712611048133632297,-0.0568836604574021326152788,-0.931992468155481201819157,0.357935971468293256947391,-0.0338845270315125540738777,-0.0756848558252409264746063,9.41042001935823080316368,-0.0612494873931914984854785,0.156816561110935004386135,1.25359938699812278883883,0.375737105725291176128167,-5.26688060820446501963943,0.730057026756548044232886,1155.85005450302742247004,1143.73744753217829384084,1149.82140053028524562251,1128.11341519740790317883,-782.295703026283490544301,-590.856757179198552876187,-686.386366695250558223051,-3.41426241211592840230082,159.771419007382661447991
0.125,0.13721556831234693607513,0.718815063243886220867296,-0.119530815962107891947674,-0.037746909308245958636352,0.12894719606816076873379,-0.00435940132562212621231135,0.00613439579446824635039492,-0.0567913373697480211577115,-0.931987214394242258208578,0.357961694296791088643062,-0.0385761078004387830686639,-0.0817765249552090539575389,9.38207438870625942684001,-0.0624739854130463706516352,0.154048987999856334951687,1.25268527381823613353617,0.375947145818189110144658,-5.26674699072629870499895,0.733204734431102789216084,1153.72757905751745965972,1142.19174589922704399214,1147.7033187711772370676,1127.91092126158855535323,-1036.0334271628735223203,-721.706676863549773770501,-1044.79873136460719251772,-157.117890994640987400999,159.777460747306918165123
0.127500000000000002220446,0.627831838463640101721808,0.803495232824793848003253,0.00588752350614621389190972,-0.0351079753282101808542492,0.133008997918786842085126,-0.00456451154650318151329014,0.00629515023755016812911922,-0.0566994256554145675819356,-0.931982231249905646031095,0.357986385210708413229241,-0.0436312510457553398568464,-0.0872926060987098267895945,9.35378611584570762715884,-0.0637373464663892330683836,0.151281717345568833543723,1.25170365605935418606975,0.376151951859828914681572,-5.26660674167875786366722,0.736348986545229733380324,1150.66988736721305031097,1140.12891414786054156139,1144.59740687346220511245,1127.32782574243469753128,-1210.81506478644655544485,-792.876982413235282365349,-1170.84731434783748227346,-252.643461190700463703251,159.784696273677923272771
0.130000000000000004440892,0.918405651959945834583721,0.798721117140824499180951,0.118853171173720892350723,-0.0319479334688205912629044,0.136090328632291340804628,-0.00386407416174444412124145,0.00646222493289656634007923,-0.0566087125701702775781854,-0.931977331787007257091204,0.35801050407906565009597,-0.0488951118601213402525829,-0.0922014462063969614247227,9.32553688622725118761991,-0.0650264906270364151374963,0.1485142881467432507403,1.25065692737287581515204,0.376352111549336287854572,-5.26645958898915544921238,0.73949027950055501445803,1147.67350373358522119815,1138.22736098716086416971,1141.8490821994380439719,1126.64770395563505189784,-1277.13308771353581505537,-794.199627243323675429565,-1062.42635736439206084469,-292.944086579290967620182,159.790711218777744306863
0.132500000000000006661338,1.10837448572034835692079,0.723637945504257307227647,0.227843792774726883187952,-0.0287722186398702770016023,0.138277241254269156467416,-0.00283560285551772740808563,0.00663043942520761230008386,-0.0565213450453740107182199,-0.931972594833348932930051,0.358033599829415405402244,-0.0542081271493054378529663,-0.0964531017984790045582955,9.29730594238867347200994,-0.0663270605133425283916893,0.145748932808033443420115,1.24954672963425061915643,0.376548405001411401471501,-5.26630521403059326246421,0.742628676348443761412454,1144.28422192864536555135,1136.15791601164391977363,1139.28527508664024026075,1125.86310530953824127209,-1542.71745922610398338293,-936.593423965813713039097,-1025.21380045982277806615,-352.478033193937903888582,159.796707511212105146114
0.135000000000000008881784,1.26721558959174585012875,0.577661753817311329761708,0.351385475616859566105887,-0.0255226949794069984944755,0.139874873517294773250796,-0.00175242222474385070732361,0.00678999703714942230009521,-0.0564363366115378378706779,-0.931968763786751752675741,0.358054066163677575662661,-0.0593551150185260140146326,-0.100088653652538758787038,9.26907185236701636199541,-0.0676163346419287880628701,0.142975552532725175280959,1.24837614388317108549131,0.376740967545713734132562,-5.26614425990718704184701,0.745763503279126216405359,1139.95991643745469446003,1133.54439386733179162547,1136.72301319713892553409,1124.8853137896653606731,-1590.13494531568403544952,-965.712449798819761781488,-831.128985210443033793126,-356.793396549437261455751,159.803877767622736882913
0.13750000000000001110223,1.38052293422464456007503,0.42900702227419640344408,0.452100215631818180828105,-0.0233292799152621278813147,0.140552976445102201230597,-0.00106252047637760593974676,0.00693584750994778037602728,-0.056353464895800835232631,-0.931965990400801969073541,0.358071626895212657970546,-0.0642055326401274190084578,-0.103108079446336556306285,9.24081313050216124338476,-0.0688812271974673234753439,0.140189457828992447563365,1.24714665346837882964337,0.376930964681257973936113,-5.26597765474804457852542,0.748894057420799841295889,1136.33354720206693855289,1131.32935376264981641725,1135.12963016058802168118,1124.07913832679105325951,-1407.2091856742179061257,-872.623438066829407944169,-526.327200169907428062288,-316.650846765560061157885,159.809829544222708364032
0.140000000000000013322676,1.51074157473467018952817,0.269083328475905714238792,0.554642714042688833586681,-0.0214675331776896655133768,0.140832153832256362635533,-0.000449885418253703392964249,0.00706653515878890789436717,-0.0562702297557973740715909,-0.931964331144287783104119,0.358086549495454320446441,-0.0687126829495409846559895,-0.105530844625738112751989,9.21250960914547079028125,-0.0701184029587958446150253,0.137383066058043595836224,1.24585901894892980834584,0.377119852214944817347941,-5.26580654978381268449539,0.752019469740191404127927,1132.92387050908359924506,1129.18127667699764060671,1134.09137719628938612004,1123.30205955583755894622,-1296.40583301042966013483,-831.93497298884653901041,-344.80932764686230029838,-306.465865185463997022453,159.815754593894382651342
0.142500000000000015543122,1.66686018741150632216375,0.10554194111577284986847,0.656724264643086974579944,-0.0194656206998111806771856,0.140944032383199385760619,0.000319274286661086015379901,0.00718398540524293853504201,-0.0561840685605288700510407,-0.931963175448709657544555,0.3581007848878783872415,-0.0728962577383781146211916,-0.107358392096666352411027,9.18414390642441524903461,-0.0713315895175269804040497,0.134551322044859089643865,1.24451264748706313945092,0.377308829613777763078986,-5.26563191668605412587567,0.755140436734419773223692,1129.85151803701478456787,1127.16967889770558031159,1133.4055835223537087586,1122.54680900086373185331,-1120.73342495901283655257,-755.440634351683797831356,-234.934094372239286485637,-301.058368852638125190424,159.821655978366180761441
0.144999999999999990007993,1.84317486073506842103598,-0.062183014539923898988949,0.746395309074337487409423,-0.0166180116586246359733359,0.140952771942196630750033,0.00159515779119464564880793,0.00729693735243041631532979,-0.0560956216155102382892039,-0.931961062117818261896218,0.358117856600875583694688,-0.076878813878848609175698,-0.108496288449358144201362,9.15570259196584501637517,-0.0725367292678208708256449,0.131702777072840893080041,1.24310400817532462625081,0.37749969730770049913815,-5.26545289281980544160433,0.758257682763717411056348,1127.32020338428856121027,1125.40407350523923923902,1132.91670672442819522985,1121.7967677115743754257,-971.822642914189600560348,-707.138926508881581867172,-239.89894358619605441163,-339.288120316634149276069,159.827527337292764286758
0.147499999999999992228439,2.03411397186053033436792,-0.271342956186397699092083,0.814310052797632355492397,-0.0114901120574738852680996,0.14082551614499738690256,0.00404393830099986084647412,0.00741420617005286806261433,-0.0560075026358563959893999,-0.931956660916057111343491,0.358140637416523466285412,-0.0807750892821672422661194,-0.108822458934360530302676,9.12717823183169052470021,-0.0737478658799153724556774,0.128850912396855143970953,1.24162847501099227187638,0.377693492544182496395422,-5.26526810370364284352718,0.761371643399334385726718,1124.99240482244385930244,1123.63398426516118888685,1132.20608880442273402878,1120.85036839928056906501,-735.75658436034177611873,-589.196087746312855415454,-328.90672392863933737317,-366.954499406073978207132,159.834536719809676696968
0.149999999999999994448885,2.1319625417650036602879,-0.452592135004511397777804,0.817700014114571716028479,-0.00568725553162853069560922,0.140485717071245436171623,0.00688520334081055285224693,0.00754516648666316794985542,-0.0559234593771359839164958,-0.931948561459661206640703,0.358172020437966809325303,-0.0847058912110606049283845,-0.108199817912316309520548,9.09857036138744668107847,-0.0749793880913427329693022,0.126013361188573702609261,1.24008047588156600227194,0.377889994473128709717713,-5.26507623022943338497726,0.764482207831834403854998,1123.64142046248684891907,1122.45809306650767211977,1131.2721731047849971219,1119.96199521454400382936,-431.837905115071009731764,-416.262810049920119581657,-482.86490608174926819629,-396.488227897225101514778,159.840346802551351856891
0.152499999999999996669331,2.11790096446950215636207,-0.63485641041262197425965,0.75084183927257164281599,0.00102948690295046139248081,0.139654127147677414866322,0.0101479845022208470251002,0.00769253281585103969308914,-0.055846207227900193648118,-0.931936920087090503450611,0.358211116985298949622063,-0.0886847731317933901662443,-0.106563491835485454894972,9.06988712133589558561653,-0.0762322727262847998908057,0.123200296499014247397774,1.23845573461095237455254,0.378086723306344296702264,-5.26487669324521068148215,0.767588797671570066682989,1122.83321529686850226426,1121.55267021491158629942,1129.79176427401398541406,1118.86792725979444185214,-257.992661015441399285919,-356.640818567074916245474,-789.389650385918912434136,-556.710435996819342108211,159.846123886570069316804
0.154999999999999998889777,1.94182136712041009118934,-0.837273296770901565011513,0.596038311111294571986718,0.00898067234205572259564399,0.137734930223477103350405,0.0136211302010821044827793,0.00785611578073477229144927,-0.0557778431039013186665265,-0.93192290848989411955472,0.358254556907114218855526,-0.092680254984658219652438,-0.103889798667629373873922,9.04114522549001087270426,-0.0775028445078199401674368,0.120419255907220787427114,1.23675041923289263934294,0.378280051640644154886672,-5.26466908026840130219171,0.770691069077084067728833,1122.35145715740964078577,1120.67488897367229583324,1127.32522485285539914912,1117.17844303455990484508,-120.148846165648023998074,-306.609039648264740662853,-1007.65676715322933887364,-700.451824488254146672261,159.853017688246779925976
0.157500000000000001110223,1.66469319010774152722831,-0.975101152135838256107547,0.428632731583508175265962,0.0145615083782469831308326,0.135172336569369361258808,0.0153926709086544977883593,0.00803261297897928973343884,-0.0557205433712764722220534,-0.931907235293412461452078,0.358300232854638633916977,-0.0966107749648192210001341,-0.100185420726040197436646,9.01236994410094105489861,-0.0787815551686496667871396,0.117677254155844901450934,1.2349611419170321013894,0.378466192732110406904411,-5.26445294350224468615806,0.77378928302982741271876,1122.23247106604026157584,1120.01962501667026117502,1124.75348043824783417222,1115.3656681373531682766,-19.6137975234705486116127,-268.646826472240491057164,-1107.23119167027925868751,-822.106435894647120221634,159.858730063002070664879
0.160000000000000003330669,1.28009534603565322541385,-1.06255320679082587709274,0.264813311843748455665093,0.0181835415011656863215617,0.131683624150845779432473,0.0156206023995714184116057,0.0082203626223742130851857,-0.0556781738374655249534939,-0.931891036651364412790599,0.358344629429256544828064,-0.100410069472741128593363,-0.0954318084733341565062403,8.98359377649887669292639,-0.0800628476911426911755143,0.114987685444046916494187,1.23308383282996181229407,0.378642979218772546268212,-5.2642289692501229581012,0.776884316085551085429017,1122.2533881697922879539,1119.33165484131109224109,1121.78906889450399830821,1113.06791085508666583337,10.1524859785513310583838,-328.738267376774899730663,-1357.6300068692023614858,-1122.03890302562194847269,159.864408693400747552005
0.162500000000000005551115,0.741141269075940689603499,-1.10339984072914965018697,0.122114682591267065259188,0.0202932666941239812918862,0.127255291772110701309373,0.0144894633355577701072647,0.00841274072164219753611203,-0.0556487812387501390443134,-0.931875260712871300583515,0.358385738637923945137942,-0.10396622870385556491879,-0.0897532880249399117600362,8.95485583473620394556747,-0.081335872625392269252842,0.112347017228489498563704,1.2311167420541766492903,0.378809959223907311010038,-5.2639977715660171142531,0.779976908138693580951895,1122.28323349593301827554,1118.37593367978638525528,1117.96533040390181668045,1109.75547362222505398677,-5.38761174188948199770266,-379.542277430345734501316,-1423.3821833098759270797,-1295.14233682361805222172,159.871184197520392444858
0.165000000000000007771561,0.257905177141763031212207,-1.09498860278167797766002,0.0704325588911066530206639,0.0205111372717970835699575,0.124174574979221699622123,0.0130644498201093767902892,0.00860093846684862467499855,-0.0556250045426432623840718,-0.931860950250786856940977,0.358422200835632143167686,-0.107163752212967713917102,-0.083390471363209442423603,8.92619988082648063709712,-0.082590102218943028944409,0.109737330383654296817042,1.22906005420905417580002,0.378967857017592946178297,-5.26375968862034682160811,0.783067483905227512686054,1122.2264501110828405217,1117.43394345415936186328,1114.6721579779546118516,1106.59219917096856988792,-51.362843717242824936875,-410.35681393559536900284,-1320.58890426669563566975,-1324.54833478254727197054,159.876798314170315506999
0.167500000000000009992007,-0.238849238480400238859858,-1.06868734886475813539164,0.0895645067944265543813387,0.0195183717016734759042151,0.122085189379542172205539,0.0120653698459503785911373,0.00878023397972607297368164,-0.0556009865091628349698105,-0.93184885970306352565018,0.358453082340016770945823,-0.109942505462189019094232,-0.0765425320519785568063043,8.89767115835856969852102,-0.0838230461218817807234061,0.107147032064892108738086,1.22691388949845903155733,0.379118952637768791280592,-5.26351484688855641991267,0.786155614323960083567044,1122.02641927734680393769,1116.32414961010840670497,1111.36238588256833281775,1103.13273194831231194257,-106.476691370198651043211,-471.593151683736834911542,-1318.9263901792844535521,-1410.8152239036357968871,159.88237948178669967092
0.170000000000000012212453,-0.743111296924853781398213,-1.04762854595320864525831,0.150050450513800753826743,0.0178331396481494486305763,0.120638254518147400307093,0.0120221172541106566949987,0.00894520194740813096023757,-0.0555721827469322152137643,-0.93184024981699498102472,0.358475949108231384254708,-0.112216623974827192644632,-0.0694006278685294353270052,8.86931435237281107220042,-0.0850290399366802895908535,0.104565223044934971219355,1.2246800836268181278399,0.379266057869984185568768,-5.26326339915090368748452,0.789238588337947910567038,1121.69406665423184676911,1115.0759776957406756992,1108.0775260270581838995,1099.53812305145038408227,-163.681446718191949685206,-530.483822671521465963451,-1304.09004656112188058614,-1444.23360577302310048253,159.887933709255918302006
0.172500000000000014432899,-1.26341839200653982544509,-1.04539938058378045759866,0.228173649749065177161356,0.0159088442570806953835216,0.119480789474581461373504,0.0131821409012406517285987,0.00909724161430820743579062,-0.0555387251869709913654205,-0.931834561656955218111875,0.358492199916645437607343,-0.113983125188024156382305,-0.0620399609404589172378941,8.84116867873867207094918,-0.0862128793438340923493968,0.101996724258854767897198,1.22236031567635161643182,0.379411342086174885324112,-5.26300625179272696385624,0.792313399818979413602449,1121.20801204375584347872,1113.67173049675079710141,1104.84193564976271773048,1095.91156391944718961895,-246.885141913389588808059,-650.048582320595755845716,-1409.92864156641962836147,-1574.9124417097377772734,159.89345609472155729236
0.175000000000000016653345,-1.9145212974496417235315,-1.05682624336342811943723,0.305726737924450153727207,0.0132750282547129290489085,0.11770869972073343123764,0.0150250929530917898269138,0.00923721959466611113043211,-0.0555011416285005748649795,-0.931831044401059349624461,0.35850369029095902062565,-0.115223924134151015086225,-0.0545373453884417727643985,8.81326611276850968579311,-0.0873770035357699925704367,0.0994449902261248380730407,1.21995847414343350223476,0.379557346062022127330948,-5.26274495632931671451615,0.795377876499473113192096,1120.4596409446648976882,1111.8257347841376940778,1101.02788281922607893648,1091.6635608429016883747,-301.5965787418295462885,-701.131518038485978649987,-1384.2601080752110647154,-1525.40420811570379555633,159.900047437621111612316
0.177499999999999991118216,-2.47036424906698748316103,-1.05585061168984828405826,0.341461455701009830576709,0.00964048485386712061817605,0.115463486663538061893775,0.0164295621967444245570267,0.00935908620844858561704793,-0.0554574284650402593577212,-0.931829854547090552507882,0.358510485440576953664049,-0.115818819444779716465455,-0.0470575054585860713673995,8.78563043164819390540288,-0.0885098417162646367017942,0.0968996499796694193973323,1.21748209737184898138196,0.379705159735062303116848,-5.26248052876972671754174,0.79843035381126892247039,1119.70002915004670285271,1110.16607290655838369275,1097.92063510938669423922,1088.28454287886870588409,-333.998060317436909372191,-686.52119592948429271928,-1221.87823595268696408311,-1306.98043990751716592058,159.905511935852217675347
0.179999999999999993338662,-3.00311353869446495679085,-1.00665327315041630562575,0.341826502645939500624195,0.00329566443629314810917497,0.112194866936708478877271,0.0176590366663423488369222,0.00945757845564031661422799,-0.0554023620375723654940536,-0.931830784350041407826382,0.358514074784779979143678,-0.115681492599042465285741,-0.0398102414408986887695008,8.75827372282076943577067,-0.0896040710344335467052446,0.0943428933585240131476368,1.21493980161650294569142,0.379853573207103556441666,-5.26221343263064067485857,0.801470182112306694932613,1118.7896506430777208152,1108.39312880449028853036,1094.91849163946267253777,1085.12865864336413324054,-438.208297641540013955819,-801.655897188810968145845,-1287.36001658162308558531,-1330.44971459016664994124,159.910949053897468274954
0.182499999999999995559108,-3.55472640114610527461991,-0.854411621577481850131619,0.306333376042539795580666,-0.00708668176344986501524748,0.107613035185671918059214,0.0188783148077943316311966,0.00953476436239587658849626,-0.0553318010270984414478157,-0.931832259499028259241982,0.358519134063902622511222,-0.114841551460346261159806,-0.0329349762216059466224394,8.73119355009686870516816,-0.090667761660079698726733,0.0917659029694415234734706,1.21233828719519642902469,0.380000967887848206672174,-5.26194249550192338915622,0.804498544649069557976873,1117.50898766183900079341,1106.15779342061432544142,1091.48383502647857312695,1081.63229430591786695004,-501.321298675201887817821,-831.413405544616807674174,-1225.10892119566847213719,-1231.18357903067476399883,159.917444734489663460408
0.184999999999999997779554,-3.90111982202925844376296,-0.6395478784177673903244,0.255075049516997220955261,-0.0170913849101839328270547,0.104162341340116926247106,0.0195793502938145548564197,0.00959469023487057731669481,-0.0552432244465015862000534,-0.931834461011227355164976,0.358525470894354825190931,-0.113347011100071351497043,-0.0265275910011379401076681,8.70437404456733077040553,-0.0917121214417579988520401,0.0891639774457135131369157,1.20968286419619297511474,0.380146035666249937357009,-5.26166733444416045983871,0.807517092327663776885061,1116.28304414970170910237,1104.23606177676720108138,1088.79294703348432449275,1078.9727407482107537362,-521.230822780398284521652,-769.543929305108804328484,-1034.23620635644419962773,-1008.36165758328115771292,159.922836095079162532784
0.1875,-4.09876744701399253756335,-0.348185545432229404116953,0.193334623138164185540688,-0.0276228135545700317909912,0.101965843024286018092539,0.0199683391054828601740567,0.00964294788236334105002712,-0.0551379161880746412882637,-0.931838428544387920027248,0.358530030941063893035192,-0.111247355709494191722264,-0.0206053172938743117681426,8.67778652234438929724547,-0.0927483011644806981665923,0.0865416122296438078409508,1.20697680643687443868828,0.380287393572804333086168,-5.26138770881513995192336,0.810527548443887857487766,1114.90283354793700709706,1102.31007377408877800917,1086.31265399469634758134,1076.590486018001456614,-639.507822601989914801379,-831.57846019025714667805,-1033.81324443221183173591,-978.74666531301863869885,159.928208060935673984204
0.190000000000000002220446,-4.15025970160161516986363,0.0444574938183759371668202,0.119860893645002797303079,-0.0404181307374031212331644,0.101130280021918525501512,0.0201747473906618984829109,0.00968673453309731521954085,-0.0550153811244078402853397,-0.931844838198104596926896,0.358530936422192081369786,-0.108634625685572208664276,-0.0151944699017926149187119,8.65139131404288974636074,-0.0937919485388054308128147,0.0839007124181120611527973,1.20422163801712556185919,0.380423659294087668225615,-5.2611030465986994286709,0.8135320199830478049563,1113.0855050366917566862,1100.07816947581591193739,1083.62388081132326078659,1074.07900742164565599523,-692.057384666395023486984,-793.613708315069061427494,-929.072529893664182054636,-857.790578521598149563943,159.934636029587210259706
0.192500000000000004440892,-4.04096539942978960624487,0.364672785118372144719245,0.0660250228038784942041772,-0.0509266004822436849086564,0.101951529923557424051062,0.0202082356203925443682845,0.00973343201125225106207228,-0.0548758621876726804256208,-0.931852958277500253991832,0.358529851826716927654104,-0.105608256569983252615152,-0.0102962026887510327277653,8.62514018220165645800535,-0.0948574213934126331260188,0.0812454683351615386532885,1.20141725706791913097504,0.380555168208312921684922,-5.26081287793514906780956,0.816532962588716326735039,1111.44254662460502913746,1098.34200523251342929143,1081.66729134522802269203,1072.30153312539346188714,-685.591979064974452739989,-662.431130478489080815052,-710.279292584072436511633,-639.647543287127859912289,159.939980469005377017311
0.195000000000000006661338,-3.78956465345039683612072,0.627044096255761185254585,0.0247467959830022544986949,-0.0609091496380144425959458,0.104185945980187211201695,0.0201713448777463208450023,0.00978550386831471968873686,-0.0547217537021788824613822,-0.93186104787667567439513,0.358530868204596953052743,-0.102185347127469752792628,-0.00589528097869865264080147,8.59898000104895210427003,-0.0959449338571021353994084,0.0785807117526569481880117,1.19856348325892092532285,0.380683669419132841849063,-5.26051761121672711851716,0.819529899476347911679852,1109.65754514136688158032,1096.76601382342346369114,1080.07248434840289519343,1070.8807697052100138535,-740.989745823343810116057,-609.356243914043602671882,-567.460324404918992513558,-506.658543843695497344015,159.94531594772732319143
0.197500000000000008881784,-3.44096434214688651209713,0.811887210103268142091792,-0.00460020921947107939986576,-0.0701283472908933586120739,0.107289868925580525460539,0.0201111059005277779954124,0.00983908256876951485547789,-0.0545554490745384298988618,-0.931867932215854066768657,0.35853677907311082284636,-0.0982913844200367231573878,-0.00200466883667828332793448,8.57285598699541040446093,-0.0970393525313249238894997,0.0759049160417211293827577,1.1956612025550277245145,0.380812012239321873163789,-5.26021840426911158061785,0.822519357283002960912199,1107.73759789548830667627,1095.2952240129432084359,1078.82998972320342545572,1069.76824040617498212669,-805.801381219088625584845,-585.074052079834814321657,-402.192490376455339173845,-371.722809437732962578593,159.950646638023926016103
0.20000000000000001110223,-3.00938186367834914491937,0.885933109811147700973777,-0.0194366185697808710464152,-0.0779772365881954698796363,0.110951339146199978724638,0.020044411975131300185371,0.00988934905204621843288759,-0.0543798717591843644436622,-0.931872985973912770774064,0.358548899678541532765053,-0.093845702198188316045524,0.00137621595883030689577708,8.54671300676225520476237,-0.0981218891424701783465778,0.0732160905085862123709006,1.19271134861748651090352,0.38094307049804082554445,-5.25991509625972142316641,0.825498705082213346528874,1105.6285382352714350418,1093.84064356302428677736,1078.06152189652061679226,1069.02215565802134733531,-977.544373008003276481759,-680.574960067314691514184,-223.909202327831536649683,-251.353587307857878840878,159.955974567037486622212
0.202500000000000013322676,-2.4465921526515312933725,0.8540178665659898804563,-0.0213997095708251677814715,-0.0853118336921069725375943,0.115055738302838286846175,0.0199683991761879717219408,0.00993685548548689685788293,-0.0542024052758730418011268,-0.931875448950068463460639,0.35856806932794033082601,-0.0888400497078968426345469,0.00436229192963422107709448,8.5204962889328577091419,-0.0991810729076252617364418,0.0705265242829887090136864,1.18971304361498497748073,0.38107894699989669495821,-5.25960680122521395674084,0.828468103224387020233621,1102.84987603044828574639,1091.89234921260663213616,1077.71044371156426677771,1068.51147246963569159561,-1062.17960254011723009171,-784.59084779433328549203,-38.2832737534044653671117,-133.494829208211626792036,159.962368520209366806739
0.205000000000000015543122,-1.97612247255181627814125,0.752959709907042751275696,-0.0108317952259831418865277,-0.0896447909993685065899172,0.117603522882118324832668,0.0199121683596006349148411,0.00998431225511142370065976,-0.0540281942632754655364558,-0.931875373332943679471896,0.358593300050500163322909,-0.0833268363618292068339954,0.00705322409004417727462766,8.49415596882653289867449,-0.100211835202195703731221,0.0678452461658665406663005,1.18666454583409053391563,0.381219626477831918798245,-5.25929303129496261703935,0.831428447315824437069409,1100.31764022257084434386,1089.9176893240526169393,1077.87010552775359428779,1068.35468151198028863291,-1055.98338823351605242351,-899.177046718158749172289,141.033140240324314618192,-23.9144585505073123954389,159.967699621586262992423
0.207500000000000017763568,-1.53539952770174448204443,0.622070060113146583447019,0.011007752347498296618955,-0.0926500026195219983371487,0.119061898225438181353475,0.0198713612646086099089437,0.0100391454306666978030238,-0.0538602071320863698411507,-0.931873480699321410369862,0.358622067310072178969449,-0.077458148439804905271977,0.00954840602574257013568371,8.46764953726789215693316,-0.101221757017152469426691,0.0651810257405057019708394,1.18356232207006395462656,0.381363374527087850562879,-5.25897361111390182486502,0.834380989022292851586826,1097.5699590892807009368,1087.39646397901583441126,1078.41560941276588891924,1068.39190017688315492705,-1249.35534899378262707614,-1255.63322385760920951725,295.305877627335121360375,36.8855190923115401346877,159.973036280499798067467
0.209999999999999992228439,-1.05510852521590692276732,0.49026907931051766365016,0.0480327196549036536388222,-0.0954301476328483083699794,0.119786463005813692550561,0.0198639157994442636101518,0.0101066097932405399989486,-0.0536994562275856790467543,-0.931871326195009008763748,0.358650041432661936813275,-0.0713730788446890612730655,0.0119062623598346767339606,8.44094617572370431446416,-0.102216211768649450908342,0.062537536711783719978186,1.18040252747231022567576,0.381507672864478730723192,-5.25864809043320846626557,0.837326194310882954141562,1094.07086347760196076706,1083.63952320476460045029,1079.34663491589026307338,1068.53910910744184548093,-1304.07221003375229884114,-1493.21571866649514959136,353.159692821647524851869,50.7527698412561747431937,159.97944938470621423221
0.212499999999999994448885,-0.692465091026566614829107,0.438851808853439884217096,0.0854754007428011330915751,-0.0973386969037225574519212,0.119819718175226311296377,0.0199237120199468251136032,0.0101880247405593590132034,-0.053545302562603501461691,-0.931870468127000917135661,0.35867324578616804897635,-0.0651680285977068313174598,0.0141370018651004597520782,8.4140293633952811802601,-0.10319477181397020137954,0.0599134280952626219196588,1.17718141373361318002821,0.381648630989954218417637,-5.2583161312518997831944,0.840263795167486393644651,1091.04959803911197013804,1079.93038538568339390622,1080.1814078768741183012,1068.64566402608943462837,-1208.21028702953185529623,-1569.25999775730679175467,295.622245566209755907039,12.2701424799743001869956,159.984802807674128644067
0.214999999999999996669331,-0.357446884144756227286166,0.477545669588082977163879,0.125461966945447783716716,-0.0989757995308128135647507,0.119641046737279516110064,0.0201064194003463536652987,0.010283315105764157318391,-0.0533967513506940355538788,-0.931870313837936392609151,0.358693382504774060937081,-0.0589305438280712107212977,0.0162376315148402838861585,8.38689791624055835939089,-0.104156095620243471788768,0.0573086392827175869491008,1.17389474581386354934409,0.381783694813557061831233,-5.25797786285016766072431,0.84319419221617974979921,1088.02981204245429580624,1075.79322321597805967031,1080.824746143721313274,1068.60045981984171703516,-1294.563003349502423589,-1849.58691224987728674023,174.482820781804406351512,-89.1644141970572547961638,159.990166711920409170489
0.217499999999999998889777,0.0233988406688107886122197,0.637616227832378035245142,0.1696822030244955203937,-0.100550886249906920588693,0.119659760442162046989445,0.0205391465374146660327614,0.0103884009501435357891719,-0.053252044256929718935023,-0.931869890639860143366491,0.35871336096403166893154,-0.0526950033124803512984968,0.0181658841627926753714561,8.35956786316905819944623,-0.105092586179845737248684,0.0547199111797212894847675,1.1705386996750770656206,0.381912222096920661584818,-5.25763315489839833105634,0.846116384414446476291971,1084.57678302236445233575,1070.68245082443399951444,1081.0538219807831410435,1068.19984195510414792807,-1209.4417873162444720947,-1836.15875899786101399513,-49.7614925945071746582471,-229.972277764136180167043,159.996615144007478193089
0.220000000000000001110223,0.321363555826715441288144,0.854601615602682884720309,0.198056933390859390975436,-0.101287212911882709698297,0.12025598325858471993044,0.0211125343776655538530207,0.0105054259052110125771673,-0.0531101843840120074746736,-0.931868355070690768116037,0.358735449595748823181651,-0.0465891001730257131585589,0.0199231409792310215634004,8.33207104046762481175392,-0.106011274280551057169752,0.0521516571557206418119357,1.16710764174793113490125,0.382034556311528439298542,-5.25728254395612726312947,0.849030126380823535470199,1081.98260310587306776142,1066.61242942098874664225,1080.57593868074877718755,1067.45059843102103513957,-944.974314636419080670748,-1516.74689956785050526378,-366.372034316054509872629,-413.050000787961494097544,160.001997332186277844812
0.222500000000000003330669,0.579889713381350757614996,1.12476625291936827011341,0.212511474030978531057912,-0.101017165775291045681783,0.121949737620443948715732,0.0218754549138396384155847,0.0106387578869502914119538,-0.0529713938817511081902367,-0.931864226565321196460445,0.358763305077970551248967,-0.0407662444432328324728232,0.0215360957582918649544368,8.30445587554303976673964,-0.106924277879776014055224,0.0496134784907236864315294,1.16359523035077083719102,0.382149809808107421282841,-5.25692642028267709264355,0.851935808902847702128724,1079.85191144918235295336,1063.09871632659474016691,1079.22196180920286678884,1066.13459195116433875228,-754.241014467969989709673,-1272.21328926702767603274,-696.382673617244449815189,-634.81266316816743255913,160.007385554956726991804
0.225000000000000005551115,0.778742406746915971638145,1.40213748174795482803745,0.214064937935378618583115,-0.0995318102574130891824211,0.124883791109689182285969,0.0226613572007699770605171,0.01078432990082957808331,-0.0528308817785869549998878,-0.931857771623490149792701,0.358796991229958173175163,-0.0352716674077510478069186,0.0228946789373839915127107,8.27678958228145233988471,-0.107830334631869820261052,0.047095947669894118459144,1.15999728123136058854925,0.382257421756850845895315,-5.25656622498744408034099,0.854833791581440238793732,1078.21139803353321440227,1060.25136297465360257775,1077.0940253126625520963,1064.2765351151801951346,-524.375956817493261041818,-954.74877996157295001467,-1024.06349591938032972394,-879.067718963732772863295,160.012775761088647641373
0.227500000000000007771561,0.865962707643498363907497,1.63829876030704402189997,0.202451670053474558352846,-0.096452229532669631062447,0.129447449336486275495162,0.0231417696233212691336867,0.0109415049984964551227362,-0.0526822097336993727667576,-0.93184951347575339930529,0.35883600849008639999127,-0.0302069909774100760213589,0.0238776118614056481748165,8.24915404130137375204868,-0.108737364576982326047627,0.0445881576552911440547433,1.15630904522128274969361,0.382358580613930187919181,-5.25620283225731910192735,0.857723885500425664574209,1077.23003166509488437441,1058.3249724267868714378,1074.10164432960596059274,1061.73925335634567090892,-284.454043565346864852472,-641.414825260698648889957,-1469.28377551716812376981,-1259.14956665255772350065,160.018163538552414593141
0.230000000000000009992007,0.801313206345535378183342,1.81943413822961419512581,0.178515804784265763593964,-0.0918585661511057277595071,0.136241069433623462892058,0.0232094598233795121333678,0.0111074817987041260525238,-0.052521814887418985517975,-0.931840487555781527007071,0.358878130833577113634192,-0.0256145736233880823295994,0.0243898419429768725796848,8.2216433626989182670286,-0.10964591993715103179774,0.0420822842158297474868256,1.15252678982263523366214,0.382455670017869953092315,-5.25583606835989858296898,0.860606385216905578339208,1076.78912781570647894114,1057.04428884835010649113,1069.74760643507670465624,1057.98078728191740083275,-60.5882465863487027490919,-325.956395594266439275088,-1674.10177664878415271232,-1470.96065430800854301197,160.024618343788233687519
0.232500000000000012212453,0.597527128394433670877106,1.86264506361946158286003,0.151023626100714458697638,-0.088602350493432124878268,0.142244605398511275717865,0.0231902284855013650355371,0.0112757183505102255571817,-0.0523481743403068008890777,-0.931832066069656628215512,0.358920025344837079206428,-0.0214587752680911077185488,0.0243417649872722935411318,8.19436104811454946172944,-0.110546196543578723048284,0.0395704398150801620048789,1.14864854050371301141809,0.382550646188676124470618,-5.25546629117130148500792,0.863480347607703535572909,1076.92709043216314057645,1056.69519044881553782034,1065.7311354463620318711,1054.38445008480562137265,115.667080698267355387543,-41.7857053087118046619253,-1621.59503309116962554981,-1489.13814194879569186014,160.029982082867377357616
0.235000000000000014432899,0.255849331496526666285263,1.79361281352618839868285,0.109756049268910180205516,-0.0869644696739286932052337,0.14786134674020118273674,0.0234905378068702812288659,0.0114437536613522326117698,-0.0521614760884108949468008,-0.9318251311167856654194,0.358959204987421398591607,-0.0177490859774931848680257,0.023692383860756713320761,8.16741536003539359001024,-0.111435093037603988319617,0.0370508707300625100833358,1.14467255251707311636267,0.382644594916294600306372,-5.25509334414979267791068,0.866345987611698786778902,1077.36746321919781621546,1056.83536032180654729018,1061.63963126962084970728,1050.53509657217341555224,198.135158358263481659378,110.359589175095507584956,-1749.18389089539073211199,-1690.7189422262929383578,160.035322053950807230649
0.237500000000000016653345,-0.270144918452355498050821,1.61071035810580909242162,0.0330560331646075691858222,-0.0871606474573515810355673,0.153263535006266771176797,0.0241730825947131383601985,0.0116133983209486604804006,-0.0519660249454314479566897,-0.931820338056007169136308,0.358992987815695774322933,-0.0145273057407247115080384,0.0224883205126776147819712,8.14091475128608266231822,-0.112314493226220543653504,0.0345330897855839619170482,1.14059762528300479011989,0.382738114635127912865897,-5.25471650131436085473524,0.869203061055669912171595,1077.9177662239544588374,1057.24698839469101585564,1056.98521599188507025247,1045.93085537367414872278,156.878049804527847754798,152.917807786889881072057,-1627.69586059194648441917,-1643.53509089679255339433,160.041693695874869263207
0.239999999999999991118216,-0.770130398007382477310045,1.40850823419335235975325,-0.0589835733636817072245151,-0.0891142401244809229110544,0.156351970172689286320278,0.0246455382025685364177914,0.0117830630648839869423217,-0.0517659752691111002542712,-0.931818625783388254646411,0.359018041180287406088922,-0.0117754207481127089185424,0.0207552787073105454718203,8.11496526462931377920995,-0.113178498027851112683884,0.032022488616412547735024,1.13642518755618882053682,0.382830648961083652714876,-5.25433500079579562935805,0.872050092757750805461114,1078.15185346822045175941,1057.59994936074099314283,1053.50115196666115480184,1042.3174211176894914388,-1.01669271816718276291169,117.285272540357794923693,-1289.67873508714228591998,-1360.63846975853903131792,160.046966922138437894318
0.242499999999999993338662,-1.3003928227963206243345,1.1937875395379673459928,-0.179331031621576042489608,-0.0922296899613108955851004,0.158424229649046677259605,0.0245694547529484233483466,0.0119561407260413143927025,-0.0515627212396939718641597,-0.931818866404597767605367,0.359036613440322338597355,-0.00956229220517422831560062,0.0185110234981746141214032,8.08966565628035638724214,-0.114034032925101322386574,0.0295233605849212835114947,1.13215735518487781163799,0.382922522367432738299442,-5.25394824429258910925,0.874885437046819425255251,1077.9126827603636229469,1057.8334147573928021302,1050.53682231644938838144,1039.12766302488148539851,-247.520723031584338968969,72.3060475543206138127061,-1184.65641906504856706306,-1282.50328378157860242936,160.05219515338535529736
0.244999999999999995559108,-1.94697877902989002762979,0.950984336425879206444733,-0.348107974997678537576462,-0.0967315585291818186286505,0.160474428668603313896668,0.0237491660529347871355643,0.0121351079124355810956448,-0.0513592828503241088933251,-0.93181913497928015033267,0.359052848871482810366729,-0.00792592788754963376018914,0.015799167397052601979901,8.06510257083589365834086,-0.114884827035610037615498,0.0270425984116328468886969,1.12779843196928064585904,0.383014040783415388169431,-5.25355680812819958447335,0.877708048006701990750855,1076.91424985306252892769,1057.96147959851259656716,1047.57786987133590628218,1035.90490469878159274231,-490.170551505843377526617,31.5923169389406837126444,-998.0345128687977194204,-1078.76204652393334981753,160.058409045790938307618
0.247499999999999997779554,-2.47973538821809080801017,0.769450762673683397174784,-0.501911682248877166756529,-0.101385338989505205398167,0.162085499054120868445139,0.0227342271714949008265538,0.0123146350711465270288958,-0.0511566934372210888049004,-0.931819158157954130494716,0.359067237995821353369053,-0.006787984148345293893001,0.0125962408856440805093868,8.04134775079169727973749,-0.115719927171028968970745,0.0245751237051936646804684,1.1233563344589065913226,0.383105024025891915950837,-5.25316226100054528558303,0.880517359247323883053582,1075.46183000283440378553,1057.99137634208750569087,1045.54664975210539523687,1033.73385279226181410195,-695.540499057687497952429,10.1228958608316954581596,-743.510845035097418076475,-773.080459284891958304797,160.063531675483631033785
0.25,-2.9832025784505944443481,0.608696130997687157027087,-0.661598367524936281647285,-0.107540684888565440946451,0.163756241388259282665274,0.021610481321876363197676,0.0124920719115953499783744,-0.0509536553784622411877869,-0.931818588792906576934172,0.359080900921562584660052,-0.00611707712934596564008372,0.00887070380621678145072195,8.01845353017536410789035,-0.116536669615324689486258,0.0221129456327134980841986,1.11883972875832249371797,0.38319464698121813439613,-5.25276555494541597113312,0.883312060145790667320398,1073.43654735777408859576,1058.01209407781675508886,1043.8603156461604157812,1032.03950240235712954018,-987.52285613627373095369,13.445787311320588131025,-683.655194337961233941314,-658.294676498234707651136,160.068590063974767190302
0.252500000000000002220446,-3.51694512769806566510056,0.434586642882330398407476,-0.848245881465539586230307,-0.11684740730704046285382,0.165670739025733759763881,0.0199919057847068905309218,0.0126647947656348420358841,-0.050745324884567830081572,-0.931816974948129095324134,0.359096072497571860981935,-0.00589590796406923561140401,0.00455142610699316163547223,7.99645054584937575725689,-0.117336127690262956302369,0.0196409016073484168907193,1.11425811488665948978394,0.383281696838009000583014,-5.2523668859235579375877,0.886091307114195703142911,1070.52421572215303058329,1058.0586052786441086937,1042.12837378041558622499,1030.44237940977063772152,-1115.63997084358470601728,15.0559880903983724920181,-594.914488671155936572177,-530.227278748724984325236,160.074578578504599590815
0.255000000000000004440892,-3.87360438279369434511068,0.304283737800248810234649,-0.985902095902029373952757,-0.126132081701648135485527,0.166837914177775853419305,0.0181435626533346348876474,0.0128262758119918208327137,-0.0505271878602311513839496,-0.931814859776699200288874,0.359112985996760503137892,-0.00603859918169323810904769,-0.000435506298147661508046724,7.97534538275059023959557,-0.118111498297707062654638,0.0171410983127335755926701,1.1096223647351748375911,0.383365042545291856423972,-5.25196619765093775100695,0.888855103219878150966338,1067.8583475035561605182,1058.08737401826874702238,1040.88574320280463325616,1029.38836600861350234482,-1079.16764675001013529254,-7.45150898414976214922945,-454.986472735208337780932,-380.349584093937323814316,160.079496057789356200374
0.257500000000000006661338,-4.1080606830171486620884,0.193683267573347223100555,-1.08218591681234355128538,-0.136610856306331795995135,0.167332655834094734537132,0.0154484583934957585282799,0.0129748604341690665364695,-0.0502938933765718979018722,-0.931812869194331039324197,0.35913227586203988472846,-0.00653048576713845512625722,-0.00613258734402290228704402,7.95511946292742422315314,-0.118867245923678990782157,0.0145981037067034712106928,1.10494202420434550759865,0.383444034349609053080599,-5.25156354785887025116153,0.891603947781962724583593,1065.12837748840297535935,1058.02134773372335985187,1039.85344141673954254657,1028.54063148930094939715,-1082.73241334882095543435,-58.0964225478509845856934,-370.793634899927951664722,-312.339962919304241495411,160.084332389024950771272
0.260000000000000008881784,-4.22706317919224439094705,0.104164844971246117744101,-1.12607852958174547985948,-0.147338970142285891062883,0.167407114421603747667078,0.0119929747874213399327914,0.0131102986971136578620012,-0.0500407821248795153801225,-0.93181372358842939895851,0.359149886163985132547793,-0.00736446558671207101437473,-0.0125483177540707951935772,7.93572952499923012226191,-0.119609742528677759354494,0.0119979176698559401176292,1.10022575523709043032738,0.383517967933823256121428,-5.25115824878058656821622,0.894337724356332075537068,1062.44468543681205119356,1057.79689190552949185076,1039.03177502830499179254,1027.82666619401697971625,-1052.40031573639407724841,-145.322992023738919442621,-264.376685723027321728296,-256.597633854562218402862,160.089097765820014274141
0.26250000000000001110223,-4.20277635627461165768182,0.0431482331182277828451888,-1.0928873697657222052726,-0.157802102763719670486253,0.167310592231083771208588,0.00809570758669919503247581,0.0132317945456874620779875,-0.0497678633305638634665158,-0.931819779078592369536693,0.359163164915859700609957,-0.0084946205032979844873342,-0.0196089975060090848657524,7.91710877616249852906094,-0.12034023237634901282167,0.00933603859890807727395234,1.09548155644285505339042,0.383586636216163012758074,-5.25074946062152569936643,0.897057626793979046020411,1059.86637590972100042563,1057.29473277360466454411,1038.53155798812440480106,1027.25764332002813716826,-1115.12414969679321075091,-300.188373503078480553086,-129.005857600759441083937,-214.464354010169500952543,160.093773608004454445108
0.265000000000000013322676,-4.01406185791048564226458,0.00151384782596512140750988,-0.966652764405018016802273,-0.169778177737092583754475,0.167079590858668747266336,0.0040313789670650412855224,0.0133402327444312809867633,-0.0494807944459231680012223,-0.931832469528334650377133,0.359170428167651878403888,-0.00986528521653727910600828,-0.0271321797988562790626688,7.89916958481308384421027,-0.121058345573024653263339,0.00662076476235399970921014,1.09071612300352227542533,0.383650645928943434537217,-5.25033748171683090077977,0.899764496473585473346191,1056.86906468832808059233,1056.29595003801409802691,1038.38674574030119401868,1026.75434442396613121673,-1095.2842691358446245431,-436.400420163135606799187,29.9358055829543197035036,-149.008032860137831221436,160.099276533078693773859
0.267500000000000015543122,-3.73232423078974662189466,-0.0113375037611602811488121,-0.806689869290381000865864,-0.179231579418350134291771,0.166681993444640547119562,0.00163078883676106276869044,0.0134374947876806302704544,-0.0491854628778222793816788,-0.93185041405289315008531,0.359171436947891997704119,-0.01143428788633195705704,-0.0349104934857842746920298,7.88180819648723485215669,-0.12176478224285224027934,0.00386165537213016898943074,1.08593453549321217188606,0.383712298714001143196128,-5.24992381195549384642618,0.902458308020842370211767,1054.38995456404177275544,1055.11273067278898452059,1038.68123701603917652392,1026.51260315572744730162,-1004.75972558392550126882,-541.837476010368391143857,201.323952714983363421197,-50.4095593307283280637421,160.103769279293175031853
0.270000000000000017763568,-3.33437885516071519376169,-0.012044630464379589215862,-0.620331060893786867538324,-0.187922469849125167717929,0.166192859138261150864224,0.000260835215680660077817304,0.0135292687867285942732165,-0.0488877213093421025824625,-0.931870095946418897092656,0.359170871839325167584889,-0.0132198497117154874225253,-0.0427022600842195745873831,7.86490891429886662677973,-0.12246731260806112406847,0.00107170513330752652930711,1.08113945355630858280449,0.383773882728617898862922,-5.24950912347402010027508,0.905140101779611794263758,1051.84526606040844853851,1053.58676265796225379745,1039.39336550387611168844,1026.50229662731248936325,-1147.55159784681291057495,-733.86508845223875141528,388.818796594022956014669,60.1154919886539005347004,160.108162379635245997633
0.272500000000000019984014,-2.74273379978629083808528,-0.0198487196959501316362307,-0.401071530974184908835412,-0.197068976471583917620123,0.166019624261903725459533,-0.000499316747478768850967978,0.0136181721914324094235837,-0.0485891878887746292425831,-0.93188865136134202415974,0.359173492377123704244468,-0.015221624209562845814192,-0.0503350625369498455574657,7.84834957863588300597257,-0.123169480923804461336424,-0.00174751497082614119099597,1.07633232590757677016313,0.383836325175060388836812,-5.24909320677511459507514,0.907810324864293693991613,1048.6521965748077036551,1051.44340523052778735291,1040.62533099900929300929,1026.81318061567071708851,-1194.42633204748631214898,-819.127021310213649485377,487.087126502319279097719,173.746865359407678397474,160.113315840597493888708
0.27500000000000002220446,-2.17404294173022671898821,-0.0514771655378641890266067,-0.241140097380496021273188,-0.20332181960972742218452,0.166393586981564478577411,-0.000655556491966061485876516,0.0137080007335340335605789,-0.0482891874830625386638694,-0.93190432262462274959347,0.359182345621610388253231,-0.0174725792159745214882083,-0.0576554638662707813479003,7.83200574828402018567886,-0.12387750895545435181333,-0.00459837455586186924505476,1.07151253101499621678272,0.383900552648578974324067,-5.24867546482764435467061,0.910469139406098970646042,1045.87313440017101129342,1049.49112755141118213942,1041.82880113638771035767,1027.37103095410952846578,-1125.21222186091927142115,-788.163421752914700846304,473.759329353333271228621,286.432464445169671307667,160.117509940105378518638
0.277500000000000024424907,-1.55573472966275927475976,-0.129376115710319261609129,-0.11752650723820402822728,-0.207709098718583562437345,0.166940268429659505189377,-0.000570374100507701998694077,0.0138032793514449979993541,-0.0479890409953223628924945,-0.931915896076994099139768,0.359199464675815094416578,-0.0200099703715307837559312,-0.0644721957460095002057088,7.81575523473466926560604,-0.12459629596643616300522,-0.00747799392689356585972593,1.06667792619839185697117,0.383966976184845598663031,-5.24825462063736658535618,0.913116242400293542935685,1043.02613546550310275052,1047.50258812176321043808,1042.99412764577596135496,1028.24534293789656658191,-1245.35723781555020650558,-850.505911326626232948911,445.518399618321893740358,448.403215398320355689066,160.1215978768486820627
0.280000000000000026645353,-0.793379741124969672938505,-0.287006301992756340801805,-0.0140540711786924215481731,-0.2108331479273902742122,0.167300071791091964357179,-0.000379796257597275386218294,0.0138997579505727702348095,-0.0476879577685291808353263,-0.931923597144541870918033,0.359224250968787350846156,-0.0227597346316381794750772,-0.0706743842554289902757603,7.79948371577829036027651,-0.125313876719650857394228,-0.0103934958510961857058863,1.06182670536640055836131,0.384035337908708418463988,-5.24782969113722685960965,0.915750944307309189262867,1039.64634821109325457655,1045.23859799477804699563,1044.05639313447932181589,1029.61304703110113223374,-1213.72490333942437246151,-788.74598243942205044732,293.477550225679522100108,538.916341607864069374045,160.126378912071032800668
0.282500000000000028865799,-0.166707497200241500090456,-0.468725172233752374051363,0.0383355099001182544893318,-0.21191372108537864793476,0.1671023623774308131118,-0.000224019387032423604325451,0.0139918432410186168585176,-0.047385674150022517869818,-0.931929176020494631771385,0.359252454295929224414863,-0.0256302222551661081084706,-0.0761560074809860820810314,7.78308858690487781473166,-0.126014715333485405324154,-0.0133507020552495539456039,1.05695598224419451405254,0.384104818037971362798544,-5.24740006475213061065688,0.918373838981381473978161,1036.95751094880597520387,1043.55885820956609677523,1044.46151539690436038654,1030.93992464593588920252,-1026.90429421718272351427,-612.036816494309618974512,27.584249721303397251404,540.686513654508871695725,160.13025836720007077929
0.285000000000000031086245,0.423225080149975840804188,-0.686812392352114442495292,0.0634394268170443420551408,-0.211659183481562596096381,0.166131607456478147533119,-0.000109937387769458485013881,0.0140735531128391554850365,-0.0470815211821625570487448,-0.931934552524144255158944,0.359279653037806512294594,-0.0285336484474544745115754,-0.0808293532272693349138848,7.76648293844800985397114,-0.126683278939996007972368,-0.0163538981891461557283129,1.05206148624375384059704,0.384173694738891291500238,-5.24696523734255482196431,0.920986035509185785308262,1034.51182674000733641151,1042.17841391230649605859,1044.19431438308583892649,1032.31647959937367886596,-923.673489904921666493465,-498.497801556140530010452,-229.214729426075592755296,531.125817889414520323044,160.134028224451412825147
0.287500000000000033306691,0.962162023138919964004856,-0.916094873260370867740221,0.0725813913558980283724509,-0.210316335760463740678361,0.164390671228297119421669,-3.4697682491376181696148e-05,0.0141433370019542255929812,-0.0467756737999553140472386,-0.931939881765981859018666,0.359305814323376770946794,-0.0314513670907153181088844,-0.0845851146890507499254142,7.74959848504138371083627,-0.12731364566615294142693,-0.0193982599440549845215553,1.04713676741349948073889,0.384240240113859821136089,-5.24652371061608047142499,0.923588452672635784601596,1032.33914349928136289236,1041.06636920178539185144,1043.31544174977398142801,1033.59555373538296407787,-789.47095518347748566157,-387.037319562982133902551,-490.779585463774765230482,450.694402319418315983057,160.137706761334385419104
0.289999999999999980015986,1.41200172769676823847362,-1.13168290179345509827158,0.0697425231996516015176013,-0.207502692875894428903294,0.161777954462907075372513,2.81836441470033474549482e-06,0.0142063220554956674834823,-0.0464698331148924795308552,-0.931944542815839715999005,0.359332483851976802746719,-0.0344580961679631231353582,-0.0872760745155191780542125,7.73238776293891483248899,-0.127913195755713915424678,-0.0224677871438372887824553,1.04217324568254587902061,0.384301360146750980995023,-5.24607404822447431769206,0.926180871960413876209373,1030.56447196408998934203,1040.24322731449160528427,1041.74041645576699011144,1034.56995161097074742429,-676.705404883348478506377,-318.104455693677266481245,-819.271389238983147151885,311.195569312716088461457,160.141274904874990170356
0.292499999999999982236432,1.8102200425338925704466,-1.34004952626736217879966,0.0595989345554198690635417,-0.202241318247244589167977,0.15763686177378083419498,2.18599158229823597229119e-05,0.0142713437595668821838979,-0.046167347849226422762392,-0.931947339726902579393197,0.359362324835819757495869,-0.0376750711438302715583504,-0.0887372635101878609598103,7.71482554334740200374654,-0.128496688371106865256266,-0.0255379924457889186106829,1.03716145437148732355581,0.384354640220405441297657,-5.24561581195845239022901,0.928762901181409694650881,1028.95561647486465517431,1039.47584692331702171941,1039.21908480357910775638,1035.15153158194652860402,-499.691035494924562954111,-268.102046549983924705884,-992.774505566193511185702,86.5376310839109663675117,160.145428948113419664878
0.294999999999999984456878,1.99903440327233350437552,-1.45113806005030743229156,0.04877187410984729770691,-0.196482953592827608302329,0.153419251224365366104152,2.87995299800692399112573e-05,0.0143428373856590730267557,-0.045872570853271399382578,-0.931946845240834487178461,0.359398603805173355585367,-0.0411538808415434359533336,-0.0888444145364677972942502,7.69690947736346764429527,-0.129070974324571541291817,-0.0285841572704631161072619,1.03209330747427285857043,0.384399445721494092964576,-5.24514983372984833209784,0.931334451652584105474375,1028.06601678661536425352,1038.90271708174168452388,1036.77654392793601800804,1035.0026397663903026114,-266.153303120199552722625,-245.605235795937687726109,-999.32111791131228528684,-213.009132283195668833287,160.148784142222126547495
0.297499999999999986677324,2.02407024956390424463848,-1.48445385115864270098029,0.0371136339000108367303099,-0.190194894583304935364865,0.148974814765731738974708,3.89151359412674414895925e-05,0.0144195631980591869314434,-0.0455891859391961556946526,-0.931943586846924909572465,0.359439771883402814367514,-0.0448616288085478126523853,-0.0875480184258030785793281,7.67865934484605006105085,-0.129632941426834347176111,-0.0315879166616104337106385,1.02696267660645856878432,0.384436380446371406272021,-5.24467734304342236839602,0.933894643983955274890718,1027.62484995926365627383,1038.24782074433733214391,1034.22247921402254178247,1034.0864859205305492651,-105.358932723902299244401,-336.262770854227426298166,-1098.71808225634504196933,-585.522246928439358271135,160.152028533519683151098
0.29999999999999998889777,1.87526783919879669326747,-1.43877642632644531239805,0.0217616564138326494537434,-0.183220503519462230013204,0.144385933870228744257957,6.40894477193705455709757e-05,0.0145049280979694245052869,-0.0453190650486167551092009,-0.931938582099593570973184,0.359483000156114007594965,-0.0488361338439480818784943,-0.0848328787320385968584446,7.66011435259670214747985,-0.130190482416906172513649,-0.0345316800634661510982504,1.02176327352500018186277,0.384466005194216309259758,-5.24419974370548480635534,0.936443263992073893220436,1027.53922212299585225992,1037.2214032274705459713,1031.28295351665428825072,1032.07502853174810297787,26.4259393511565328083179,-429.616557116150545425626,-1029.19357330188086052658,-878.95761847253118048684,160.155793156712292102384
0.302499999999999991118216,1.62823211093514341740729,-1.34129648882427687794916,0.00653821461290098396301751,-0.178465651154496779406955,0.141466902273299027781306,9.80480813495456508159867e-05,0.0146055971953041197758383,-0.0450614030149772762379179,-0.931932235282151966160313,0.359527207770703405298462,-0.0531704390339784588315197,-0.0807371407990121331410549,7.64133023748255801876894,-0.130760416562667680651089,-0.0374010722808872375644285,1.01648908725037800948598,0.384488993177012960966721,-5.24371854624447131243414,0.938980856651712714189273,1027.75697965601943906222,1036.09973795875657742727,1029.07651134751313293236,1029.69169782816788938362,124.987285889255758775107,-508.104562717789576709038,-813.526640072040436280076,-1072.70837105347618489759,160.158822554953360395302
0.304999999999999993338662,1.29843923907316272092771,-1.19566712708789135710674,-0.0131807781779396497590096,-0.175119669062453242602828,0.139215666349250088984491,0.000139355983895777483117656,0.0147211523322186132317624,-0.0448124428757344719920219,-0.931924509484113539059535,0.359573066669834628950042,-0.0578651086076494153287442,-0.0754106240423608603640204,7.62237678186932665624909,-0.131348653363100947855102,-0.040193244470011914304397,1.01113684908683909569049,0.384506179556916127815214,-5.24323392588936965097446,0.941505968518878799677907,1028.16415855244213162223,1034.68088041388159581402,1027.21532031629408265871,1026.71148667648071750591,197.840521095167616749677,-684.246865844851868132537,-735.602510432362805659068,-1404.01248152354469311831,160.161739146284588741764
0.307499999999999995559108,0.863469806071834877769788,-0.968754604610698843991656,-0.0438100605964771294686955,-0.172981406836981738139869,0.136694042969472212556425,0.000173724592058578669205235,0.0148500823427644233071243,-0.0445682608506163327466432,-0.931915571417756938288335,0.359620753945062487932915,-0.0628964291760653326779362,-0.0690383832700073030164134,7.60333359396773111882339,-0.131958908134599539607734,-0.042907993933971246003356,1.00570540899922522548593,0.384517661009979749842103,-5.24274560746007178835271,0.944016284754382484223356,1028.74618226149527799862,1032.67850362953231524443,1025.39849879535131549346,1022.67163542055016023369,212.952943308618870332793,-770.473938854774360152078,-603.840533815672984019329,-1520.98670686504965487984,160.165107261452021703008
0.309999999999999997779554,0.502956801048359714023661,-0.729926808162029039372953,-0.0754026593250848725658031,-0.172605266572587151552298,0.134401105231917422644372,0.000157755572841936222506024,0.0149891989852617615180952,-0.0443261607748981281695855,-0.931906384164729151287077,0.359668274456756975610006,-0.0681993350108946322363224,-0.0618198107580047312437088,7.58428615818182461083552,-0.132589979249664646765439,-0.045546303854731289006974,1.00019616405507161260857,0.384523493187210796406816,-5.24225265127624684424745,0.946510310464505066896379,1029.22892326898522696865,1030.82851071960772060265,1024.19611764721571489645,1019.1065531421554624103,177.293648717204462172958,-755.612959797326084299129,-432.018103327072424235666,-1422.45533054781253667898,160.167802989359785215129
0.3125,0.168147117372092480547252,-0.429917631593913107668214,-0.111791227827346253964613,-0.173089678921657247334664,0.13192296456921276393004,3.61834924248945571348575e-05,0.0151278795125279752475933,-0.0440822751488046463141934,-0.931899466233627071787282,0.359710029759920113523464,-0.0735991000687689633785737,-0.0540289370156544768164508,7.5653228875101214967458,-0.133226310622010096773593,-0.0481197021164688140681953,0.994613679338227640869263,0.384525441474482698733794,-5.24175523223948314210929,0.948986696216871927767045,1029.63265050508130116214,1028.90043883054568141233,1023.23840827871595138276,1015.55935876781109072908,139.677754902777337520092,-766.347763827206335918163,-356.362008821156109661388,-1385.41516604588991867786,160.170381896261375231916
0.315000000000000002220446,-0.143671500174787553083533,-0.0798720829160510931155059,-0.149603897803853302939103,-0.173649681253249837942221,0.129829320827778121882901,-0.000231450893271090547788013,0.0152557500038206991788137,-0.0438319712819758358635092,-0.931897378328743197783979,0.359740386011228374663062,-0.0789217701937094534558881,-0.0459597025067679798571163,7.5465306351833252307415,-0.133852748357361078790362,-0.0506432104259530654899457,0.988963623487498333375356,0.384525850711256167446805,-5.24125462852790402479286,0.951445144627188876818025,1029.92731204349911422469,1026.99677190047168551246,1022.41430760310993264284,1012.17947731192600713257,83.1289646588174235830593,-736.47300723464400107332,-312.154463391720753406844,-1280.96402570529221520701,160.172863049319147421556
0.317500000000000004440892,-0.439658741428553989649686,0.310517673442020358809401,-0.185002387079944569103773,-0.173903721197718907909291,0.129206293871051092203572,-0.000747220297202790093189784,0.0153653926096447186744332,-0.0435739422509234392011379,-0.931900955713680700931434,0.359757639153539088283651,-0.0840132854349275454142187,-0.0378464967015406522632404,7.52799061540766345501652,-0.134457467266054869758918,-0.0531248038050230672602048,0.983252394541992869037017,0.38452729018796860671614,-5.24075182513882520396464,0.95388539976097541650546,1030.04829532837538863532,1025.21807379437245799636,1021.67763596175734619464,1009.15453863928462396871,2.77294947172776762300828,-735.575657707635627957643,-315.460345238033994519355,-1219.73075897658304711513,160.175226080952626261933
0.320000000000000006661338,-0.791985172644547708031837,0.777295332228354340919907,-0.220321275022064833049029,-0.174415135293081724476849,0.130721110154886771548277,-0.00169733210664454537211498,0.0154588940403306562831887,-0.0433083929519615384862163,-0.931908770545826103948173,0.359765343018930761065377,-0.0888421098362377342771978,-0.0298481604251936982752369,7.50977404230194878209659,-0.135045618951080914627028,-0.0555637969485632404742503,0.977484868557797925703312,0.384530589166497349662421,-5.24024658024989342663957,0.956308726702450928591759,1029.94117679085775307612,1023.31889361193350396206,1020.83700587691976124916,1006.08082351704308621265,-89.3217704203379128102824,-649.187892330155023046245,-302.180458876841555593273,-1021.65982584060566296102,160.177925956609840341116
0.322500000000000008881784,-1.08374127229205186040417,1.12280174631952611719043,-0.243594099996619101178297,-0.175565110165091103899826,0.133709238881969949552797,-0.00270318925550459008069759,0.0155381615532007872487741,-0.0430343259524189128417682,-0.931919682132513416128461,0.359766459607781585727793,-0.0933743759468485812202942,-0.0221340139776236982660507,7.49194172367223742980968,-0.13562235816672818522477,-0.0579640421570839226017569,0.9716655340002191554305,0.384534353285577168435339,-5.23973903507106619770184,0.958716456195080724000945,1029.60168647627369864495,1021.97213433272168003896,1020.16673366737313699559,1004.04623951008159110643,-197.321202240527611593279,-486.236861735482762014726,-255.218204102743356997962,-699.953970779824317105522,160.180064090383183383892
0.32500000000000001110223,-1.35654782225779158011392,1.37912256100703944916575,-0.26663812454412416652616,-0.177770684416782398518109,0.137780179698380883523967,-0.00363456759406378558316386,0.0156075315586859716260326,-0.0427507987343600029395141,-0.931932519792171953909588,0.35976392282295860391983,-0.0976051641482524601212134,-0.0148464539947257972984929,7.47454212453609567745616,-0.136197022008040624641012,-0.0603292425925588682300571,0.965797873152921426687101,0.384537011349451451902581,-5.23922955636945975044227,0.961109620439998590946118,1028.95457077965511416551,1020.88770930325608787825,1019.5609148564060433273,1002.58105366314396178495,-363.384507524142122747435,-419.116553812818494861858,-238.930419202097056086131,-519.835004245896470820298,160.182088782582866315352
0.327500000000000013322676,-1.62351810632207138596073,1.55156099048432816189802,-0.309155916479198711321885,-0.182077548666439797964145,0.143320372120063238563503,-0.00406975673572988142639995,0.0156753662860272639789638,-0.0424573420531182826875849,-0.931945673955558717693748,0.35976157651183388042071,-0.101580025133834711548175,-0.00808183051177097100392643,7.45761013165934905089216,-0.136785871549402832103581,-0.0626606044759317470926874,0.959884017623344965031151,0.384538538137357610580125,-5.2387185085858938293768,0.963488450959985476274028,1027.78476393865298632591,1019.87655156365758557513,1018.9720815713626507204,1001.44706448885210647859,-494.556876085425301425857,-327.335678478288798487483,-185.268149273201572668768,-322.823456878495278488117,160.184391398397906414175
0.330000000000000015543122,-1.76253317388768948603683,1.57442175325113242756458,-0.368033209680182882284072,-0.187136395743931954749328,0.148231653476931707347219,-0.00377294797070101828317945,0.0157443002107987423121571,-0.0421524881982740171060264,-0.931958021006784487205721,0.359762376802164163258624,-0.105267460853325639513756,-0.00196015065569864199712669,7.4411694181571306216938,-0.137395144876352681695408,-0.0649664773068215212203924,0.953926531344163164405359,0.384539695123634006623803,-5.23820715958467353345895,0.965852711778183548041454,1026.48178639922798538464,1019.25103091086464246473,1018.6345741100400346113,1000.96693637875148397143,-581.203417607366077390907,-212.464640487291745785114,-101.729968671497687182637,-112.941490617322315870297,160.186208174720945862646
0.332500000000000017763568,-1.78431138093139773914686,1.48107768859434973940381,-0.452634213652352568324488,-0.192991490726925729592978,0.152823069506359682234731,-0.00353714740776049554188409,0.0158119583831752494318401,-0.0418364261315310181910121,-0.931969308597827561513327,0.359767053958781557465585,-0.108556646433987755151485,0.00341835429084437480984349,7.42523269315758582820308,-0.13802040053317676804312,-0.0672570252590277278814668,0.947928867510402173301998,0.384541287759155026027003,-5.23769643863036726827431,0.968201917162873404443246,1024.87874685061615309678,1018.81422836122112585144,1018.46343172800516185816,1000.88235703576549440186,-756.160589049249438176048,-157.657327394463067093966,-48.6004998609132172759928,32.8571773127350468257646,160.187924348579343813981
0.335000000000000019984014,-1.66721116461195517644001,1.26767740764769420991342,-0.56137097920664225103593,-0.199791467699341085406672,0.157088322042007427770116,-0.00427215036001797349857201,0.0158741158490250874879557,-0.0415151324241398514414136,-0.931980151264459433235743,0.359773497728152924501899,-0.111281601015105979790576,0.00804848244596630124636505,7.40980116832701529716587,-0.138649292443444205336078,-0.0695344727000972023800429,0.94189567853422517806905,0.384544172263830363878157,-5.23718682139082769566585,0.970535778321938935597757,1022.70098345398173478316,1018.46274427389232641872,1018.39157161073546831176,1001.13122226531515934767,-823.803828645463227076107,-107.508636816009939707328,-21.2195667815421806778886,135.212659489911743548873,160.189873992132191915516
0.33750000000000002220446,-1.4668435163268129795,1.03784574766169268578153,-0.628805633564414989677971,-0.204492249914338369842781,0.159452876030425683140379,-0.00603294609758563919049701,0.0159328019186310079757796,-0.0411960679528587739306467,-0.93199116453899477630074,0.359779145615567008675839,-0.113359591759677316713528,0.0120036331428576975577371,7.3948636479065417148604,-0.139279200779873407745058,-0.0717942124112361801380189,0.935830171476778049921563,0.384547889873928239179435,-5.23667808089880892907786,0.972855285810739101037825,1020.75972770738883355079,1018.27668517714107565553,1018.35733389409745086596,1001.55842033321505368804,-782.480207295883928964031,-62.9878148406532432090899,-34.6376897827212530955876,200.872921216637053021259,160.191411514638218704931
0.340000000000000024424907,-1.20019776394530075513956,0.791410932041361592226281,-0.635356660960452845898772,-0.207645994953714330133465,0.160836853265768492393661,-0.0087557959970447837849683,0.0159878323085751831988954,-0.0408825470576025251645547,-0.932003363135097795399986,0.359780979548798174327828,-0.114705603210994239171683,0.015311562627852590146027,7.38040061746039199874758,-0.139905888438195014078502,-0.0740397817670170738102442,0.929734575100416127391156,0.384550868162921444248781,-5.23616945335271033457047,0.975160936138633305247936,1018.78858241750231172773,1018.14780519968905991846,1018.21838316182186190417,1002.13558687139834546542,-781.17466877963511251437,-51.9820384741478420664862,-92.6029778709561526284233,243.890862379589407282765,160.192862856166215124176
0.342500000000000026645353,-0.915319364238936672428792,0.55194965592403233412,-0.573024174153491272498684,-0.209547942648232704554445,0.161685731929322701327933,-0.0116024406852254253347256,0.0160412381212522679729826,-0.0405744343566613180351865,-0.932017075509052883575123,0.359778062437519807748032,-0.11529275739823872937162,0.0179865769025994992613704,7.36638419145767464613073,-0.140531139859280673753972,-0.0762771798389715316446313,0.923609386653943209566364,0.384551948612096960999907,-5.23565953132768679978426,0.977452914305598885569282,1016.85385436349065457762,1018.01677498477033623203,1017.89431900474266967649,1002.77787464511300186132,-756.210552995684565757983,-67.1968156744923703627137,-193.522358993527461734629,256.019014725506849572412,160.194245337410194451877
0.345000000000000028865799,-0.64796339718281537045641,0.334265483115755157594862,-0.424912931097614909869975,-0.210288123924314951374015,0.162132974830418469247562,-0.0138448023145272183093146,0.0160975400912658078711459,-0.0402721320848737074360457,-0.932031538891724187223531,0.359772117426987336763489,-0.115136751567445058674899,0.0200831545519881415895469,7.35277861493529982794826,-0.141160402786812244624315,-0.0785071964999142224428397,0.917454440911428359406443,0.384551153462463879417754,-5.23514707828271586009805,0.979731025541886513252621,1015.00752965252388548834,1017.81182112131659778242,1017.25077136685422374285,1003.41568194502588085015,-788.3054482003665270895,-127.04281201206401874515,-373.944717635231086205749,255.146449840412742560147,160.195547186835426600737
0.347500000000000031086245,-0.380774717052333233624495,0.102404105364828718061077,-0.168114507806432222913884,-0.210370883642292422210929,0.16229314289311166930041,-0.0156645539551926379906455,0.0161593757658664953502647,-0.0399733183338136927043038,-0.93204494301346274554021,0.359767975122193217618616,-0.114255052396790859892128,0.0216242458649134744463893,7.33954312001842978929744,-0.14179739419485290485845,-0.0807336661772509595058622,0.911269244499595898467703,0.384549172409038075848287,-5.23463140577047969514979,0.981994488950350463696282,1012.91232712248881853156,1017.38156092471001556987,1016.02459541656651254016,1004.05360689431506671099,-749.684303393154777950258,-201.530150396638248366799,-531.759695184791326028062,194.245904513627294818434,160.197018336327033694033
0.350000000000000033306691,-0.211370982903770654459663,-0.0701026083027354723897773,0.0839899989021148929424498,-0.210136633194826588644233,0.162127101685786756402052,-0.0162050220667487587800082,0.0162266210852073620996006,-0.0396747693864741846070388,-0.932055633842231667784972,0.359770289428355261041048,-0.112645878191298912107676,0.0226171250119046457482952,7.32663301228618379923319,-0.142440687204653998465531,-0.0829617197482913626416234,0.905053788654023638748924,0.384546306201772658539539,-5.23411138620921079223081,0.984242042555536822412421,1011.25910813555810818798,1016.80417036933340568794,1014.59197289093026483897,1004.3869114675940181769,-645.361764111187085291022,-286.592612056009045318206,-658.852701883467830157315,72.1086043641669789394655,160.198169274948298834715
0.352499999999999980015986,-0.0898581808031897466548799,-0.230579185014032878031642,0.332533774895983236241648,-0.209980070851788408470284,0.161784369088543267256597,-0.0152715301493339481592182,0.0163014166285544090384541,-0.0393728730800717019455703,-0.932062032911012972036247,0.359783462195404413197508,-0.110356006263862327365644,0.0230828990669702388549567,7.31399910080659587663376,-0.143092029379673246758387,-0.0851937050052117839094024,0.898807693608798752293865,0.384541644941751192821044,-5.23358554798832908971917,0.986473600669744432600794,1009.68551830193291607429,1015.94859786442998483835,1012.73033190714920692699,1004.41414991613589791086,-675.424708922089507723285,-442.833129161049328104127,-908.505809146854744540178,-76.7338639753696583056808,160.199242582911125509781
0.354999999999999982236432,0.0243130140882564342585948,-0.42208168054839123595201,0.576991861409284712003398,-0.210308195811712284051254,0.161336053493275594084011,-0.0124897541670276751579749,0.0163886847067228128005389,-0.039068030958774202510142,-0.932063925043379648549546,0.359807787748037455344274,-0.107464109501707455462949,0.0231145325262370610053253,7.30158787276508469687997,-0.143753451585266894818815,-0.0874229514658338424659689,0.892531318524262262670277,0.384533911745388423675251,-5.23305270351998519373637,0.988689261460330648390027,1007.88198459094769532385,1014.59000472352818178479,1010.04944384519603772787,1004.00324214771717379335,-645.052773168458202235342,-548.962161269855187128996,-1042.78938101453968556598,-232.610936062769525278782,160.200440414470563155191
0.357499999999999984456878,0.11245916100718679475623,-0.587011965112960054646862,0.711242105566853299869479,-0.211228718207810084450671,0.160896103150274805138054,-0.00936643139748966763180604,0.0164845844226809978838588,-0.0387604124213386594388631,-0.932062412161494102669224,0.359840556912660536337256,-0.103947029079394112627277,0.022754821989000348358978,7.28934639038380005615636,-0.1444113439801283094166,-0.089648584883922910471199,0.886227049700599067705298,0.384522945222607159809769,-5.23251235018889548911147,0.990887706733413420323586,1006.46025443609062222095,1013.20378705808070662897,1007.51638500207650395168,1003.25109523582204928971,-545.969277383437201933702,-598.756698936699081059487,-1049.36680395301118551288,-388.000470006590717275685,160.201363114510201057783
0.359999999999999986677324,0.20571578275103974409177,-0.755247162636131341706403,0.767710148417214965910205,-0.212335493817802201110823,0.160163507897003759561372,-0.00645487105617088049308583,0.0165852938934479311738901,-0.038449449057780138439,-0.932059793775667277948571,0.359876036762069084762317,-0.0998026970110869188212988,0.0220334221371474153761127,7.27722090195144133417671,-0.145051846813065127284048,-0.0918713494177963441167378,0.879897266827559421109584,0.384508900050102297996091,-5.23196525671551615488397,0.993067971515534053672525,1005.15213820403050704044,1011.59622122884468353732,1004.80260982543097725284,1002.06323979768421850167,-540.870218491863397503039,-751.277908499900377137237,-1198.24499589340007332794,-615.336607082576279026398,160.20220700201093677606
0.36249999999999998889777,0.311020117071734825131557,-0.941179867819659676797528,0.767667816243528755570935,-0.212424282581883394627198,0.158545471092191164741436,-0.0037063217550622521399839,0.0166880164516872847579876,-0.0381355334598561732106781,-0.932057441973624500874962,0.359910749671172425223631,-0.095056246646105027608975,0.0209944164423127022089943,7.26515750933069170969247,-0.145663082324559794988872,-0.0940892102726416934554976,0.873544317303896922233264,0.384491938392899690324356,-5.23141220084668656653548,0.995230857248109113122325,1003.75590334363130295969,1009.44739751558120133268,1001.5251600226094979007,1000.17441220040916505241,-477.990917774149750130164,-823.399909386602530503296,-1176.24423583374550617009,-756.966160003502636755002,160.203128021401568048532
0.364999999999999991118216,0.368711699560055616853305,-1.05736501143554773030075,0.738415909838494699535261,-0.210977672652938125219535,0.15628922400423037042394,-0.00206216110360949627169913,0.016792719424222401353175,-0.0378182363506251104090516,-0.932055878775759905074949,0.359943385037553853500469,-0.0897913708598529203275262,0.0196798532876571036220881,7.25310355933290829000271,-0.14623925654245539806908,-0.0962998418474745737638543,0.86716944843908316808978,0.384474004832696558686678,-5.23085426402248732102862,0.997377134988579494567773,1002.76218361515975630027,1007.4792216819116674742,998.921388646262244037644,998.278408997666701907292,-359.752937600069003565295,-826.330246881843095252407,-983.473822587369795655832,-802.743607329920678239432,160.203818772377218238034
0.367499999999999993338662,0.365425921140139831067017,-1.09636993635299351268486,0.713740142651189346523211,-0.208608050241023301740739,0.152942332464974101169375,-0.0010615675752617267316863,0.0168995189909989969312409,-0.0374994846300305897934813,-0.932054763062520774674624,0.359974616542146907960387,-0.0840960489312752579316168,0.0181584575906222761565445,7.24100956533814077431543,-0.146774593282812032546403,-0.098497479417154296110759,0.860774085439253933138559,0.384457513542317330657028,-5.2302929244411968667805,0.999506250798282813718743,1001.95713865563095623656,1005.31574628117198244581,996.60779090967264437495,996.160694163759558250604,-292.326161145183220924082,-898.730005917513267377217,-859.002307390073042370204,-863.272988933430610813957,160.20442936174541159744
0.369999999999999995559108,0.301981619412762913867709,-1.04719123557524596002111,0.713809500100110239095841,-0.206402770006402586089322,0.148952633835199271805649,-0.000406459349921946256050526,0.0170115862458728901718263,-0.0371828465631675042502025,-0.932054088076254894090766,0.360003942264848664223109,-0.0781018265489168278525867,0.0165303967490611908308651,7.22883060111262576441504,-0.147267904199887111893474,-0.10067340962131279824554,0.854358961913626258066756,0.384443154433597833463665,-5.22972951490246007466567,1.00161763362191558179859,1001.30055280943383877457,1002.98557165232409715827,994.626377109311874846753,993.962044052999544874183,-232.530496853655478162182,-967.009231609198650403414,-699.698041516716671139875,-872.875952860589791271195,160.204973105523095000535
0.372499999999999997779554,0.175919068794524430243698,-0.878929012428774969478695,0.755629226633688033665237,-0.20520992263532433774742,0.145104384871756919572761,0.000196065494934300751450965,0.0171305868880206532689492,-0.0368716233918620628351448,-0.932054736503005298864366,0.360028661213159462128885,-0.0719286922311510729111106,0.0148779203411126687006671,7.21652975065474677762722,-0.147716479685964463541836,-0.102821950774274278872511,0.847924292695645842599106,0.384429690798998136003206,-5.22916487122591444602904,1.00371232018524558782246,1000.79448617136267785099,1000.48070012312598464632,993.10930070208905817708,991.796314399456605315208,-197.548152170952391770697,-1122.92114114136347780004,-557.503297791276509087766,-915.525990524473968434904,160.205435805063046927899
0.375,-0.0162298286287148839368566,-0.552091223837266831253601,0.847967726346563255290789,-0.205321859105827730918037,0.141687636879831574399091,0.00138463283050768758489224,0.0172509428306366133232252,-0.0365659527336037945555169,-0.932058936074511512615004,0.360043257108424719081796,-0.0656196035650532250027567,0.0131974071653696428674252,7.20408163107496424260034,-0.148108983955633849438627,-0.104948207744785124151399,0.841469841352935787881506,0.384415058573087387028266,-5.22859977447425272600867,1.00579111484061467507445,1000.31281204857907596306,997.370965946617275221797,991.838860620355490027578,989.384414100377171052969,-162.509264765776464400915,-1134.41156035150834213709,-381.948016639807633509918,-837.280596361983157294162,160.205897151435920022777
0.377500000000000002220446,-0.185100671228251245636898,-0.203736019428215842097529,0.941049686496889026265933,-0.20630113462400556656462,0.140133702380357744177175,0.00311188702646043738667125,0.0173670217319468501993018,-0.0362625462088355873802037,-0.932068491887611538793124,0.360043663244661249489553,-0.0592371860981566328296921,0.0114349980480342866551169,7.19147255895693504612609,-0.148438384679785123632101,-0.107062193013574780131592,0.834993183425927321117399,0.384396534390219646315501,-5.22803407230289352014552,1.00785491648880509707453,999.981939847533794818446,994.808642321368438388163,991.199560618890018304228,987.609911417646685549698,-124.303154021049408584076,-985.583184344794972275849,-187.549539619749168650742,-650.310916593365959670336,160.206203808769231500264
0.380000000000000004440892,-0.34180844965208639907317,0.175573833352169361710082,1.01738802252390136970917,-0.207528656835898106525207,0.139996591351752019960486,0.00582852066041967577236793,0.0174786556336668195965611,-0.0359588500354305548589728,-0.932082911133853109220126,0.360031425515322911490301,-0.0529141898893775719514565,0.00957216051181676574888257,7.1787005250500586228668,-0.148708972431316949203151,-0.109167437859710517167322,0.8284898667229209090479,0.384372700098334241225473,-5.22746709054081026835092,1.00990450840442824720355,999.691296278473828351707,992.443050024893295812944,990.901112922256743331673,986.132859517410338412446,-125.053780605071438003506,-957.56130192657940369827,-83.0585602781410869965839,-578.62864072892477906862,160.206431057546041074602
