t,ang acc x,ang acc y,ang acc z,ang vel x,ang vel y,ang vel z,quat x,quat y,quat z,quat w,acc x,acc y,acc z,vel x,vel y,vel z,pos x,pos y,pos z,mot 1,mot 2,mot 3,mot 4,dmot 1,dmot 2,dmot 3,dmot 4,vbat
0.0025000000000000000520417,0.611779950988734610994868,4.31614901428405417505019,0.214948240636289034100059,0.023454588623143965420148,0.304567613698616346251669,0.0133891759629862234365349,-0.00134377865469110613187709,-0.0141588625618643756953752,0.0202135814884885078868137,0.999694864410008099397942,0.447347353485059051614314,0.094853808485075255529928,11.1362158782688105418401,-0.0984151219173769603587587,-0.00572531166560502798035248,0.866152068181034628935322,6.53769320035745415964357,2.82249872687897207512719,0.182736839490787422723983,1189.16909586666179166059,1185.08484279664389760001,1218.02206531836418434978,1144.70954914474054930906,100.132800104074703995138,-554.779898378637881251052,-216.983525020077649969608,-1186.97075201507686870173,155.101481806558922471595
0.00500000000000000010408341,0.353283104936867209389106,4.4258277389518330124929,0.249025436015388568211648,0.0193867891020237902155454,0.314419555893985069872087,0.0173546687994532294885275,-0.00136388453059059630220751,-0.0137022702740446505886851,0.0202378072340657598482405,0.999700155880122065532589,0.423633369851081020840411,0.0820480385810435780546968,11.1457864951314231660717,-0.0988087932940338448117856,-0.00528524626268974881404539,0.869207197153150201707206,6.53738006254650461102074,2.82247825496242343845665,0.184915894235038874571231,1189.41942786692197842058,1183.69789305069730289688,1217.47960650581399022485,1141.74212226470285713731,-12.3995693748838693437619,-540.820833586667617964849,-253.927422707465694884377,-1193.90329763123213524523,155.109700199964947842091
0.00749999999999999972244424,0.209276562801215842979374,4.52344394920430747930595,0.101827394149893585284516,0.0142981754508993159219488,0.327493392454109077949198,0.0207617828873376125686789,-0.00141193347266784516649829,-0.0132407083992162090402278,0.0202713443906120498183565,0.999705223276180499070165,0.399749685946230948196956,0.0685772390366064105160504,11.1552507114133199195294,-0.0992208474720954330949851,-0.00489172638130771098713412,0.872274137562531248768494,6.53706884352937223070512,2.82245731182417358695602,0.187094954060997797906651,1189.10709801978737232275,1182.38073862871056007862,1216.75242820482685601746,1138.74003265658438976971,-192.246453529742211685516,-415.205195264115900499746,-288.106245868220867123455,-967.468423531272492255084,155.119077242206770961275
0.0100000000000000002081668,0.220555322823631216877516,4.55032761691192177977427,-0.141162103753063539191004,0.0121613845619428281169538,0.339074307314703560223279,0.0217525577476561753076378,-0.00149417772168967651416627,-0.0127732713960091118915452,0.0203123458118272780248414,0.99971006984885479873526,0.375652075027561982434321,0.0542737979901559280948575,11.1645229728398103219433,-0.0996560753425440176700434,-0.00455695907387270674610003,0.875362710816251166079383,6.53675979575856924697064,2.82243536372283143620621,0.189274371793587858903152,1188.45819559927326736215,1181.62186707437672339438,1216.03907527647288588923,1136.90478014704649467603,-297.952490759007503129396,-219.130767108708795376515,-307.7117633488796286656,-577.720872802092230813287,155.126484205110415359741
0.0125000000000000006938894,0.296416230581786455111626,4.49816709156121063983846,-0.437433738659509241397672,0.0132141536631841683552269,0.350607831882149167945784,0.0206145510829173136957415,-0.00160802584575796009974669,-0.0122968421455777205536508,0.020361794305731442666918,0.999714686236088834192515,0.35125481304469430288151,0.0391668029028075376229978,11.1734847463577011694724,-0.100123722126787426112138,-0.00427773514867743620548879,0.878483324879301474830129,6.53645195863014016879333,2.82241168637840100785752,0.191453634684317641756479,1187.61733556599233452289,1181.28508479316701595963,1215.21386938808245758992,1135.8514282925739280472,-335.760595319925471358147,-53.6722421535159881500476,-343.560195352938592350256,-301.776694230738996793661,155.133464983439239404106
0.0149999999999999994448885,0.356061261238186099742364,4.37329147621874358975447,-0.719706197202004571700229,0.0163842267431323941606625,0.361915840304494418333547,0.0179649919100612724676136,-0.00173973802186475805589549,-0.0118128138967081297572292,0.0204173502165122602858283,0.999719092794731034601341,0.326584256359267133262847,0.0235392204186123249476381,11.1819814124680210198903,-0.100625480995510746540234,-0.00403307987365709302851613,0.881647059043066949612921,6.53614495195570199825852,2.82238760262202470485704,0.193632034545630327126986,1186.77939262267364028958,1181.35350586360914348916,1214.3212742997081932117,1135.39589667589279997628,-303.78813333054489476126,134.384482521545550071096,-366.255280908353540780809,-73.7670146634627457160605,155.140090293233328111455
0.0175000000000000016653345,0.332845403617483381886188,4.16350737016223249042923,-0.927762475272615017019007,0.020304251040527847294026,0.372780705185912497601208,0.0142849925557779408591408,-0.0018755099614683123313702,-0.0113225048695240453761057,0.020474450256752485532985,0.999723366309521299655216,0.301676076459991504563618,0.00768635009638547750387971,11.1898329831103904297152,-0.101163849311576098388699,-0.0038033949785247810407296,0.884863301267236113112347,6.53583865579277212276565,2.82236454392217916975483,0.195812020962503358090245,1186.09839489933960976487,1181.95700720577474385209,1213.3825929835406896018,1135.48259321925661424757,-242.367940612530162525218,387.338897776498868097406,-419.566322919717947570462,101.121740135249623904201,155.146285474871547194198
0.0200000000000000004163336,0.181988064940324212326317,3.83128085984064492564016,-1.04744738290204297825881,0.0237009465306372568704774,0.384833356143885196853915,0.00948504296073408338652033,-0.00199434247152953034176726,-0.0108344125067525096084431,0.020527820025451722768528,0.999727531141872294284667,0.276744503899384430845032,-0.00792466158256023567307835,11.1968335325930770096647,-0.101728983060717662056938,-0.00355786681707603641075521,0.888140146918313111434884,6.5355340358077649298707,2.82234353889994871167346,0.197997755424602878138174,1185.56755291961098919273,1183.29020035249163811386,1212.22344268510960318963,1135.90150537656904816686,-147.441667250223048313273,574.737827511899354249181,-433.54249712729165366909,159.971484366724411074756,155.153221791263945306127
0.0224999999999999991673327,-0.0287926944767032642891191,3.50897125108834950779624,-1.03002255246212715000809,0.0246836398184137432998408,0.393699181461953706673285,0.00568136726335605538040774,-0.00208048880361821333581651,-0.010349317826829768085517,0.0205755081183464812177863,0.999731625125522826991187,0.251846249013939482708224,-0.0229244013179291800108572,11.2027693417844105283621,-0.102325364024696913167745,-0.00327487146014871985388872,0.89148053087910650305048,6.53523200124646574948883,2.82232556855828331521252,0.200192776953119738747588,1185.36118656308849494962,1184.83069634333423891803,1211.21488049790423247032,1136.28245064109023587662,-51.8912695352810189319825,670.524781366748243272013,-423.793039316342344591249,116.368811200436510944201,155.158587571723245446265
0.0250000000000000013877788,-0.282279264453016154323706,3.17032273195509306518147,-0.90504304954856173992539,0.0237213157439713356877675,0.401175984774884253347693,0.00273734825712047434229102,-0.00213351789781862991035588,-0.00986296569033178610608203,0.0206162399105400684362621,0.999735702800589542960097,0.226935584780596111276196,-0.0372645519813302739109417,11.2074227422256722519478,-0.102967341704192943963037,-0.00296057355851937114080141,0.894882461878298118840291,6.53493367826828031041941,2.82231186035506054210487,0.202399423324249622124782,1185.30809657193458406255,1186.64282425932537989866,1210.10447748852789118246,1136.48334943257123086369,-24.9242590513404103091943,807.560381397024571015208,-533.396167957744069099135,24.6055696206894900512907,155.163524683585393404428
0.0275000000000000001387779,-0.580752969310395217306109,2.77720362468887005391593,-0.667620460029378692823343,0.020936582278144127977626,0.408944148227723569544168,0.000436454983758268496955857,-0.00215564932488707897834113,-0.00937404022533113931436866,0.0206496771144546523157892,0.999739774478010434499708,0.202048675376353209509617,-0.0509367331862128416841706,11.210571833699034982601,-0.103664069279496867670431,-0.00262657180241466624986968,0.898341052378429982816499,6.53463944926628848008932,2.8223032598377986168714,0.204618631960028024563414,1185.23656526783179288032,1188.86849825031936234154,1208.54789965811551155639,1136.40547848919368334464,-58.9317839397608906892856,785.754726805771838371584,-626.271271201222020863497,-76.5153733058014466905661,155.16895671581613669332
0.029999999999999998889777,-0.797706948432057916242854,2.47680974691827016087586,-0.428477688492105546202993,0.0179271196597198638478243,0.414596107202387764711915,-0.000582744206021971349919453,-0.00214354672783179014267096,-0.00888329248349030431430862,0.0206717011782208207049116,0.999743927701779444561225,0.177286466306200429787765,-0.0637867128337489402989391,11.2119984097709721737601,-0.104420079487535150120081,-0.00227569246130471898245662,0.901848938787853104948056,6.53434933802448547623953,2.82230092214810435180539,0.206851702007299048657885,1185.01343765223577975121,1190.57159789335423738521,1206.97312113252178278344,1136.1007725660422238434,-159.126981293729812705351,611.162390843355638025969,-707.778677847727408334322,-143.761735399493744580468,155.173076060251560193137
0.032500000000000001110223,-0.972036008191629385954968,2.21356971788856160543446,-0.181593156964438257050531,0.0150878773089776554994224,0.419425723719227538932586,-0.000911980953906484244873842,-0.00209963950025623437289912,-0.0083948880093718241529599,0.0206822303462995474299113,0.999748125359584016713654,0.152838645129996786309334,-0.0757714295669275478273264,11.2114961213856982880088,-0.105232567014330855026394,-0.00191986999468906705326732,0.905397135196472802043388,6.53406173734454753798673,2.8223050041856279079866,0.20909850567514459696028,1184.44093036136314367468,1191.92431020453614110011,1205.00900626887687394628,1135.68666981219621447963,-365.673014081857786550245,486.184846269497484172462,-968.208497594195250712801,-160.261860381205991643583,155.176776984507313272843
0.0350000000000000033306691,-1.14281279829591930763399,1.9367498083030874056476,0.0901581030273062022928343,0.0122162300049853539407607,0.424732568452519110291377,-0.000715642843135990661292134,-0.00203274418265567786631709,-0.00790708642866346303468283,0.0206836151369865599292108,0.999752318127318240215118,0.1287708266351336727773,-0.0869697396466913158485923,11.2088796351150392638374,-0.106107690456990158556216,-0.00158067784003123852978878,0.908973819710438890595583,6.53377471950862886984623,2.82231424654556217745949,0.211357699317452546461382,1183.18507258182648911315,1193.00252212470172707981,1202.1320786445508019824,1135.29946326413619317464,-570.017818190854427484737,297.331425348920845408429,-1140.34846410209024725191,-88.6577081275391236658834,155.180739549874431304488
0.0374999999999999986122212,-1.26504855709746188985321,1.72713722949072834289552,0.276306284654327105609894,0.00991548293811832064104106,0.429114768681127689564647,-0.000114278776441817733755535,-0.00194467176146917832338379,-0.00742290299998050583790699,0.0206766838887705826921515,0.999756460275326275244367,0.1052658169880156813214,-0.0972894687782972500400547,11.2039861790416530595849,-0.107040537182717762632045,-0.00126569156285192608614454,0.912567290313187284844787,6.53348623997540389751748,2.82232629954402680638736,0.213628169161497766248559,1181.59084127040887324256,1193.4109673312807444745,1199.30726394836642612063,1135.24338127155851907446,-754.99415419963077056309,68.8084903818890154525434,-1200.475525328011599413,67.2088747610360144335573,155.183646426763971248874
0.0400000000000000008326673,-1.37470485341140347124167,1.52144609547125564397163,0.400684304108266164945462,0.00754755831183180452004233,0.433343424071003513464717,0.000966465535191827606470438,-0.00184397044864140018625986,-0.00694652519707458608599904,0.0206635769997035000089536,0.999760454965170963781418,0.0825329331556254319757215,-0.106778160896860735418201,11.1966820549967298603633,-0.108022027459785632808043,-0.000992104812278479667245201,0.91616556500784696037698,6.53319570204617505737588,2.82233816707056783812391,0.215909508970262786764494,1179.41010181082833696564,1193.34656457661117201496,1196.12970101791074739594,1135.6355076379413731047,-961.253818548356321116444,-88.2544552211583379630611,-1304.74286328217090158432,248.045317225023381979554,155.186146888281342626215
0.0425000000000000030531133,-1.47186781653895981669677,1.30778856841199919713858,0.461631599630370204057073,0.00505895733350151307478049,0.436989908049053132899076,0.00247203209128714395184656,-0.00174262432077442364249109,-0.00647993470520732191969548,0.0206467870262402181102956,0.999764210581095991159373,0.0607295242750367572637238,-0.115551610068939838993352,11.1868665004902201332015,-0.109045154454375223251894,-0.000780840014217584017439111,0.919756024430239293998568,6.53290312856184396395065,2.82234759076799912591582,0.218203028762873757484542,1176.7845721776670870895,1192.96969505517495235836,1192.78354963195556592837,1136.48360785768363712123,-1135.79577313821619100054,-196.169382718562786749317,-1341.68854865515709207102,457.159606547884550309391,155.188312930397586342224
0.0449999999999999983346655,-1.5387588949192347875794,1.07564670296501030399838,0.436988209742712296890232,0.00195995212338992202613652,0.43970488210456271094273,0.00439567316774223341285799,-0.00165065496988999653796282,-0.00602175990923857571562872,0.0206265123034248196165485,0.999767710735188219750569,0.0399340977848406664119096,-0.123677187333083762887931,11.1744740555390418279558,-0.1101072447953498206763,-0.000647481365488454703449595,0.923325537523733919087476,6.5326078996609959759212,2.82235338978133265541715,0.220508835342069081653094,1173.73112294513725828438,1192.36571766301835850754,1189.42125827463496534619,1137.92130567068079471937,-1404.98470125876406200405,-268.915608383622497967735,-1435.78712777889518292795,762.682748293082454438263,155.190078517432539229048
0.0475000000000000005551115,-1.55132535050932363063225,0.765373088198867956855054,0.310013253896319285196626,-0.00265267892496422489842511,0.442037228083393518573985,0.00668751498230826108004621,-0.0015800644074380038560379,-0.00556454314321313658203705,0.0206016802917977880083011,0.999770999867590215437474,0.0200805813137343441843186,-0.131265848694622544456934,11.1594754216117220124715,-0.111215605746542184339987,-0.000609614679416527020794359,0.926860223974479535691273,6.53230886238138275246001,2.82235523580334257687241,0.222825711955069838410282,1169.75964867137327019009,1191.62511701325684043695,1185.60461399306109342433,1140.29702159914904768812,-1477.80496393775001706672,-234.02377592442442733045,-1335.86217419601666733797,963.691051633940332976636,155.191737450431276101881
0.0500000000000000027755576,-1.4790974260073348478528,0.470382254071925132166143,0.137200229443036753051999,-0.00704499232973439856037023,0.443427710108821593326667,0.00801954949308231364313304,-0.00154169697538554550421408,-0.00510542682825215754505166,0.0205749003396489514583489,0.999774018742577541551952,0.00119582406311547623234404,-0.138411026316269836211603,11.1418770421320427743694,-0.112368152645318589155643,-0.000680853340148588042496369,0.930348147416915627339051,6.53200547413051690881503,2.82235328244355354598838,0.225150729710734798239002,1166.34209812544850137783,1191.19559878339623537613,1182.74194740365487632516,1142.73976092885050093173,-1356.77459133125989865221,-88.9951418337205240050025,-1061.51909221557662021951,1043.49188851133521893644,155.192738759653110491854
0.0524999999999999980571097,-1.29748516871426256003019,0.12256977972166706314372,-0.0734754778369604011345473,-0.0116680694741231067573795,0.44453649634537417689728,0.00817031584553851858432338,-0.00154379632009056955849191,-0.00464421213027338235235231,0.0205488317465436810815849,0.999776694217071160153409,-0.0166455056798589517974563,-0.145159772765678540817902,11.1217222204251733330693,-0.113557350362257419851275,-0.000869375716400964081154168,0.933779002557795001493446,6.5316979936873043044443,2.82234814280177381817794,0.227482779014567010333892,1162.97577571471697410743,1191.18014130408823803009,1180.29701853198321259697,1145.51448104170572150906,-1439.34716751459814076952,119.433365915529122958105,-980.287215902808839018689,1254.27042698902437223296,155.193346614688778117852
0.0550000000000000002775558,-0.947876050674699266451739,-0.369742362775384636464082,-0.324369469818572730979156,-0.0167455660061321745524232,0.445465650237848287407161,0.0069276325858247155345393,-0.00159264467157230649348165,-0.00417614644092893436133629,0.0205277824951363568883878,0.999778944375208311612369,-0.0334831687796102103749085,-0.151527529767533253313161,11.0990905998044766533894,-0.114784203376611271263386,-0.00117881681674917118164692,0.937142302285645656390045,6.5313869858540787305401,2.82233999796852019770199,0.229821769585867974328153,1159.14536228787551408459,1191.7927656129738807067,1177.84051132414083440381,1149.01111306379561938229,-1354.09386382575462448585,330.145085213052595918271,-834.324036133874983534042,1275.70237934355532161135,155.193623903197902791362
0.0575000000000000024980018,-0.563236008741312854652961,-0.842042282715550705063379,-0.501906316213893366473542,-0.0197791939235577064748473,0.44537197558645952311096,0.00510673589144526596239615,-0.00168800273562618764755516,-0.00369395543626484853388936,0.0205171927528799390161307,0.999780686783456884469956,-0.0494235729648661026303103,-0.157401585458309456466708,11.0740971354504225132587,-0.116054901635414139948743,-0.00160017575735452014830396,0.940427551707883946363609,6.53107219314262188447628,2.82233011623005536350206,0.232167572211401662674035,1156.20530639558819530066,1192.83086673015350243077,1176.12539835131383370026,1151.89299293842350380146,-1112.3044788455449634057,496.0328277479677581141,-642.320413475136206216121,1105.65078728959679210675,155.193480546064080272117
0.059999999999999997779554,-0.124079022104730651854254,-1.35864113267745012514354,-0.622933846861323137211741,-0.0209162129516513965732383,0.443508566368999601614576,0.0030700578756137565823725,-0.00182338013084259748658456,-0.00319528348493680787456572,0.0205233005170624253910017,0.999781811246184815011873,-0.0644742906500433143879292,-0.162554780659977443635356,11.0468911594423424560318,-0.117367312863166262104642,-0.00211271257636360797887987,0.943625708915246774743935,6.53075413273193827734531,2.82231883118552673295198,0.234520387837085453330843,1153.5838398936477915413,1194.27292975171371836041,1174.62890925676515507803,1154.53936700024360106909,-1074.57047695052142444183,665.1491100712067918721,-641.870203182907403061108,1067.89261933404350202181,155.192951781190146220979
0.0625,0.400698311509265381324951,-1.98462182607605841511145,-0.691342790678781793367591,-0.020026028053478452106706,0.438723924323506486722124,0.000790409885945832376384634,-0.00197785368719831594966352,-0.00268181637352104228211314,0.0205425768439964837042133,0.999782403921637641275311,-0.0785584689401115920937002,-0.166471065456430811213551,11.0176565072246841481274,-0.118712530984634329067617,-0.00267090646819871223999199,0.946728947166191492357257,6.53043445419113588457094,2.82230763780307203347775,0.236882519035850003241706,1150.83245401083559045219,1196.15661228050953468482,1172.91604733539929839026,1157.23245603509371903783,-944.660503361136875355442,661.586547649130238824,-638.1608504159879657891,882.944830787936666638416,155.19187600910279911659
0.065000000000000002220446,0.788984467500056241284767,-2.47281758330493062203459,-0.682943746670933049536245,-0.0176196673548219967520012,0.432556819591243868483588,-0.000967816701719392802859276,-0.0021368648476636754006408,-0.00215497234737875836135812,0.0205721073571874871199761,0.99978252885945984029803,-0.0916198920963807728057304,-0.16880545139025654455267,10.9866051505442250402211,-0.120083932136344967434027,-0.00324086884343422832258086,0.949729564053627850483963,6.53011472485805377630186,2.82229705993037471856155,0.239257270807230942866184,1148.86053737684210318548,1197.5808624899593723967,1171.43810500468521240691,1158.95409115418328838132,-731.446569273702380087343,479.11523111733873747653,-625.452414630171347198484,562.149203537637276895111,155.190615336485990383153
0.0675000000000000044408921,1.08235429575560981874105,-2.88829125938896691394575,-0.6086038461072165173249,-0.0137987394766765497644556,0.424364205113630987842299,-0.00269889616433578727328069,-0.00229418849556365560607429,-0.00161576557090861413004679,0.0206080809348521930279841,0.999782266233607108674164,-0.103625236712654139603629,-0.169427072111287602140806,10.9539728001540641599831,-0.121477503736284159208125,-0.00380453756887604499156708,0.952620310997861818869126,6.52979597249466436892362,2.8222868529112679070181,0.241644497897768650851447,1147.17522116446707514115,1198.55218843609623036173,1169.78878526224843881209,1160.04320205278190769604,-696.378558418472835001012,274.641673053201657239697,-782.097693097738783762907,325.86974050495854271503,155.188981273154126938607
0.0700000000000000066613381,1.30093092215151062696066,-3.28699198956774329971608,-0.448763340776606844961805,-0.00834762381194667502093409,0.41330906192406369203951,-0.00471938305663771075215696,-0.00244196215369191400867965,-0.00106960664969108745943338,0.0206420443247934994046577,0.999781803510114808197784,-0.114452898059174218436951,-0.168202674466638335548652,10.9200174446255307003639,-0.12288206861078103393492,-0.0043418501044543717642954,0.955396304171675758709625,6.52947885026433549882086,2.82227725342393265250962,0.244041245478939877733282,1145.37864458474973616831,1198.95407085522538181976,1167.52761653919651507749,1160.58343985670808251598,-642.453317739956560217252,5.7759847274610471856704,-878.333710541484720124572,73.7506014334941539800639,155.18659466184638517916
0.0724999999999999950039964,1.3774237028647002833992,-3.55004712538607059002516,-0.265038400020108033672273,-0.00387169797078511538843126,0.404082643732373514300349,-0.00603067681532644828817924,-0.00256998401668493683600025,-0.000531151787606569478900065,0.0206670188294802194273192,0.999781304844122309383181,-0.123788644846908130192631,-0.164982870527163594243092,10.8850164994429299269996,-0.124269531955511700060946,-0.00482791207244393817676897,0.95805679502511409406651,6.52916313709327500447444,2.82226781828833894749664,0.246443780951591973060744,1143.96295457576729859284,1198.58106835973353554436,1165.39711670954102373798,1160.4119550599493777554,-578.483681931085129690473,-288.001022339859105159121,-893.666277255762793174654,-182.41192517734850753186,155.184255752454561161358
0.0749999999999999972244424,1.37572688023443157057102,-3.78289541515702198992699,-0.045806428408086720394099,-0.000176321997640731861073382,0.395415214648480561887567,-0.0063936722937310130204791,-0.00266494900257359824263803,-1.61217472488316699154136e-05,0.020684808473573845777338,0.999780777283769461760699,-0.131306507654888937608462,-0.159580246978705431182277,10.8492606016943700097954,-0.125610011821012473864911,-0.00522919971374943316766437,0.960603337681792512903201,6.52885009918636161074801,2.82225585724681415911164,0.248850739892753941573389,1142.48622617509431620419,1197.51406574352608913614,1163.05928515291770963813,1159.67138023082134168362,-621.528224593657228069787,-520.120485061942872562213,-955.705426748499235145573,-369.645993689482224908716,155.181559563399048329302
0.0774999999999999994448885,1.3439819034735129843483,-4.02913922642988797662156,0.187198048639868969145184,0.00248807186825592430851062,0.387207290758489641735451,-0.00586661745853720231758111,-0.0027100844765414388790048,0.000462884126789798924089814,0.0206984933211011579157201,0.999780229119247909608248,-0.136758543580838803910282,-0.151761278346461470079021,10.8130468842967921716536,-0.126879427079119838639443,-0.00550457797588020051465785,0.963038491227540371930615,6.52854053712930326724972,2.82223921961861412555095,0.251263128105096822384468,1140.85531345279900961032,1195.98046593442381890782,1160.61858957579852358322,1158.56372509150196492556,-707.186186678062995270011,-687.258124722756633673271,-982.700390220224107906688,-494.830663568381623917958,155.178571984256677751546
0.0800000000000000016653345,1.31663607134713389612557,-4.32932797589374640523374,0.420683989591779328165444,0.00418023626768195509517678,0.379152197062120499548854,-0.00458358739247665195049031,-0.00270174057545184091028156,0.000896264919451791744822722,0.0207086252223165658004067,0.999779685353573421835449,-0.139978631476040393799565,-0.141604335137284653711731,10.776670612149818140324,-0.128059431892046743373115,-0.00563868708358446907302763,0.965365235563271029128884,6.52823491758568241749572,2.8222183443566595251184,0.253681417047658286367806,1138.95029524170399781724,1194.0777751199123031256,1158.14578320181658455112,1157.1972269129794312903,-906.717170156388533541758,-866.106144498234357342881,-1078.45433186625905364053,-605.343786461480135585589,155.175239373902968509356
0.0825000000000000038857806,1.32014631851257835393199,-4.77065378538933515528697,0.689739478066960232105487,0.00607513216730520746317046,0.368447592913629717870094,-0.0028161949921166936489092,-0.00265203811822143807261365,0.00128378815424399659803067,0.0207150928344341928033501,0.999779144484432835682242,-0.141020591709303394489794,-0.129545872411994889006337,10.7404190690048935152845,-0.129149296324662432589037,-0.00564726738657496743489794,0.9675850519193576193544,6.52793225945167510104739,2.82219539412654096821598,0.25610572552432347981366,1136.32172760201706296357,1191.64993521193264314206,1155.22631791646722376754,1155.53700615919456140546,-1007.44524350602569029434,-874.944020376823687001888,-1058.78453203217668487923,-572.985333498581439926056,155.170850125375011430151
0.0850000000000000061062266,1.35476837125317306487204,-5.19279371962136426787993,0.900937609473911216184661,0.00833817533445877119568923,0.357798429566983211547182,-0.0012762919952587191158716,-0.00257217379495457620572352,0.00163058399181369964754673,0.0207205581189842669154189,0.999778565834720356342302,-0.140063136899119727862839,-0.11601503331442128419404,10.7045714103189553156881,-0.13015709621282670060971,-0.00554484301423669584396592,0.969699088630121663889838,6.52763075053812436010503,2.8221721600754992032023,0.258534661781423535931168,1133.91306902417386481829,1189.70305501802818071155,1152.85186054165569657926,1154.33230024548652181693,-970.504822030124159937259,-726.428704988392610175651,-943.361724781015368535009,-410.280176917376252276881,155.166874143499370575228
0.0875000000000000083266727,1.40328012142026770092684,-5.63001172568675833929319,1.09264107006126875987206,0.0118185654926614737425528,0.345139038694661004491593,0.000577039280768312356356686,-0.00248092273724908338530803,0.00194940373982282555767598,0.0207309905154802569249295,0.9997778313316252329912,-0.137461328150465800224111,-0.101610615979235846539908,10.6693940850790589536246,-0.131104115309455121485271,-0.00536112484050745539965188,0.971707324331469890488222,6.52732893383198131687095,2.82214912811321116947738,0.26096738793579771220621,1131.46920349186643761641,1188.01779168699067668058,1150.50950929256214294583,1153.48560527460767843877,-1017.5376842084934878585,-660.344759121609399699082,-1035.6111760018413860962,-274.905708162942175931676,155.162576455186780322038
0.0899999999999999966693309,1.4479419020672152917939,-6.10908370800363265118449,1.28414781635599895004418,0.0169301532641217243602139,0.328087926724167311398617,0.00365112249693176887238577,-0.00239936840214019769107479,0.00225182812524441855819846,0.0207476253213644025452655,0.999776917090603456372833,-0.133556322748845351933156,-0.0869880863006435578466125,10.635141305544269840766,-0.132007409596243463489884,-0.00513329861433360103151191,0.973610761381829559191203,6.52702466483334564628649,2.8221268400045582680491,0.26340375222291589896173,1128.82538060313140704238,1186.40133122242013996583,1147.67380466164649988059,1152.95777170467181349522,-868.532079630814905613079,-526.762334177193338291545,-1050.42441218143017067632,-120.749002354478079723776,155.157058020089380079298
0.092499999999999998889777,1.45977702341904058691568,-6.42408212776603182447843,1.39416445055998861057844,0.0212525868474635996896449,0.312551556251341289272005,0.00718285476923503831553353,-0.00234768633364004818478432,0.00254647805588124713505049,0.0207768973834820507018417,0.999775612998928364660856,-0.128638225559476487847022,-0.0727850899297006886934369,10.6020528164356004907631,-0.132876295674347971731422,-0.00489720961601416114594709,0.975411789919024774242473,6.52671560942198070165432,2.82210372070426629420581,0.265843859251870928694927,1127.12654309371237104642,1185.38398001610471510503,1145.25738723165500232426,1152.88186026283528917702,-520.843462274842295300914,-358.008976043037932868174,-977.419264605031457904261,13.6319955634917153730612,155.152166630745000475144
0.095000000000000001110223,1.44297713272788508120925,-6.60405445225147058607718,1.43252878643496606159147,0.0248858250755482901528381,0.295834792328575457709405,0.0115562129002962175189362,-0.00233971526006488284715745,0.00284494800105624442293495,0.0208302735929160459660281,0.99977361375844875368557,-0.12307062249309574930578,-0.0595006821387596765426942,10.570349000457500920902,-0.133724083840836727166135,-0.00467649922874534013789161,0.977112548391124158264631,6.52639954533034405415037,2.82207826547270768102749,0.26828885434372945484327,1126.22116329175719329214,1184.61128634220494859619,1142.78670833862133804359,1153.02593168248927213426,-179.464794159139103157941,-318.258224550390593776683,-1089.44591692684207373532,59.1482629188703370459734,155.146982159083393071342
0.0975000000000000033306691,1.39781262520329918608297,-6.62823157152054420748755,1.38639870233282924694151,0.028193787512795366601015,0.274983791777306807446735,0.016834193070572236322624,-0.00237675278911073746199167,0.00315743163582071599548851,0.0209108751403163893589632,0.999770849449054921365132,-0.11719595842299351806659,-0.047366847473139461754954,10.5402277004383844172253,-0.134560021585499012264364,-0.00447422176492432745187333,0.978716119826636532508246,6.52607534991133331203628,2.82205090729026775164812,0.270741191457383401086645,1126.22921912291667467798,1183.79268889335276071506,1139.81015764702078740811,1153.17760157742964111094,186.734729099862136081356,-306.690115930223043960723,-1082.04567550510455475887,8.36749697009508253131571,155.140435649076380286715
0.100000000000000005551115,1.34200955607876948327828,-6.48215631440741812951956,1.27859328151737483558747,0.0303770999678194854320967,0.25782706335739336012125,0.0206726840893617959393769,-0.00245373138310640837023158,0.00348738584612678492041793,0.021010572157703393675332,0.999767548943486517032397,-0.111227138901481475974364,-0.0364797708698458011955523,10.511861442835011004604,-0.135380130671615472870428,-0.00428608792419424549507978,0.980228114458817967324933,6.52574145690775253569882,2.82202366002328153271606,0.273200741028272298116519,1127.1548369372565048252,1183.0778357625538319553,1137.37647996109581072233,1153.06776916733974758245,532.900294926639162440551,-312.383297855739954229648,-949.111586577372804640618,-137.641592863565051629848,155.134720119370541624448
0.102500000000000007771561,1.2560921053864495533503,-6.18201531957565020292122,1.12166731663245911043703,0.0326009526635049756704277,0.241976683095329131445439,0.0236530786418005581350776,-0.00255212853125696449707593,0.00381978093369314021521266,0.0211113339144264472446721,0.999764221797843743999579,-0.104998551129372036383458,-0.0266526042609013247286498,10.4853956127259859698597,-0.13614504184189871183186,-0.0040867973611613261919473,0.981660423861205222451076,6.52540008538082627609356,2.82199976984541978097809,0.275665733804910662030352,1128.89372059754987276392,1182.23077240407405952283,1135.06459971413391940587,1152.48939361311181528436,791.583012156571953710227,-365.73182467568653919443,-894.591246186884632152214,-330.043682462611002392805,155.128748598087213395047
0.104999999999999996114219,1.12438069981032495725515,-5.7829154951748620305807,0.946396590743627363906398,0.03530987947652853425895,0.227498243863555021926359,0.0259194603864974504325858,-0.00264973861183530074586701,0.00413741418016028237453208,0.02120375773538422589648,0.999761135037881443210495,-0.0983097191019433325198662,-0.0176092836512229539147611,10.4609425280402490443521,-0.136813486791063171343907,-0.00384332341141074102994213,0.983027045409787136875934,6.52505522126542469862898,2.82198144476130474700426,0.278132135040850381191291,1131.11275199803935720411,1181.24917663917540266993,1132.90352373016139608808,1151.41755075502669569687,944.814148797287998604588,-420.77985973710462985764,-819.152118464855220736354,-551.961256602272555937816,155.12257603991733390103
0.107499999999999998334665,0.904872282896819313258163,-5.30677684943109628790125,0.775478109957936867502326,0.0388195342342604887697632,0.214653632604672156558578,0.0274841283761270704921742,-0.00272461989907673814495515,0.00442877486331123750712413,0.0212826384515869757030337,0.999758451925464086684769,-0.0910856753295181675866843,-0.00906152205309997127447019,10.4385792130597696569794,-0.137358688301069314929848,-0.00352288342989775593930291,0.984341745986521021727356,6.52471006191313041000512,2.821970692868678298737,0.280596842408297408866247,1133.617791341536303662,1180.12687310538854035258,1130.96883912180965126026,1149.72958733010045762057,1091.38474622000012459466,-511.688346593836740794359,-792.37958923326846161217,-860.143118502900620114815,155.116175657970586598822
0.110000000000000000555112,0.508892331408588693975048,-4.69901781995182510343056,0.602560676905801950731245,0.0433506689141218495842089,0.200994304962793746138772,0.0287643952953948942030671,-0.0027600846564292294375853,0.00468920101427893441792261,0.0213457889563054975523571,0.999756256573754886751715,-0.0833952785433378640522761,-0.000809481731375738533529329,10.4183481911052044921462,-0.137771188657881626937751,-0.00310218955581731924142641,0.985617052590523456956362,6.52436738101100655029541,2.82196682002889387419486,0.283060286041290853908947,1136.56967572913936237455,1178.69073490620621669223,1128.94162578399505036941,1147.11683516251218861726,1023.32411422612403839594,-526.605598679770537273725,-692.422374633496815476974,-1017.80501610983174032299,155.108251971711951000543
0.112500000000000002775558,0.0682322368409185031623565,-4.19467511750116717195169,0.497790372026962579798948,0.0461515780066815775595224,0.19088226349272774395871,0.0294785753468448409597702,-0.00274694401879748860070829,0.00491707390790942049096923,0.0213938717971519191951568,0.999754556997143994934163,-0.0753650226427615976820817,0.00721268701813972124003982,10.4002599748888044928208,-0.138051322819131100372303,-0.00257123650317506082657593,0.986864499133442207856604,6.52402994558702697958097,2.82196864347076914469881,0.285523854881478744704992,1138.73441191266692840145,1177.49384511198968539247,1127.50672724864216434071,1144.64056224955129437149,758.98202966541180103377,-459.249163030744568914088,-520.891041707045133080101,-993.752847883842150622513,155.101461729919577692272
0.115000000000000004996004,-0.45306933505607061007936,-3.72231597380647594164316,0.438942225132084307137603,0.0463111998342951511342669,0.181991669726837473897163,0.0299978793739190431610897,-0.00269420570846698589559387,0.00511816470005847616586703,0.0214288929385868937016468,0.999753248529664073629419,-0.0672677691679179623474027,0.014718553060538985821637,10.3842968682310470285302,-0.13821769447057127844225,-0.00195400128216416477805462,0.988092723267431805034278,6.52369955242435306530524,2.82197371775889216394262,0.287989028767298982369738,1140.36458587746642479033,1176.39448909105249185814,1126.33717057545982243028,1142.14807092309297331667,565.251172608895558369113,-441.737766886307838376524,-453.074425618023781225929,-1034.70359924722197320079,155.094495932246388747444
0.11750000000000000721645,-1.10397611727662980918296,-3.21633885658998153189714,0.414801260539153004991419,0.0429649317590314605563862,0.172736059845896572362278,0.0306679983814641260453371,-0.00261797710847403233835884,0.00529878498510300000035045,0.021452696294534608772997,0.999752214659665905394093,-0.059369978672498331662144,0.021298782857538126056518,10.3704156637178837030433,-0.138292354868750883012396,-0.00128693409650803116187068,0.989309182735629510929698,6.52337622309425135824767,2.82197996950318907849464,0.29045642182933911756848,1141.56066777571140846703,1175.28515627755814421107,1125.24135512055204344506,1139.46704425331517995801,310.278090424936294766667,-363.995623769552139492589,-348.904230480093929145369,-897.164702096371797779284,155.085955239670539640429
0.119999999999999995559108,-1.62014346518007279485118,-2.85579714299902853724689,0.421318446804820279094628,0.0381584434077366432824796,0.16618041286102294695759,0.031459597578896152103578,-0.00253248755089376933677392,0.00546101030488251818623135,0.0214671973489440545690421,0.999751368942238705095349,-0.0518249712019522232320234,0.0266044667458923550507066,10.3585493754589919035425,-0.138289959234171366819766,-0.000601271288068878006702334,0.99052142710246537937735,6.5230596097728774651614,2.82198622434165313777044,0.292927352397831575192555,1141.91597632959110342199,1174.57451097220473457128,1124.59264942305935619515,1137.66224741261112285429,29.086763064833629499617,-242.782325586268143524649,-199.831462524798922686387,-614.747527527289321369608,155.078701654080873595376
0.122499999999999997779554,-2.07423218960822053347215,-2.56081931645799398822305,0.435688102564723456211482,0.0325958913010869835713557,0.160521368689160170983854,0.032634852276042382313026,-0.00245074881408632221438393,0.00560664788132166688056079,0.0214771067870084368667261,0.999750571632587403669845,-0.0447525911779664553602487,0.0303331092150958964159813,10.3486096879297679862475,-0.13822463821018046714606,7.64286413416810639365195e-05,0.991735972829186462895734,6.52274831203845018023912,2.82199120569014594295254,0.29540228232273624264792,1141.70610159103557634808,1174.07124464962680576718,1124.24219780792805067904,1136.3933066156787390355,-179.177067817817999184626,-194.314342820507420128706,-77.1900654428463184331122,-437.771919250644316434773,155.071324150938920638509
0.125,-2.53551764014471903152526,-2.27003264703168161631197,0.438662533990142655682121,0.0257143577654934743503823,0.154185314882669621816547,0.0343900848368375242070094,-0.00238645400624815009343882,0.00574074929756414331638581,0.0214882464930449545992275,0.999749639643726872861862,-0.0383118418717302983145245,0.0321891439306672827447287,10.3404904405567208414141,-0.138116247044521966991226,0.000719883598898650011593814,0.992957411014837920681941,6.52244081244613216341577,2.82199373527656938165364,0.2978810949979539546284,1141.02009099050201257342,1173.60293925810219661798,1124.20669909584512424772,1135.47338781635789928259,-285.716048566291419774643,-172.472527437275715556098,56.2649133027661676464959,-247.784689044101241961471,155.062347817592694809719
0.127500000000000002220446,-2.85106959427868256184979,-2.06274089950853811714637,0.416314824199131683357678,0.0197814825071172574466605,0.148914223937795769936443,0.0358245125992102883549784,-0.00235715367660718462874958,0.00587320970297264786930125,0.0215021576592904530011996,0.999748442657192981641856,-0.032736615953244306564951,0.0318183052116703807277176,10.3340719790898525332068,-0.137993200842406960049402,0.00129489297921552481626661,0.994188056767326022722386,6.52213510304295596142765,2.8219939575903469908269,0.300361520436917384113684,1140.27752134820411811233,1173.20888201244042647886,1124.52352237444188176596,1135.15438317045823168883,-288.878192381252745235543,-185.461452446724990750226,199.90860332750327188478,-49.3153451437592167394541,155.054779010693266627641
0.130000000000000004440892,-3.09432938443210936441119,-1.86783532742275681926003,0.359867535707218300089494,0.0131123677769830679351593,0.143753451823388750385746,0.0370622673514492614876836,-0.00237943996373580265307757,0.00601764324717793484126327,0.0215241007477355965338273,0.999746750081676127663854,-0.028309070299839866891034,0.0289058925460314586342037,10.3292238459359992930331,-0.137889795227086581208553,0.00177037077565767074840974,0.995428229708311351764394,6.52182852284169811696302,2.82199146333547989939916,0.302843102944945652410524,1139.57570002859574742615,1172.67563199586857081158,1125.20624211248264145979,1135.22681109063910298573,-248.194239890108065083041,-247.325718204183203852153,329.183422453297396259586,84.9902972427116054632279,155.047134989360699819372
0.132500000000000006661338,-3.27143306818273638114647,-1.66884962363509536942274,0.273535312661481844198619,0.00544162424870148556110827,0.138892366987518750542918,0.038204241028077547126518,-0.00245758221074998889701946,0.00618338043058242869259855,0.0215612064727939110875266,0.999744343050567918496085,-0.0251918212657473924998008,0.0234078444881445218994642,10.32580613218343934534,-0.1378299094881708375393,0.002139574641561003531115,0.996678220826920258090809,6.52151960962875598681876,2.82198583044600992408846,0.305327498528839058611339,1139.03655014875357665005,1171.97225342141950932273,1126.16943948670837016834,1135.57933465667179007141,-157.808540892938111710464,-317.019987373441551881115,440.640044570636348453263,200.713234003751324507903,155.039440763749809093497
0.135000000000000008881784,-3.35884179829064333233646,-1.45633935854228102613206,0.154553761600981359736195,-0.0032394291543585262277416,0.134365701843350116018172,0.039075135809585256896348,-0.00258081031205000584888287,0.00636969383569553453117162,0.0216160510253071598552044,0.999741191229033931975323,-0.0233120053387070036432505,0.0156053656196332990457876,10.3236730650037511480832,-0.13781575255171948923838,0.00242311416344227455524352,0.997939653550750871424668,6.52120893059453088369537,2.82197834422968707457358,0.307817303105065220858449,1138.78665732413105615706,1171.09053205900136163109,1127.40944233533582519158,1136.23037726065786046092,-36.4394984148475131746636,-399.273096532624208521156,588.870867185368638274667,346.323728375545840663108,155.03170002242893588118
0.13750000000000001110223,-3.35648546891976051753659,-1.18921450206610868072232,-0.0142952028832176517014751,-0.0139070719407521602162259,0.129496702761385362734359,0.0397535808417792263513846,-0.00273271602871553911245917,0.00657626661583124612342477,0.0216824921393163685956473,0.999737471118353426824399,-0.0225851240371957445729478,0.00591759723996357345221497,10.3226792399528690680199,-0.137849586334655077601852,0.0026491688014836697190324,0.999212649258883645053686,6.52089677918005161671999,2.82197079911556913955906,0.310312223923725261087725,1138.85435265667933890654,1169.97588793875638657482,1129.11379382263521620189,1137.31095329854952069581,79.1572833728877611747521,-385.967207043722396520025,645.92055725633997553814,437.544974016827438845212,155.022374282445241533424
0.140000000000000013322676,-3.27415024958691835976765,-0.971502326631284218727558,-0.162806171424954571058663,-0.0222929110301537947158579,0.126464126525385217592046,0.0398222497008504441873278,-0.00289482594611494524483586,0.00679497832281489647088257,0.0217530527171299406519189,0.999733459896149367907014,-0.0227474808028816713467712,-0.00517437474222989801653227,10.3226851589922308249925,-0.137917792835277636109836,0.00284765605971245552505144,1.00049837639345251538714,6.52058541832248206304712,2.8219642620480485106782,0.312812653938268847575443,1139.1824437409954953182,1169.16069602378274794319,1130.63904512161752791144,1138.41810213074199964467,167.933851047564388636602,-263.988277928137677008635,618.22426448034036639001,470.807051341170847535977,155.014583618141870147156
0.142500000000000015543122,-3.13049294324325932947772,-0.788074082243604978614826,-0.297360769734574981182362,-0.029767934344591621964593,0.124967389740357495697687,0.0390638672583019791462178,-0.00305524885767769751807044,0.00701728744841823535993708,0.0218259488490919022207759,0.999729322177561496864939,-0.0235137437516607372689492,-0.0173016106041470468790422,10.323561997322116212672,-0.138006043604413652925444,0.0030349431082919904080486,1.00179734719032142997719,6.52027674825932201940759,2.82195914143906190219013,0.315318601627139594167915,1139.69402191191716156027,1168.65594654911569705291,1132.20491514503692087601,1139.66498855525537692301,235.953535377667520833711,-121.183463400394089148904,691.972464256108196423156,557.371722617793125209573,155.006785745371360007994
0.144999999999999990007993,-2.91632118340505597231527,-0.639933201377634097717362,-0.416528398592203752404117,-0.0376954184770587480413084,0.124522752801521696675024,0.0372826966337261520023638,-0.00320766027203153725189111,0.00724104905990918812364043,0.0219008185905134565574226,0.99972516738720618167946,-0.0247215947712231681743233,-0.0301814733026272222216058,10.3251933667246227344094,-0.138112859280154182117784,0.00321497727387520543934629,1.00310787645938859213857,6.51997134616000817430859,2.82195772109104670022361,0.31782937716392861693393,1140.36221141788382738014,1168.55477870678078033961,1134.0989074428980529774,1141.20496074383095219673,230.296374138334783765458,50.6746678762740501156259,699.472476237545947697072,552.514698802818088552158,154.997433547394450670254
0.147499999999999992228439,-2.71906103229214091143717,-0.586726887933472940339641,-0.46732226816273003677793,-0.0434588477131110720308449,0.124454151647995184259976,0.0353273818105533099487303,-0.00333618130714056354557684,0.00747041658341033362050743,0.0219708903331923451063279,0.999721266964763599638388,-0.0263276998390774633063138,-0.0433039639682357771488519,10.3274753861623409534332,-0.138248616446177530203698,0.00340778505138242867461562,1.00442637629142961230855,6.51966979371571131451901,2.82196268703464037130857,0.32034458300139562192399,1140.84550378260883007897,1168.90931988849706613109,1135.7022775262246341299,1142.42756204926945429179,154.775687088294802151722,215.211459544116024744653,655.678298643123866895621,454.858213288843728605571,154.989653574408890790437
0.149999999999999994448885,-2.50818367571960232353945,-0.595990668714800664318432,-0.464781649681529462903029,-0.0484793592250222366013546,0.123773024529535119464541,0.0333272298350785409204455,-0.00342583540099906371997895,0.00770483452769746800237183,0.0220308481888080998079005,0.999717886140657263638332,-0.0281874047669066901677937,-0.056153897160077889672003,10.3303198981431982872436,-0.13841342145022111909114,0.00363069796626134958308918,1.00575061278703170586368,6.51937243349194783803568,2.82197604120421319251477,0.322864690322982761383486,1141.13608985332530210144,1169.6308360045013614581,1137.37729893611367515405,1143.47925181027517282928,68.282437939296812601242,361.623376324405057857803,765.505983668162343747099,408.11402921253795739176,154.981897700204285683867
0.152499999999999996669331,-2.22352229644748078385419,-0.645085454083317855200619,-0.415405492484755778370697,-0.0542351103432920644831228,0.122164833614651954785124,0.0314705602104483062042561,-0.00347383599518740491043922,0.00794015487369678987783495,0.0220781539195285883558917,0.999715038520110566011567,-0.0300870549558612393470369,-0.0684457947971656155417008,10.3336549129484875919616,-0.138599265209628480510773,0.00387690882218504929979108,1.00707964460405818840627,6.51907806858139959871323,2.82199879303415945841493,0.325390158145614449836103,1141.18691597230531442619,1170.71743677011909312569,1139.52980744456544925924,1144.46813219533214578405,-32.0631571464673186255823,399.791808273539231777249,818.198025502896825855714,318.348644803608920028637,154.972629536829515473073
0.154999999999999998889777,-1.93404119515204242496509,-0.686727269033392428987383,-0.356512994347706946296483,-0.0593419152693238846629775,0.120381046715665587787392,0.0305596873671772732705687,-0.00348631514847155300762527,0.00816454533281645543352223,0.0221116200692271849814752,0.999712729024529234145291,-0.0316625071722408321650555,-0.0800619781301495359038256,10.3374229774870798337361,-0.138781140360553945090061,0.00412253960109146798396207,1.00841526156666172475695,6.51878470921259989268037,2.8220316678935670751116,0.327920554841467259965526,1140.9757740675929653662,1171.62979504586905932229,1141.46828906362816269393,1145.07099503429321885051,-126.875944691300787781074,324.939763425527132767456,804.299486657600255057332,214.641476821179622902491,154.9649469874648559653
0.157500000000000001110223,-1.55338905863640186488794,-0.693025563424694901470957,-0.307982277664931747285237,-0.0648820628676763239139902,0.118174356305337041606052,0.0303060015381015554480904,-0.0034777759952047074959447,0.00836698711919674209536169,0.0221270112140749507234627,0.999711044106999069391861,-0.0325787924821653029905377,-0.091042466243319408736312,10.3415789982667369883984,-0.138933896518191657420971,0.0043282024086265021706188,1.00975990687549810331802,6.51849019879201385663237,2.82207260196349007941308,0.330453782878382507082193,1140.55253624884880991885,1172.34213558724673021061,1143.55130487785345394514,1145.54133957943804489332,-189.950461537500643771637,225.25251031192945561088,850.594327081079541130748,191.380912423528400267969,154.95731835067337556211
0.160000000000000003330669,-1.0782476677275745213791,-0.647603312722207502538652,-0.286492419271355602816698,-0.0701896835443068661808397,0.115599598710759532416148,0.0305209388708578520377213,-0.00346377504854572006165458,0.00854845666885206169338662,0.0221201612443548030484397,0.999710011302514689468524,-0.0327614588700376532792724,-0.10143597396056641679607,10.3460879801688427903628,-0.13905455429165775038669,0.00445626725655854684371437,1.01111360887687085075015,6.51819212611439269267066,2.82211646961697315560968,0.332987484530708754970618,1140.02602175990546129469,1172.7560575974287075951,1145.72126069903356437862,1146.0278995964108617045,-212.836292619976831019812,71.4885605078961248182168,875.820487633335801547219,232.251491343003891643093,154.949743989564552748561
0.162500000000000005551115,-0.492988171396871344143165,-0.524500192914494345330922,-0.308790008318779118923203,-0.0741943612004826308359284,0.11279122284313211621587,0.0310856386627433207980875,-0.0034515946713157465847166,0.00871442133619083555973184,0.0220907711395556330402634,0.999709605655002664370556,-0.0322406945945798370511959,-0.111118781891016010776596,10.3509247300450724083021,-0.139147201317884827709292,0.00449118096061339611840824,1.01247576072512290856764,6.51788972254162146668932,2.82215911187778134561199,0.335521991114498818742362,1139.488354785748924769,1172.69957838978621111892,1147.93040731602013693191,1146.7025970361530653463,-208.705982433229820571796,-144.311728092225024511208,961.959877572279765445273,372.776554339634117241076,154.942247927468827128905
0.165000000000000007771561,0.289824538347590254794284,-0.290955404295804964664995,-0.378858140040502611167739,-0.0760852226999217950975662,0.110095447491210418622387,0.0313139281327608903771065,-0.00344252917965047564724523,0.00887812686367260399389334,0.0220425512278349146344514,0.999709702943884948034281,-0.0312234457261374651060315,-0.119848910827898558206783,10.3560732955332497340351,-0.139230493543260419597729,0.00443528215937633290416597,1.0138437728441760388165,6.51758233752687665685244,2.82219797507235758970978,0.338058267179883964459464,1138.98249184773931119707,1172.034498956967581762,1150.53106008689496775332,1147.89178236810903399601,-143.60794858193901291088,-336.988523331319527187588,933.846780983502981143829,507.484217487899059051415,154.933361435938792283196
0.167500000000000009992007,0.950297666729167711530124,-0.0466998306971521184860485,-0.451879853730161318292602,-0.0743022664447492015016294,0.109374011925187128446701,0.0302636892654563789684108,-0.00344534963882017720646078,0.00905476290395413122014112,0.0219823652685997676659024,0.999710041766936119422837,-0.0299807728663507785937803,-0.127556201648778289037267,10.3615255016615321892459,-0.139327362572603863366538,0.00428068630041094494442788,1.01521437686911397690892,6.51727093169290583318798,2.82223100982257291136079,0.340598021905348991023033,1138.77031504283922913601,1171.01463577312961206189,1152.59964122093765581667,1149.24001812359256291529,-28.7326429673157441868625,-481.738067001924264332047,801.470886720425596649875,602.854537093480189469119,154.926061224740919897158
0.170000000000000012212453,1.54107483215672536047691,0.210035312035374788219855,-0.506590125161473059378636,-0.0691935931991372876748159,0.110596592897450982095897,0.0279959509191355163104653,-0.00346308025132385744956909,0.00925684873879634162463503,0.021914096903523264114888,0.999710273547913308433976,-0.0287464553790966539925655,-0.134078252672231001962899,10.3672811028897946528105,-0.139456008681745124988538,0.00403361417296794165510132,1.01658468462844808755108,6.5169556514230144728117,2.82225773379311517530255,0.343141034313090287355408,1138.83882863290273235179,1169.6258086219579581666,1154.53841452049709914718,1150.90605505357643778552,93.8361862508826618523017,-656.33792869170918038435,827.461803275399915946764,776.545046620730545328115,154.918889041510396964441
0.172500000000000014432899,2.10457117892559120164719,0.494814194659735917536381,-0.524592340178020921648283,-0.0610427852319315733531369,0.113310054827134104593611,0.0251748759421404344482909,-0.00349052031800819052148599,0.00948281520282601500526631,0.0218443440815376185848429,0.999710100179893923488805,-0.0274780974225333554650241,-0.139122073817745772750243,10.3733478744269191906824,-0.139607188399478499007955,0.00371962956062886745262075,1.01795534120358266427786,6.51663883241329244810913,2.82227722559935356727578,0.345689237783357694588915,1139.23949597409364287159,1167.7329461296710633178,1156.73695023731465880701,1153.12274335669621905254,188.868432102162671526457,-698.773530048082989196701,790.819306837374142560293,824.098504321363407143508,154.910453851355043752847
0.175000000000000016653345,2.43739079523900059598418,0.702354028257351381547835,-0.496267556328743031368589,-0.0539126297146960142825378,0.115640665798311517709074,0.023361280267717509512293,-0.00351812450626504905765168,0.00971465208012068683063323,0.0217791689444294840616312,0.999709448467692385342787,-0.0258073762152917704493227,-0.14235072132117060350609,10.3797401945074643236921,-0.139740008813243749008493,0.00337393314935293059733667,1.01933133773387707421421,6.51632401390991677914144,2.82228998819681242693491,0.348244088460452738686968,1139.78317079341354656208,1166.13194097171754037845,1158.49251105468397327058,1155.02654757518325823185,239.70171780256461602221,-608.083750260723832070653,689.042880363652784581063,748.384374991432082424581,154.90358406162832238806
0.177499999999999991118216,2.64481623055630121754689,0.886411819817238710861318,-0.43302806203519628169829,-0.0471208759222799533628034,0.117549654684284299310804,0.022178920152828726641836,-0.00353512958508221631845347,0.00993402863231400597154863,0.0217227263280516669219367,0.999708484703497379797454,-0.0233725747863124874714735,-0.143444824000853399237343,10.3864764161965172917235,-0.139814895118049009603567,0.00303445202839774594294475,1.02071786644334627780495,6.51601464633349802824114,2.82229825385675603399704,0.350805187736872359227647,1140.43800456310646040947,1164.6925273783674583683,1160.18216463913290681376,1156.8646652316533618432,286.820708091273900208762,-563.207944238641061929229,720.292813675317802335485,774.839724482675592298619,154.896897165835724763383
0.179999999999999993338662,2.79389640122204241379222,1.09846940655981950563103,-0.335656440571990843935168,-0.0394732585111295317115143,0.119532660147946528939045,0.0212498554226295786884204,-0.00353610838193435051204916,0.0101356884295144555885315,0.0216774500888723131719615,0.999707302479882264911737,-0.0200970977433288580660253,-0.142235455038205338418322,10.3935757120402403330672,-0.139820879708150130893429,0.00272831071395482739963545,1.02211697904529685843045,6.51571228383130662820122,2.82230339464996715648226,0.353371962984405096896978,1141.21727433386990924191,1163.31590125052434814279,1162.09397512306054522924,1158.90074619759661800344,268.60221570450426042953,-433.714646237740055312315,670.036212988724741990154,710.294441259792847631616,154.889100608336946152122
0.182499999999999995559108,2.8720476215442283240975,1.27617011332802454681712,-0.249947188711958312445915,-0.033474088736352929085438,0.121328279490046472832709,0.0207434793283626274507103,-0.00351040743764396328055466,0.0103141374584011756565527,0.02164356015584543296848,0.999706049519491823929229,-0.0159060926966168650342759,-0.138491827816515783444729,10.4010579413815520410935,-0.139747347734006932551409,0.00249211858770021898318303,1.02353162371041439548947,6.51541549225256577670962,2.82230568874539589074857,0.355941346760636545543122,1141.78101564162898284849,1162.52395414717875610222,1163.53234570407653336588,1160.41613743795232949196,196.350150266652974551107,-244.054304272230865535676,528.031323104732564388542,562.906242764892795094056,154.882802620132309812107
0.184999999999999997779554,2.93926928929458286532395,1.45032077783541235582732,-0.172428125046984015433793,-0.0275729300951055092405717,0.123821522218376195434431,0.0204835094278850923799062,-0.00345622828423162477273767,0.0104752820864179620186096,0.021624350811673177102934,0.999704642553490008261008,-0.0109730009339859060912836,-0.132209234495445027146587,10.4089399588149120745584,-0.139607702775098707626,0.00234462519054279977526178,1.0249624370634677905656,6.5151218549476412889021,2.82230473900280287580244,0.358510811746199475891217,1142.19902508520317496732,1162.09562972916319267824,1164.73413173858421032492,1161.71527741142108425265,139.325080457183389626152,-122.425760597115981909155,432.938790330944868856022,481.557109586583010241156,154.87671959813141597806
0.1875,3.01408579896394890340616,1.60673292453058347284411,-0.10863787257592194546163,-0.0214912357720199002908412,0.12717112223864693310027,0.0204188727786892947058117,-0.00337461718162938330289879,0.0106348120712124755843364,0.0216193021344641168879352,0.999702963806489708353809,-0.00568186466063958645067444,-0.123481970978306265784852,10.4172356156653282965863,-0.139435542587254240887162,0.00229671012742117212207527,1.02640787227740237774753,6.51482935451598255127692,2.82230172111588117900283,0.361080323960267568494942,1142.47764104391490036505,1161.91182534419317562424,1165.69703965573125969968,1162.82392298588524681691,74.2386819374132045368242,-35.4174447863897228216956,322.83552017079244933484,397.516023929255993607512,154.870818840476772493275
0.190000000000000002220446,3.10286455958254636655624,1.71594766352247019014499,-0.0658867039390231418183319,-0.01496089911378173376022,0.131458778289535227479234,0.0205192918563749313043409,-0.00327608794401725760339628,0.0108006515644599038195039,0.0216303949157239799871988,0.999700888574040491540984,-0.000264214335965330671118778,-0.112647575900385085723165,10.4259548036646076951683,-0.139248791226520340913453,0.00233822930616992257640829,1.02786860534979584969051,6.51453760957365179962153,2.82229687940909723664618,0.363652266504831123139496,1142.57021849489024134527,1161.91854250523124392203,1166.34830933943817399268,1163.70285753106736592599,-11.0771029279021497870872,21.2342523446750242044345,213.819440585120702280619,337.623225872993941720779,154.865140105495044053896
0.192500000000000004440892,3.21495562517543342906379,1.76031777067183137219786,-0.039056746768866709706991,-0.00640145971549208395168229,0.137367438512966677510718,0.0206693093212232774369408,-0.00317223155428374365208399,0.010970893320002512993927,0.0216532600305557564046577,0.999698536869761067436002,0.0052494678830574889594196,-0.100107254176882737306542,10.4351039048913865059376,-0.139045087882427115255624,0.00245258531990312847459457,1.02934774905029224889574,6.51424745795757953459315,2.82229198423535843076593,0.36622827611668884451035,1142.42225552927538956283,1162.01799660591655083408,1166.76613685865686420584,1164.5120391152502179466,-106.709134895936486486789,40.4081919752115581445651,93.2531952239968688900262,261.091593777427760869614,154.858582062616278562928
0.195000000000000006661338,3.29720215416274475828118,1.70916576524019814264932,-0.033341377487543698288075,0.00145183410016661105373936,0.142732492350989198515165,0.0206719700734042700907001,-0.00307017534951664963771556,0.0111444023527377325533116,0.0216779167532967186049486,0.999696173594003645312966,0.0108116509435554550289105,-0.0862003381652392958178766,10.444685764998878241272,-0.138823274955265224539502,0.00262877163771850714049649,1.03084782062817192915816,6.51395915787585000344961,2.82228916925010731020507,0.368809541731105028361526,1142.03667282041055841546,1162.12058346510730189038,1166.81457531555815876345,1165.00831549995450586721,-217.592367150427691058212,45.9973236507266420858286,-42.9294160715471306843938,169.164502301009491702644,154.853328982498766208664
0.197500000000000008881784,3.34676246466049942540621,1.56416226304872019170489,-0.0376298672841989256809825,0.00986232799894173894905691,0.147684814067407133020282,0.0205281343026237003690504,-0.00297889214300456339756806,0.0113181685053675464003309,0.0216985146516292110030477,0.999693980606301768609967,0.0164105378520707431699854,-0.0713338785326172175604853,10.4546990280177194421185,-0.138578091486768917306449,0.00285094032804443769241187,1.03237161115041686798577,6.51367295062982787356987,2.82228886450512428396564,0.371396335326084126027268,1141.33429369352325011278,1162.24798322417018425767,1166.55148977829912837478,1165.35786162675526611565,-379.389775516392205645388,78.8541965537660161089661,-187.609179435321323126118,128.299171719754554032988,154.848292964857193965145
0.20000000000000001110223,3.35031100267676062998135,1.30272530769243966020099,-0.0456066397698204201160976,0.0199885821835783204780679,0.152275968323160537654104,0.0203104002360527668979984,-0.0029083270656847307056303,0.0114951638896199463679704,0.0217186888423702949280081,0.999691759459870099568946,0.0219075979443509524791089,-0.0559572090803356139709912,10.4651386957498271357281,-0.138316233214823669506188,0.00310220701325981994614378,1.03392023524382170585056,6.51338767356359493732043,2.82229108077534318610446,0.373987127107006378512466,1140.13972394282859568193,1162.5148544478761323262,1165.87652941838155129517,1165.64981135855327920581,-480.644398429148623108631,132.903026638814367288433,-304.259163679261916968244,90.6965568417944325574354,154.842496466806835542229
0.202500000000000013322676,3.30014818787637542740754,1.03752746039399235122858,-0.0492443493412138763587471,0.0282695630004065612261854,0.154937645842078058899816,0.0201409616991677538344607,-0.00286614022346319118755842,0.0116787106634639384350471,0.0217419512438962909961493,0.999689311760013965546534,0.0271569141400224214888404,-0.0404882136308793855183907,10.4759959404932558868495,-0.138044750138677285722366,0.00336902428153644777769626,1.03549482715161911272617,6.51310234582761538035811,2.82229522642681063260284,0.376581133575933313384354,1138.9310717013775047235,1162.91249835736425666255,1165.03019395990281736886,1165.81134441096423870476,-492.649296480203247483587,208.357718760180233630308,-387.29076682238849116402,50.5488125782903381377764,154.837868061487739623772
0.205000000000000015543122,3.19390134975407846695816,0.755457602650318582604427,-0.0445420079359772208560386,0.0362730711276542314158711,0.156430816783523107815768,0.0199994035141957335333096,-0.00284875999893357406689276,0.011864938071791883422712,0.0217719488534274772939536,0.999686570238816685218808,0.0321678887184246239949736,-0.0251232059232352131217247,10.4872561726019668526533,-0.137755144892740266637787,0.00365979996693835884710722,1.0370985667284682296696,6.51281789135463906603718,2.82230014224753977813975,0.379177814303620241975779,1137.67647746042757717078,1163.55664304167703448911,1163.94007558426960713405,1165.90255542144473110966,-510.971246462713224900654,339.24192874414956122564,-516.396931675216819712659,20.8107463749911225647793,154.833444464803136497721
0.207500000000000017763568,3.00714145336231997163168,0.42670737483421028457542,-0.0241382054145715951865014,0.0451047139791035806011266,0.157179710889773227577848,0.0198545762775930792476409,-0.00285550081383975596846514,0.0120497787363758636358657,0.0218131399262850959874793,0.999683465002149773681595,0.0369533923510132131240447,-0.0101233345002670199752615,10.4988996612007703390645,-0.137438578254738319461836,0.00397633480247247365901853,1.03873455099781342170218,6.512535123044984608498,2.82230522516020654322233,0.381775689393016648409684,1136.37621546906393632526,1164.60870800108500588976,1162.44820930152673099656,1165.91539814283919440641,-406.461001135541721396294,420.798205549410511139286,-561.570844484370240934368,-19.0944683586622865334448,154.828366561912304177895
0.209999999999999992228439,2.80795847575604762269563,0.172272777246879588153305,0.00844177992388503266318889,0.0516611138166191211085199,0.157462450600802661426769,0.0197501904914103264265801,-0.00287639109013737657299936,0.0122325442382537376284635,0.0218678399427305915347919,0.999679979699193532738377,0.0414602965751133187288779,0.00444916914424520193449553,10.5109004789910542854159,-0.137092863444923607207926,0.00433854600894424246443348,1.04040446516345719274454,6.51225396604643069764506,2.82231061624801204956725,0.384375755500135363185166,1135.64417245474987794296,1165.66063406942407709721,1161.13222136184776900336,1165.80708307965142012108,-188.905935100820869365634,437.010919024853365044692,-526.568611267205369586009,-81.7540274256320316226265,154.824321887595345970112
0.212499999999999994448885,2.56700837127639980295157,-0.0587896200445733319028818,0.0601260698019617373377699,0.0576739963256521770418317,0.157606943699337143094397,0.0196755192048687493899806,-0.00289846301494326016520708,0.0124117559249028869272635,0.021934020165161136756149,0.999676236051377231639492,0.0456538032420372927311369,0.0186043513287270645406579,10.5232265279457077866709,-0.136714177267396569392943,0.00477068246251669339508261,1.04210937709969364561857,6.51197466008350023258799,2.82231612428587341767638,0.386980399291154408825122,1135.43168579355983638379,1166.79376259620926248317,1159.81536624519071665418,1165.50662800571103616676,9.88315690847229255666662,452.075777954587067597458,-523.087533293073192908196,-161.204878261332709143971,154.82046468174323194944
0.214999999999999996669331,2.2892345094224135770844,-0.271131201223243911702099,0.128408872802492940445873,0.0633517121513029884960488,0.157312998877237375516813,0.0196589523182204052587085,-0.00290263139041327259196046,0.0125843257506437437159841,0.0220010405793778264504912,0.999672597657964123740726,0.0495353460982356427755313,0.0324974964182256770284241,10.535838829324093879336,-0.136295291646510829952632,0.00530672784868749941589172,1.04384979038666392270329,6.51169761936859003981226,2.82232308018533828430918,0.389591744763796932193856,1135.69358823929223945015,1167.92101295919701442472,1158.51678369538240076508,1165.00105868834475586482,208.492690623370236835399,436.741213234108329288574,-522.710702077119549358031,-253.110780365704840733088,154.816757977048695238409
0.217499999999999998889777,1.96055498650442094898949,-0.461081745864322822825443,0.214651014526898997747395,0.0683510926806226853935655,0.156231511841013886998653,0.0197913915859809080854959,-0.00288180882355757676110963,0.0127547574435912716012131,0.0220617494397393927585416,0.999669233129335199627974,0.0529439184397831261175149,0.0460529107406967980198331,10.5486968921788992759048,-0.135845458674903246665266,0.00595597359185140451387497,1.04562340068623593758446,6.51142225382790051924076,2.8223321194973549630447,0.392212634422075545614916,1136.47414924667668856273,1168.97746866237980611913,1157.20181273480511663365,1164.24107410388251082622,423.896322225118240112351,440.00951417679021915319,-605.903342574355860961077,-374.744881883861694404914,154.813227026095319160959
0.220000000000000001110223,1.4974189930888150978916,-0.664749262347661407090982,0.331188572698367766911076,0.0734324168998109205741542,0.15409435857573977601831,0.0202724336286716384780693,-0.00284529866071913566452634,0.0129210480290713521783763,0.0221114272673019716941578,0.999666279361772769362915,0.055852085760381413315212,0.0588680110186317745446516,10.5617604864099572381519,-0.135361272953392453022303,0.00669271070716202960693142,1.04742958430000276948135,6.5111482811214562715918,2.82234385802247000896159,0.394843008727960409487423,1137.81306985041783264023,1170.12106053008096751,1155.48726698251061861811,1163.12733427892544568749,516.258063486975061096018,397.105759982695985854662,-671.906346734703561196511,-414.055389138274790639116,154.809186098352967064784
0.222500000000000003330669,1.04746494885412566588911,-0.819840972998518657810507,0.429813146688004465989508,0.0769316794494028510786876,0.15179746997003198960563,0.0210679304595005299771682,-0.00280468816469667779622821,0.0130779113353832292243606,0.0221556568609618947940376,0.999663602298951681213168,0.0583097807147364352586827,0.0705117143368721305263236,10.5749877348230310047938,-0.134832606219025985527793,0.00748770954141539553383655,1.04926920984483151855216,6.51087508218603794318824,2.82235647464498073944128,0.397479885400629229241787,1139.05543956411156614195,1170.96299746229328775371,1153.8422810011315959855,1162.17079715819113516773,469.753159145329448165285,313.399913646025822799857,-718.576283253559495278751,-346.288489132438996875862,154.805977403751313659086
0.225000000000000005551115,0.527343816687778854657154,-0.974588566644908560476779,0.51597909396611307819569,0.0794888818314367084916228,0.149403196941266913633228,0.022383269153701323278538,-0.00276533946295754460079075,0.0132227657922831271647413,0.0222008595634556604725418,0.999661031090219531769492,0.0603212317814054641007537,0.0807143041938661737200178,10.588332931999405062129,-0.134255031030604210506851,0.00832401377641094585013715,1.05114343893960016096401,6.51060263376921888323068,2.82236935243769426762128,0.400120312921056375810025,1140.16183564614448187058,1171.68806009831109804509,1151.89438556624281773111,1161.39589183326324928203,404.397182777301736678055,287.565028083645074730157,-919.195235342430464697827,-254.603054882363494471065,154.802928194231867564667
0.227500000000000007771561,-0.170041046106888082967146,-1.18510283280763495383781,0.589626439958930936846571,0.0813827639574802585986646,0.147120348629940778106828,0.024489330345735083049874,-0.00272731443095008399199464,0.013355285263327224334895,0.0222481392003882824659478,0.999658518541796992096238,0.0618529954592059935669646,0.0893543189559001388433401,10.6017457024859993452992,-0.133629295996971347859628,0.00919345479840839169272115,1.05305388336385030711995,6.5103323969048414454619,2.82238412595308929553539,0.402761926826812000079769,1141.07742547799807653064,1172.40082260271151426423,1149.24630482441943968297,1160.8977818837793165585,245.61318020419071217475,227.540006435265041773164,-993.944431668113793421071,-90.7704938773348715130851,154.799447908844115318061
0.230000000000000009992007,-0.793305346320726800790624,-1.396566556534830638725,0.61935274206282608933094,0.0818014791002659169549815,0.145558221466908999097711,0.0263800238362548906956295,-0.00268834615572053226700833,0.0134789899868796511639424,0.022297295446425245690758,0.999656018837099424878545,0.062801350417250823010562,0.0963980272221745121408176,10.6151715792975043228807,-0.132964905103322511559227,0.0100914460234975585095629,1.05500184039065003638314,6.51006506624300662622318,2.82240274734554263957875,0.405402981550845697977792,1141.38990154716543656832,1172.82576013048742424871,1146.92466340790224421653,1160.94203936387657449814,30.2924059091310198255087,123.520503037070625396154,-892.243967977900979349215,115.729391172180740454678,154.796692902770445243732
0.232500000000000012212453,-1.41579343339879715202301,-1.64576509968556816687624,0.615470502922372819654129,0.0800927005908120964727814,0.143399805461385310145772,0.0279678666775108886177748,-0.00265093460069859955877125,0.0136026130775774387743349,0.0223482301400108121502974,0.999653412502008009710153,0.0629615771647105693098467,0.101750865586035008081289,10.6285547317146562562584,-0.132283354676089121015892,0.0110025458887687190706606,1.05698739027608534790659,6.50979995101025643577941,2.82242648495167980371434,0.408044112466621144985623,1141.22888750754373177188,1173.01842511789686795964,1144.78508498452993080718,1161.47642883964022075816,-150.285783443496114841764,22.9250362440325048396517,-810.18217100699916954909,324.693288546950213913078,154.794084616917160701632
0.235000000000000014432899,-2.08459798982505972730905,-1.95771490793669822316758,0.576919387990727616788433,0.0744715178029810437321245,0.13931861350417587552819,0.0294017710718235680822374,-0.00261565134284742414894076,0.0137339155574503022499977,0.0223990746125174930436508,0.999650643949983819247507,0.0621629237161679601419983,0.105398010720233845094462,10.6418352041719952438825,-0.131604831355613044463482,0.0119141877995168725401509,1.05901024842824886817994,6.50953632386133751452917,2.82245612634592468737083,0.410688176661334058969999,1140.63847262994795528357,1172.94038531170758687949,1142.87375255286724495818,1162.56550580661132698879,-243.931531143425445407047,-77.1931766018951037722218,-528.96461427112581077381,442.722323647603445806453,154.791120190214428475883
0.237500000000000016653345,-2.5170489905571065136769,-2.18934108301395413676005,0.519307701303003743653619,0.0670377635553187217754001,0.134382557721780815374046,0.0303386879253502439457435,-0.00259372727094343662190834,0.0138757858815789850148725,0.0224515863959261485760521,0.999647607294180118309157,0.0603494568523652505365185,0.107132105702441707273387,10.6549536602521630612728,-0.130940408282985754073735,0.0127915366291865058995247,1.06107050399235380844232,6.50927480260880297890935,2.82248985630986304329326,0.413337841967498564876848,1140.00922985182660340797,1172.63245923488739208551,1142.14026191317429947958,1163.69004045787823997671,-223.937248287394282897367,-155.805164653020995046973,-63.944870823661702274876,448.761755542820822029171,154.788785152212113871428
0.239999999999999991118216,-2.76948624359179396137165,-2.33785761148850212975958,0.433388449471155345893436,0.058369906390524167738576,0.127664460214874014853947,0.0312628915389176198491583,-0.00258303621844690935865918,0.014025515305406476701533,0.0225060697437962815847801,0.999644332168838967156432,0.0576067867996964064203347,0.107064568351814506930175,10.6678431271915492573044,-0.130289440340858875266861,0.0136275836458523459671088,1.06316820281333646036614,6.5090167041275126535993,2.82252699346521795931153,0.415994437880980949540088,1139.5187863885109891271,1172.16135948844248559908,1142.55402819874893793894,1164.8093145843254205829,-122.355699831951483247394,-207.932379989643834505841,459.330345403579826779605,439.094931236424827147857,154.786587919238456834137
0.242499999999999993338662,-2.85103553762746653177373,-2.37191473286175158463607,0.289385911110230542586663,0.0481794434788179459783208,0.118287343615231799187626,0.0325949339174734509239073,-0.00257405114508888486005156,0.0141832870143683287267322,0.0225618847719314639943544,0.999640852639435362192444,0.053979582128670454410635,0.105501532804635714257735,10.6804332112466031645681,-0.129657738063913896553458,0.0144315240655325614099747,1.06530127115693629136217,6.50876284185735354270719,2.82256769184969380503958,0.418658615656564092599723,1139.39745135266684883391,1171.59279733493917774467,1144.43691364019218781323,1165.88551511406035388063,65.2695385714195595028286,-176.318836008476694132696,897.15248980214630591945,321.87139618849840871917,154.784108081705994663935
0.244999999999999995559108,-2.75351087953973738819968,-2.26980524494920699041245,0.129584403402024511686719,0.0403546365290474648435115,0.110742393033873551266844,0.0339104046242926157606057,-0.00255901058781119036464324,0.0143550388565863700635061,0.0226180681159934560131575,0.999637131358963371141613,0.0494059890231048834396965,0.102746372215746936684688,10.692654914939268451235,-0.129063963600207110005158,0.0152098355057124177969197,1.06746527306731664452855,6.50851323823344518615386,2.82261255029337565503056,0.421331356415826085992649,1139.84513408136808720883,1171.27976530840010127577,1147.03979064775967344758,1166.41867156526791404758,308.455824809288685628417,-56.8324966926865684513359,1197.23713297912468078721,123.907355419168993648782,154.782170853388265641115
0.247499999999999997779554,-2.5308519847300385841038,-2.05500704919458776487318,-0.0696404785255877317728945,0.033754535417783761153121,0.10483473275349214359764,0.0351202397721753697967806,-0.00252494466155592798065066,0.0145404634204407100239731,0.0226703535523886841318575,0.999633313561825165294294,0.0439755261527118232467437,0.0992394913976233777885838,10.7044375048786157833547,-0.128513592598169579250822,0.0159802138896036755033592,1.06965680485286229739472,6.50826787128179518049365,2.82266271048322892056603,0.424013695529815992646405,1140.93973047671329368313,1171.30863485147574465373,1150.4230993050878169015,1166.50505189115619941731,538.432119813523513585096,83.4890591630027500968936,1427.46523828936778954812,-33.0706112128609390765632,154.780366660355042540687
0.25,-2.24889873231129389097305,-1.78195412497750105274008,-0.288194236029414685429373,0.0284790752745753446284471,0.100459926157193693563308,0.0356357279122385961489528,-0.00245825628967628060164707,0.0147306330931477567902643,0.0227095973112343245403633,0.999629784261682363677437,0.03797681931727277943045,0.0954543767724358588333544,10.7157109230023905865892,-0.127993705393741857845313,0.016761834691790700874181,1.07187471960837221729435,6.50802686790669060457049,2.82271942886687288165604,0.426705341926500614224693,1142.53729468043570705049,1171.69721060421511538152,1154.17711683920651921653,1166.25331850920360921009,731.880140414704555951175,240.856865054410945958807,1523.06772579886319363141,-157.294219499863032751819,154.778672282552946626311
0.252500000000000002220446,-1.94805613326619897485159,-1.485445735417770807274,-0.498570789031284433701074,0.0246762171082455239456976,0.0975276011179729424016571,0.0344972637835964796027,-0.00236250031666074451763837,0.0149125281809508632158146,0.0227258747587015530466914,0.999626959369745771155635,0.0317924657500196980453033,0.0915100475605409996449069,10.7264129677125445994079,-0.127482954186021513187654,0.0175388903480641136778395,1.07412003501097896851491,6.50779104144241227203338,2.82278204427784906727084,0.429404075655894335028506,1144.59913117878681987349,1172.51291917674780052039,1158.03843793408213969087,1165.71858079365688354301,958.865538673852938700293,431.644746268193159721704,1645.95152233814451392391,-256.958952307649951762869,154.777110185030721822841
0.255000000000000004440892,-1.61634013969421586054409,-1.15067647606144052296884,-0.695056612768653825362719,0.0212167619615410384115162,0.0950055464883854811075636,0.0314865037041582862542555,-0.00225365305548602418844739,0.0150739195551475163581401,0.0227141134552867746121407,0.999625104421196564175034,0.0257961792089809391348432,0.0872636476852976100682113,10.7364874041689102313057,-0.126961127138756874055403,0.018272545266588058332502,1.07639508201473055315489,6.50756115265033763250813,2.82284880610721122806694,0.432108820027548301556664,1147.33162237380497572303,1173.85543433555608316965,1162.40687445089724860736,1164.96852374766535831441,998.828846518789760011714,522.725588625189175218111,1512.35913365930946383742,-260.303364173023283001385,154.775389172901697065754
0.257500000000000006661338,-1.38382128049492147958688,-0.910526542348723544328948,-0.787199683623421186950964,0.0187050087313609947337056,0.093307394963553350053509,0.0284540656272272950155777,-0.00214689486420998297544482,0.0152042498670441270092191,0.0226763768515225450084216,0.999624304040433897533546,0.020337205175705468096492,0.082585571217526285159316,10.7458787521280125787371,-0.126409764717522105081926,0.0189302243873437463228537,1.07870311470495594541319,6.50733706502021558293336,2.82291797026402013770507,0.43481785685331725277436,1149.59327541138077322103,1175.12654711987374867022,1165.60023360237869383127,1164.41706397279176599113,853.559499480933595805254,504.100390835628331842599,1148.00313317345990071772,-172.279255688999768381109,154.774084061986371807507
0.260000000000000008881784,-1.1996908739830605128418,-0.720780740350671855765086,-0.795086603434317029659439,0.0160703955587163382912053,0.0918872268019276655648397,0.0255590119555908421022927,-0.00206040609579819346611207,0.0153051149389653706051062,0.0226217644079871535445214,0.999624287196794303334002,0.0155081634055291781026931,0.077276137193410796011328,10.7545335454129382668498,-0.125834448630762874010713,0.019478113692605238810307,1.08104569130969108137208,6.50711708785264342225219,2.82298660200263729080916,0.437529454046167776137821,1151.5994198712096476811,1176.3759362897342271026,1168.14689011676455265842,1164.10712746922035876196,792.549292356078922239249,519.864448736916074267356,953.232642887132101350289,-55.0651022516376045246034,154.772915220353326049008
0.26250000000000001110223,-1.02223664938104974453381,-0.549511849211087310962398,-0.719525504701157836429104,0.0126593570040464085957321,0.0905670553566255975841415,0.0227007333996111365648218,-0.00199783854190368256181776,0.0153847897804754961403884,0.0225604851312418454301056,0.999624679547190808648338,0.0112633481420416001195228,0.0714354270919190376121222,10.7623941888271801303745,-0.125252168340285907621734,0.0199174340489982684698766,1.08342314854182908412383,6.50689938951804869304851,2.82305169130744904038011,0.44024239446788604457339,1153.55602187316117124283,1177.72586936355833131529,1170.36639681681435831706,1164.14173846153357771982,640.752729440554844586586,469.189026277581035628828,677.510192419503596283903,88.5987961922636770850659,154.771674013415463377896
0.265000000000000013322676,-0.900124842641294997669377,-0.446117166172082246777819,-0.605790139707349184483576,0.00993671649755818210680847,0.0896952065561347350319821,0.0210465052968218969964287,-0.00195828780413767004203729,0.0154534011610325677787969,0.0225037899124357725078038,0.999625067732567540446098,0.00751247591995601177172759,0.0652413185801575673528063,10.7694032070755625341008,-0.124681351930156933405236,0.0202623535953897412897895,1.08583551678471823542793,6.5066817142421982111955,2.8231107950216527413545,0.44295610469655044560966,1154.8031835184124247462,1178.72188142112213427026,1171.53444107886207348201,1164.55012145018167757371,440.097591992752825262869,387.122674799092806097178,345.125025933247968623618,237.899239797525098083497,154.770777787232674427287
0.267500000000000015543122,-0.797706729857554530660479,-0.368406158509059611372294,-0.468453437795158134093754,0.00771187445944713275552962,0.0888621090800521540309376,0.0201247265026403623910944,-0.00193667457701914166000312,0.0155264574935465426291925,0.0224608789530373956222498,0.999625012093570575189005,0.0040389194339106801456829,0.0589394155397105906635247,10.7755053459006351346261,-0.12414993135448244843122,0.0205379301277236782363733,1.08828088752955842721803,6.50646149009268892626778,2.82316328232935154218808,0.445670331857691670585098,1155.75650983312493735866,1179.66148273755379705108,1172.09202194648059958126,1165.331234660521204205,394.24659581522939788556,423.04451898044095514706,139.835883826935855722695,406.876742343956379954761,154.770030170536131208792
0.270000000000000017763568,-0.69625618736020666865727,-0.282733950294290881100068,-0.307070831532718524492509,0.00540550355720571373135952,0.0877285283346644628732491,0.0196371088540267593747224,-0.00192975089929112815154144,0.0156132242851936223898557,0.022436075367147742531948,0.999624276661858157666529,0.000742629808857885043149594,0.0527056535827780253677943,10.7806515483506704100591,-0.123671078577877860404932,0.0207648993885685625992998,1.0907577015327640790332,6.50623754251462127484729,2.82320995221137671649103,0.448386736347866299290388,1156.77441649748857344093,1180.83710401602434103552,1172.23362049799675332906,1166.58450516190146117879,387.144690129434479786141,447.270549106633154679002,-5.55465093038946555736857,485.889925635501185752219,154.769312127007566459724
0.272500000000000019984014,-0.631278819375190036744527,-0.201897644310812779400166,-0.191737433521361883004275,0.00365925489336640106033394,0.0866793526515995810255433,0.0195616002923805314128725,-0.00193531530029572075048139,0.015713374381066045476496,0.0224283448155249594269112,0.999622892813732288885831,-0.00228962629247087684492001,0.0466598147081680320047425,10.7848017754967866466131,-0.123236497302056172142848,0.0209601083138649078863036,1.09326479319486802310735,6.50601052793820233688393,2.82325271210444617153712,0.451108103751932221214815,1157.69223328377211146289,1181.89783548308696481399,1172.06424869182865222683,1167.76068428869871240749,416.795505570189163790928,434.335102116073869638058,-89.6584477854047747769073,461.511292263139296210284,154.768869055637537712755
0.27500000000000002220446,-0.591197610035596232691546,-0.0977975730763550599178302,-0.106905693344593044624702,0.00232649996895491553705604,0.0858180507905122458289782,0.0196502413958761050494228,-0.00195417204286078447991737,0.0158208005683558861065308,0.0224342035913044079986634,0.999621031201423537737583,-0.00486807779012685820640982,0.0408240202065439650169765,10.7879289227621484315023,-0.122825313205833147600643,0.0211322116710101724768034,1.09580005389964374451495,6.50578220706200660572449,2.82329339273771040552674,0.453836172076711785727809,1158.85839402533952124941,1183.00877952660471237323,1171.78532825906972902885,1168.89206162321715964936,522.123132510386767535238,436.590525872133696339006,-102.938963894121030762108,419.968032644510060436005,154.768594542594399854352
0.277500000000000024424907,-0.575710751799901054859276,0.0295373076789648518480913,-0.0491796173576510634029013,0.00138861610913991093650688,0.0854187220786113976522813,0.0197825906511580780489101,-0.00198817157987485814904516,0.0159338869670566131431233,0.022453012888571731442422,0.999618725726287737920472,-0.0069202443262209381580341,0.0351698190653053355259061,10.7900214698805960722439,-0.12242677652578076719081,0.0212869620544108052728749,1.09835774051289836172884,6.50555429609297242166122,2.8233309745942207769076,0.456573874426264125769848,1160.30284894632404757431,1184.08078811244763528521,1171.5495538723580466467,1169.86052445192126469919,642.050230589756552035396,393.468538733440823307319,-56.8772372886541646153091,327.989877210347628988529,154.768464676528225254515
0.280000000000000026645353,-0.590372461022495631510765,0.18344172284170154330063,-0.0205950787425109409223278,0.000702861351616286588253613,0.0854369390109216558792937,0.0198981914492765421531573,-0.0020336914318899619591452,0.0160541805301093291891146,0.022486237210925477669754,0.999615923983978360567448,-0.00845996332906773923498989,0.0297618330088001009636756,10.7910846601473053851805,-0.122037530913828351497585,0.0214408023199945119152687,1.10092886662777655892853,6.50532848962977539031272,2.82336477587336087680114,0.459324129157676730450532,1162.06864517828830685175,1184.97612222027191819507,1171.50094207262645795709,1170.53201100926889921539,822.47742714948731190816,322.647286845267160515505,45.6833352217017392149501,221.21518071239714231524,154.76851408320777636618
0.282500000000000028865799,-0.631995746998789797999052,0.391676094593627510676015,-0.0105981706858685412880883,-0.00033251503021212167401921,0.0858019951024649313309212,0.0199612510575688829883578,-0.00208705695435365198853184,0.0161847741881306836364551,0.0225348928385767713344912,0.999612561213562345052708,-0.00955543496041325740586458,0.024645541672175183545157,10.7911439151335510899798,-0.121658649976602223352629,0.0216078076243259066535618,1.10350250108004654947536,6.50510566010189350549808,2.82339661084297688375955,0.462087568075107202325569,1164.41523608207148754445,1185.69402454667397250887,1171.77797054846655555593,1170.96660035548325140553,865.503385625151281601575,190.625027574378520967002,165.272626324485685245236,108.541222732992437727262,154.768785555216396687683
0.285000000000000031086245,-0.669732110532387903134577,0.575112801005361218287248,-0.0137322309581283299312338,-0.00180976760799441381555308,0.0866970340319433291353945,0.0199217121356283742572568,-0.0021411837252731029217212,0.0163286745819773392029983,0.0225952950822886078352525,0.999608688403529566102179,-0.010292132848382908039131,0.0199258116360050557824835,10.7902451511895769442617,-0.121292052863317595390313,0.0218056465715318857634397,1.10606699886135761978778,6.50488615310684981096756,2.82342902233656722899013,0.464863751268349389977885,1166.3961621064140672388,1185.92924735814381165255,1172.32730520424888709385,1171.0747171229338619014,755.948076711683143003029,19.224040186645634520346,283.792366509532939744531,15.8625070750076559988884,154.769191238574990165944
0.287500000000000033306691,-0.684998204110632502583655,0.752130467327901230945031,-0.0177222524472249766402943,-0.00424176330428385327947494,0.088477738275547029855872,0.0197592882282277490513245,-0.00218758330688329514016055,0.0164817641206555891286722,0.0226592124921629160805292,0.999604576119993315508339,-0.0106199660355770289510424,0.0157260351751932897501618,10.7884551712890583985427,-0.120924852975868787896552,0.0220506937692107399251462,1.10861277246345335534272,6.50466970509735364913695,2.82346524370754625721247,0.467651286684289346773369,1168.19497646562990667007,1185.79014474760720077029,1173.19693238101422139152,1171.04591289085828975658,711.007984766281879274175,-126.829669477184708625828,441.91502911995024760472,-12.0236363534787731310871,154.769785201910167415917
0.289999999999999980015986,-0.655598308877616053891302,0.937244888983055579601,-0.0122055889694356496655292,-0.00761394861573572341584271,0.0912997729454285283923198,0.0194085954299834037573014,-0.00221971551260294591018107,0.0166402021425971144430456,0.0227225885489637374758942,0.999600393293861300136882,-0.0105105041982510097331449,0.01212226692133457073286,10.7858607954662311101401,-0.120545211862064016727913,0.0223529674169138867223516,1.11113146931728512534221,6.50445563397465686961141,2.82350722846834445434183,0.470448182663530056757395,1169.95120203024544025538,1185.29509901075789457536,1174.53688034984861587873,1171.01459894116646864859,561.098422728451851071441,-212.703696786459090617427,524.16809364836433360324,6.15459246896541056770502,154.770716518856204402255
0.292499999999999982236432,-0.589831691062287055693503,1.05789297972103901734897,0.00652471050775342998467865,-0.00984087813570714599331613,0.0938927731214733024556196,0.0190077090310397829597822,-0.00223152231417001085944651,0.0168000961313327958068786,0.0227845591804696490090265,0.999596236484995515070295,-0.00994718911642756414837052,0.00918048291429453267031846,10.7825658355404012667123,-0.120141462381532324044109,0.0227196775093804446965517,1.11361659353041009268281,6.50424320635544628288471,2.82355646327744702617224,0.473251247699230326304587,1171.00046857927213750372,1184.72662626367491611745,1175.81777284925601634313,1171.07668585320311649411,330.456646669699409812893,-232.574933425621367177882,523.497324581694101652829,48.7406695998287915472247,154.771674452939350885572
0.294999999999999984456878,-0.495795263399228913758776,1.13547975665879885553977,0.0410975494448707068251281,-0.0109110195701368727083658,0.0965908338993691495399929,0.0185978200911357041680283,-0.00222794611663831897477306,0.0169670786735233551645319,0.0228481081380120937263101,0.999591922812318567359569,-0.00913429201759472647603744,0.00673898243131516860859875,10.7786892272319967389649,-0.119723967693908764364785,0.0231331455925929581340927,1.11606186873641988199779,6.50403094193831776692605,2.8236135658468271003585,0.476059424084042781544213,1171.60348526359393872553,1184.13222434362978674471,1177.15436697275708866073,1171.25830228916561281949,172.180009361909327481044,-249.336645284301766878343,573.355018562596796982689,93.4237927001958325945452,154.772819893257718604218
0.297499999999999986677324,-0.372594208181867725393488,1.17253721528847121291506,0.0931986778751888733651754,-0.0112804258705249543792704,0.0999742971526799417691933,0.0183746148307358421469804,-0.00221557578961926624969148,0.0171422316899187583694175,0.0229131433189201649813782,0.9995874132930346878112,-0.00818726649993953975448235,0.00460943394300110387273861,10.7743591008700203559556,-0.119293877012679488958113,0.0235703519624216838168618,1.11846424990832193913093,6.50381797673621786515241,2.82367757817188547164733,0.478873012656381158436147,1171.86136862608168485167,1183.47994303725340614619,1178.68454794206900260178,1171.54380481670409608341,26.9318275662498969325043,-227.90427939003146207142,528.765846166970277408836,96.3554259114970648170129,154.774409471207519572999
0.29999999999999998889777,-0.270967965449246672715589,1.15310222152495112091231,0.134069466577525747696953,-0.0109296061597774479129397,0.102982224609693195915838,0.0185958480270226496344765,-0.00219632961472257352830706,0.0173207593456640648876821,0.0229817288189490612215771,0.999582734696185859490924,-0.00709694743787257081857334,0.00271268401825078275813041,10.7697071201250160754626,-0.118839752541352747239323,0.0240190356324977080659799,1.12082384222395359252289,6.50360493852717880258751,2.8237466640912156634613,0.481692046152130237679501,1171.73814440142518833454,1182.9927029466796284396,1179.79819620359194232151,1171.7400794187230985699,-110.988609431978957786669,-192.488004904907768377598,389.008675036211229780747,46.0650833666022236911886,154.77591215072072827752
0.302499999999999991118216,-0.166350322690234642131202,1.07961020500881721417841,0.155394461913846482215007,-0.0101748086477537608152133,0.106256302758801740582228,0.0191027643573646876973271,-0.00216640974110448572206855,0.0174963857943819522944295,0.0230539537316041022452229,0.999578003539477122352253,-0.00582165493539561068603305,0.0011056251365954561372007,10.7648635712820599508177,-0.118347795298732488822324,0.0244803244224013859253741,1.12314263961347027276361,6.50339332500509748058448,2.82381899961923288344678,0.484515678835259144818792,1171.30642557892178956536,1182.51750301272886645165,1180.62959131725006045599,1171.77413023353710741503,-221.890141713993017447137,-196.919712516819174652483,270.560092261166346361279,-23.5732879040369667222876,154.777598330218012279147
0.304999999999999993338662,-0.0411732758059678363715683,0.964966985040741298540468,0.148410436668619416522574,-0.00984769462728914829474647,0.109522480086943166388558,0.0196983962106605410558036,-0.0021261548727493275595668,0.0176580888009647586633921,0.0231237464783038380866653,0.999573557389784261850707,-0.00421956906347415588998118,-0.000231300485791591237116904,10.7599542820948190779973,-0.117795413048776345665836,0.024946177974368877183764,1.12542553866995564959552,6.50318565808944182293772,2.82389317759877300773041,0.487343469470488122041729,1170.62869369285522225255,1182.00810438409553171368,1181.15099666489777519018,1171.62221297920291362971,-331.557010511278065223451,-217.051668489329841804647,120.065481964183959462389,-102.316333348653557777652,154.779435794711872631524
0.307499999999999995559108,0.144343470860757439044875,0.815777968795292851567069,0.0955732185690274654854548,-0.0105945749289997146608266,0.111956071217123628858126,0.0203243649054405395304457,-0.00207978339509655137454236,0.0177956019282391984803748,0.0231842212831701033337595,0.999569737743091324411182,-0.00216316597402919225112683,-0.00138891760391433860544197,10.7550960950684846295644,-0.117163171214786435148092,0.0254014901160312875361136,1.12767879981751173446014,6.50298431003043209130965,2.82396835362055353968458,0.49017462723225641019198,1169.64864052636539781815,1181.43224467028221624787,1181.22991872707098082174,1171.26254856679383919982,-500.484259666108755482128,-262.808687906362820285722,-77.2261308307860616650942,-180.956233390679528838518,154.781454708669286901568
0.309999999999999997779554,0.477971390663766926287792,0.626605077039106839187355,-0.0303021041610893396289761,-0.0120248628376743594420306,0.113116956541593829954628,0.0210509930625172661522448,-0.00202574118682897997764658,0.0179120804506366672337325,0.0232298274113335312396345,0.999566631993278220669197,0.000196293150113845127346934,-0.00231829481075392085376308,10.7503915883198430947232,-0.116462396089245134866985,0.0258470063688855077044249,1.12990635750520773683547,6.50278974570796552967522,2.82404410043879172675929,0.493008954474514926591411,1168.1262723945246762014,1180.69406094456371647539,1180.76486601074384452659,1170.71743181224951513286,-609.241529578820859569532,-265.658799830998532343074,-264.391554489520558490767,-188.629756623367768497701,154.784086013105138590618
0.3125,0.858830370484829130894866,0.479108471877543073969008,-0.188166640902823395498089,-0.0125038033397750891068112,0.112820673533601464888498,0.0215517289627031455312434,-0.00196519369181877767358002,0.0180227292232536216720629,0.0232596460216694285449979,0.999564004831587471500143,0.0024571803464062055843975,-0.00301807232541109748957808,10.7459275040134034640005,-0.115732021792774503188284,0.0262807044879838670736749,1.13211028038754268898458,6.50260121917414402048507,2.824119312844824314368,0.49584750534451632608679,1166.60243287847129067814,1180.10395067112722244929,1179.90796095462337689241,1170.31939978367699950468,-644.98502035876242644008,-209.740770989674075508447,-432.42960000479757809444,-105.504680832882414165397,154.786451823689930051842
0.315000000000000002220446,1.32578923038295770631123,0.344377923677259167867248,-0.391597249141632075541963,-0.011055489230721488730369,0.112344026505783955993678,0.0217093466958194133975546,-0.0019013391266138133378627,0.0181374029394634796175101,0.0232753627713977000179835,0.999561662846241039126483,0.00434297069739613544880896,-0.00353041352645351580452626,10.7417720588399117076506,-0.114998860550052484086336,0.0266977825900178468432333,1.1342945926475169748926,6.50241768997224411918978,2.82419321642594267629534,0.498689865788539188340422,1164.90134729273086122703,1179.64535708961534510308,1178.6027180107198546466,1170.18990840808510256466,-762.591122580351338910987,-147.613303154457611299222,-656.299866694052411730809,50.436166746294432527975,154.788996399193450770326
0.317500000000000004440892,1.92821260804700678193058,0.168156179573492298162662,-0.660630388077484087538949,-0.00634827895604264842710496,0.112991993177519595148439,0.0209847834758194080884142,-0.0018337212663906211126269,0.0182578037851948288272652,0.0232764244824185638493841,0.999559613832512905418071,0.00576476282033893533407465,-0.00382109454037299345330325,10.7379721794376568055895,-0.114270628550884489893491,0.0271021949160914592258376,1.13646537392903623775453,6.50223805830266332606016,2.8242661158723141312521,0.501535653003960968376873,1162.78947726556953057298,1179.36588415535493368225,1176.62646162115311199159,1170.57158061740847188048,-769.523688192202143909526,-45.7548082695211206782915,-767.649648760333775499021,253.733230040415719486191,154.792255632719786717644
0.320000000000000006661338,2.41546818269483232199946,-0.0228165837615807616522989,-0.874665264577005441282154,-0.000188519131516336289206004,0.114563942525447270970318,0.0191873502824186914494931,-0.00176173896405665058803591,0.018383196176966324492108,0.0232614354945755233416982,0.999557876513137877338977,0.00669691376270475230425561,-0.0038551396066286991448635,10.7345532399611425233843,-0.113548622623219880312107,0.0274989815574295803912719,1.13862928606123681163353,6.50206087111605857131735,2.82433667402690380399122,0.504384950595808123630093,1161.05372885176984709688,1179.41658304826773928653,1174.76446976691818235849,1171.45857455828718229895,-680.960141740615085836907,81.8468452656815514956179,-749.248521473645496371319,484.827753861190558382077,154.795142477156787208514
0.322500000000000008881784,2.83733120343055533751908,-0.286866696318512859331662,-1.03585173960407272986117,0.00734265733688675703572102,0.116026757144851250247441,0.0160492366753466758622082,-0.00168916658483067257980059,0.0185100850280760093058419,0.0232350090021769574433197,0.999556367749983132320324,0.00718262274103350500942256,-0.00369889775510852392148564,10.7315198035727306091758,-0.112826709211127085286108,0.027884792879153068312359,1.14079356103703211111622,6.50188477316581092679826,2.82440405286808227103279,0.507237201939452098109484,1159.38467655686645230162,1179.775118381683341795,1172.88021901378488109913,1172.99571938671442694613,-725.155740693207235381124,217.555644171852492263497,-781.973669594025750484434,811.58873168897048344661,154.79820590160895221743
0.32500000000000001110223,3.23362592638839529968209,-0.686228699435663447303568,-1.12804815192272078760993,0.0169600428560629026830675,0.116274738794915608042224,0.011193697988630867123927,-0.00162165808700603236713889,0.0186393641470517859581868,0.023204579518980455316024,0.999554866014076393021526,0.00718074308883311779316827,-0.00346297805756902443707901,10.7288563528095615140501,-0.112107790353730696342183,0.028252745287678324853653,1.142963889107963426639,6.50170853964347106312971,2.82446869703893632674863,0.510090876006540350218188,1157.42795014830380750936,1180.50436126912700274261,1170.85460141894805019547,1175.51651821673203812679,-719.307743407124917212059,302.229917095382631941902,-668.904860665770115701889,1004.04691922471920406679,154.802085344225929475215
0.327500000000000013322676,3.46124526880965754926933,-1.06381338972380823371111,-1.10743947518263041729369,0.025216973412730481901578,0.114648282923901542740275,0.00699894293950023213546352,-0.001563350040783147501533,0.0187764229798244412783514,0.0231718667053933714827796,0.999553211538403485469928,0.00656333923302212379757847,-0.00322644935612874383945581,10.7265284486127701057967,-0.111404812045322459956864,0.0285980875546119825414415,1.14514374181755340664779,6.5015310803026444830266,2.82453151324753326534278,0.512946373504894581607516,1155.78813783983082430495,1181.28626796716025637579,1169.53569471045602767845,1178.01595398283802751394,-664.556508898476181457227,328.509605042290502296964,-423.099222706332113830285,1019.5386292279627014068,154.805487073559334021411
0.330000000000000015543122,3.5781875988307652036724,-1.44464141556330272209152,-0.995028558139452568020999,0.0337657530553402696060772,0.110965969094384817039689,0.00365494337094706463892058,-0.00152011566078576144597778,0.0189299555112221393193828,0.0231390982501118447345334,0.999551177546170399601522,0.00514039140000679267705763,-0.00311008426806173854384241,10.7244854595868925883906,-0.110738467543822979854973,0.0289114012970596821749947,1.14733427268923904307485,6.50135182019099833183873,2.82459193531336438809376,0.515805550812080015887773,1154.10516760381142375991,1182.14690929433845667518,1168.7391053054163876368,1180.6142113628718561813,-675.902848060240444283409,342.95633248752864119524,-226.348954349987053547011,996.652044119263337051962,154.809063373380894290676
0.332500000000000017763568,3.60319967564173859742027,-1.79661429414947515503798,-0.82874644117298001955163,0.0424193902120680865763802,0.105954861203260294888473,0.00130233775793032048422038,-0.00149389321569944858066059,0.0191007789084673522406188,0.023108028497435220693923,0.999548709279966196561418,0.00290191479434936255854538,-0.00315956853512192048505369,10.72266204991873905783,-0.110111945118869000714845,0.0291904374714089913378512,1.14953611737291105932002,6.50117257371480050665014,2.8246507683222201734452,0.518672531381225265789681,1152.40862359952961924137,1183.00104962959790100285,1168.40394993870609141595,1182.99921420343434874667,-662.852139848336605609802,324.811217557271163514088,-36.7001934231666027130814,828.680232778378240254824,154.812783899535787668356
0.335000000000000019984014,3.51893114721495559038544,-2.08945699464305079118276,-0.632022317166071934124716,0.0509005334415281729398828,0.100218258728863821027666,2.83869408399999788002524e-05,-0.00148012525653344107802456,0.0192816415828940442012129,0.0230827894159111451921618,0.999545863789846888991519,2.33818569040575297002249e-05,-0.00329131937527245288510613,10.7209807521291526910545,-0.109510525768276759106534,0.0294462512215155694517144,1.1517492669852686937304,6.50099697453439606675829,2.82471082806642392881713,0.521549933994306602613733,1150.79090690456973788969,1183.77096538212481391383,1168.5556043383005544456,1184.75761252676375079318,-656.275566693465748357994,302.654606675241382163222,140.035299121427556201525,549.509031745264564960962,154.816677660392315374338
0.33750000000000002220446,3.2942999862289257251291,-2.36298859447810771783338,-0.401643272599814249446126,0.0608395073017369558687761,0.0934205469213639783099268,-0.000618790825109251786499687,-0.00147001394175802209234039,0.0194671853411971865210894,0.0230671567631335686088256,0.999542681290413681516327,-0.00334997418572591937335758,-0.00333397616671808616484185,10.719355373577121426365,-0.108924826014443837385315,0.0296980810808437842296392,1.15397145222131425335022,6.50082775937200008087302,2.82477575786922097123011,0.524438474611477412068439,1149.12724576606228765741,1184.51432266297410933475,1169.10412643431322976539,1185.74675936216067384521,-533.065882889922704634955,234.213505973548109295734,225.471103254676364713305,141.700926283055991916626,154.82154950305363172447
0.340000000000000024424907,3.00722830596268808633909,-2.52908454189618803198414,-0.236184724040152588253605,0.068783270573438415329548,0.0878701049551455781738696,-0.000699207710669795556336636,-0.00145038918311608550776315,0.0196445867900778142756124,0.023058609186079041808437,0.999539493949361701474743,-0.00690418889678929420528064,-0.00302707796589615774074389,10.7176933216210930055468,-0.108329238994258517103653,0.0299725909025443763844532,1.15620096624520618533438,6.50066676616534611099496,2.82484872898989092249167,0.527337883803519424930073,1148.12557749012012209278,1184.94203291199255545507,1169.68295985457393726392,1185.4661171581790313212,-288.516405429845406160894,129.342291900957093275792,213.266345646752398579338,-345.577148656002179905045,154.825774731695901209605
0.342500000000000026645353,2.6246404228737008068606,-2.63537085822268002388569,-0.112559712230738268035068,0.0758821004912215019144739,0.0820108105737533954471274,-0.000559597553405439748774874,-0.00142280417372017578374332,0.0198034173961491415105751,0.0230539381375487358039056,0.999536572467050632440078,-0.0103776809859299559701817,-0.0024275317634215726192437,10.7159005548426478071633,-0.107704612857982828799663,0.0302620251981328379498049,1.15843637850114378196054,6.50051487652242521164681,2.82493052137284283986673,0.530245930898551431909027,1147.68466373891305920552,1185.16103412247889536957,1170.17045816254699275305,1184.0188736188806615246,-42.0265706772169878036038,58.3577102323487864055096,153.298921350324093282325,-866.098527574739932788361,154.830170620235747946936
0.345000000000000028865799,2.07305285564041463786111,-2.69306716958457004196248,-0.0161333361947341991093907,0.0828606030894799561181685,0.074437867731258544612416,-0.000322974154422029486287415,-0.00139110016671296888267351,0.0199378001581757974269848,0.0230533268998915630287883,0.999534019748454016784933,-0.0136022950696007907667173,-0.00164392268713924039058583,10.713880827908711879104,-0.107041454954815998257267,0.0305546995255914118072571,1.1606760805353444343524,6.5003713356726455785406,2.82501974459627680502649,0.533158877974512890318692,1147.91544463673403697612,1185.23382146315429963579,1170.44945446132555844088,1181.13562452030532767822,213.61430876549982826873,9.46706298486787112267393,33.5736264491515328245441,-1195.36759420775410944771,154.835641716563145564578
0.347500000000000031086245,1.55382732223047104191949,-2.68000397320032357484365,0.0245367365289845817954983,0.0871468254655528157259781,0.0679037882775994083850435,-0.00014218263077094052686429,-0.00135460687931366480230011,0.0200467732321866522193776,0.0230593384908161190549603,0.999531798066969012772631,-0.0165101656062267912461472,-0.000690900944921843396251404,10.7115352263804428645244,-0.106339620080319677275504,0.0308516664152220718153607,1.16291809876978868842912,6.50023380907096548497748,2.82511227839213363566273,0.536075730993881727215467,1148.75273528274055934162,1185.20836943740323476959,1170.33832629479275055928,1178.04203564784188529302,455.151155025532318632031,-7.53243172903238900062206,-120.598949432996846553579,-1300.12803740310005196079,154.840363291131097867037
0.350000000000000033306691,0.994476408864971572754143,-2.6007293659295855903224,0.0325235800117024756450412,0.0897907328920181935227873,0.0613310881482038924850109,-2.08216797979063001960889e-05,-0.001313348579886064286526,0.0201307799443396912009163,0.0230727278674288834026118,0.999529887168049024914751,-0.0190645393210982574960788,0.000398308804069463784358618,10.7087633319763284589499,-0.105600071671650738713844,0.0311544416350571437557271,1.16516106387110718323186,6.50009942145775987398792,2.82520412522749886363727,0.538997551901557736542259,1150.1912004118617005588,1185.19615930450913765526,1169.84645971416057363967,1174.63498433328982173407,739.843283149010176202864,19.180544101846148663526,-290.056781741626082293806,-1470.91350029446994085447,154.845251983335828072086
0.352499999999999980015986,0.297500911043282356693851,-2.4301892903650372801394,0.0164829825056407100469791,0.0912590451342287500846595,0.0537954143087214162188836,3.3468131832250545636652e-05,-0.00127056500611725381455486,0.0201945634178002653147388,0.0230944371654665490944947,0.999528171910296747704194,-0.0213255123911088376176259,0.00151759328159942197267185,10.7054638386720313292244,-0.104831373477441591735015,0.0314596889941431284709594,1.16740360688542410549928,6.49996511532983678449682,2.8252916119105155878799,0.541923974010804943013397,1152.45195169848557270598,1185.30427215791246453591,1168.8880423860846349271,1170.68746814636961062206,888.128620994129960308783,71.6589178938655209094577,-392.132995322485271572077,-1357.77501257331573469855,154.851309818297579568025
0.354999999999999982236432,-0.294368136308069294759804,-2.23007109799958280760279,-0.00918220110225487044786075,0.0912333138463549825347698,0.0480769438513803659684953,-1.0841266183347973532658e-05,-0.00122015586365494996777536,0.0202426432890809512854524,0.0231197051040247826547702,0.999526679791010175257782,-0.0233505389696595302972959,0.00275625079050083321430265,10.7015329408658335097471,-0.104039055910778041602605,0.0317869029656898186009251,1.16964444809627532428919,6.4998280609823702036465,2.82537232362761825399389,0.544853764432414289231588,1154.63184351683230488561,1185.55445389397846156498,1167.88579473754816717701,1167.84610927042331240955,895.825953390293875600037,140.425410808984338473238,-412.555242263760760579316,-986.988629495862369367387,154.856516130846472378835
0.357499999999999984456878,-0.888830445958947779061532,-1.97907919966942902334495,-0.0374961200553054624373672,0.0899756972212881339645563,0.0429171221461918939166225,-0.000166680706768600157352891,-0.0011589786895332423143079,0.0202846076915091794168333,0.0231419840410146196441055,0.999525372431147918206307,-0.0253150993139702532030988,0.00413673502801699399800128,10.6968666575087887338213,-0.103239067998373540424595,0.0321498048653276677355528,1.17188174651702148310051,6.49968573013855266395922,2.82544461004443459017921,0.547787913160723727301615,1156.93108146543704606302,1186.00639921195738679671,1166.8252661747658294189,1165.75252499889029422775,913.947885152855747037393,213.043195175941747265824,-410.93376997050620502705,-694.280839245174661300553,154.861885207113232354459
0.359999999999999986677324,-1.47832552537048722562929,-1.69482569106732494645939,-0.061420827128946642314844,0.0876394142474194309810898,0.0382777172302567192385681,-0.000426356917207006494170002,-0.00108821473749352729334938,0.020330849613533426983869,0.0231583449114093758991473,0.99952410911928013526051,-0.0274220546065759365750303,0.00558236850407824169995052,10.6913620498976555950321,-0.102448629894808934670536,0.0325525090145921333628642,1.17411383813737457693094,6.4995377008734145363178,2.82550969988547784339517,0.550727088824081167928171,1159.20158294259658759984,1186.61966986985817129607,1165.83112588769563444657,1164.37470507419743626087,876.856613009066791164514,272.528153453822369556292,-358.16422322532127964223,-384.811400868374789752124,154.867388667852509342993
0.36249999999999998889777,-2.04842565431743484083427,-1.38428234371606118102704,-0.0739722979939797936621559,0.0839473426134656613983864,0.0344815132988495268162588,-0.000802397626652596074499357,-0.00101239300908592439083578,0.0203901255727647404136782,0.0231651948664669850297404,0.999522797081310865330295,-0.0298495973737653644275447,0.00694108902717213704924859,10.6849183875685067590666,-0.101681970456362846810805,0.0329896803866822421746896,1.17633950737148151866052,6.49938557511178061076862,2.82556999229086214242557,0.553672074427907112692537,1161.31536453048238399788,1187.36903997922649978136,1165.03444505863922131539,1163.82846799454841857369,871.331982193304725115013,331.338691087966878967563,-283.069252008772082263022,-86.2838423375250584967944,154.873053997016910443563
0.364999999999999991118216,-2.68292006911492908471928,-1.00283986744953246272871,-0.0716128178549862992596786,0.0779691839938417008415428,0.0309871976222211228946257,-0.0013027349430259479654004,-0.00094256605896252023801124,0.0204615777357636183242384,0.023158673158186472013087,0.999521536060403281709341,-0.0325812371246309642747185,0.00791690771691920536223819,10.6774397528365376786041,-0.100932789237050610231528,0.0334376280962038821553683,1.17855972133805275703367,6.49923234960375761914975,2.82562900805270267312608,0.556621559318692615825341,1163.55824285356311520445,1188.276363325298007112,1164.41577962765177289839,1163.94328586250981061312,762.275262144611815529061,302.428323071489728590677,-161.421101975110872217556,130.033176303504546922341,154.880039937255332915811
0.367499999999999993338662,-3.14173010757738557785501,-0.695040075465097717533069,-0.0552157362781775171156617,0.0717134338721911318570434,0.0290704896907423016028105,-0.00160475195270612727704851,-0.000890814676863087144022268,0.0205415842097213009742607,0.0231423848731218684271482,0.999520307596317825193921,-0.0355463205456123046421801,0.00819199490189961854191836,10.6688359222399054004882,-0.10019017153217921189956,0.0338681608517876486796894,1.18077576909255221870865,6.49908136851187645532946,2.82569016185451582501287,0.55957507212919099792714,1165.12674084120544648613,1188.8811815945839498454,1164.22733954876366624376,1164.47863387606594187673,555.670963118790950829862,166.112817391149150125784,-3.94361519624908041237177,256.195739803433525594301,154.886018586195376656178
0.369999999999999995559108,-3.4830413433805569312085,-0.417884704392513683934851,-0.0271650447353977975151196,0.0639563142812776125323282,0.0282314636952765186939107,-0.00159556370532188762992321,-0.000862516938245564811910127,0.0206232797616935845108621,0.0231211648503794643672027,0.999519136834694954529823,-0.0386046839418111367714381,0.00759824719144733262687907,10.6590233372378975218453,-0.0994376717694929884716615,0.0342657903333652147370714,1.1829886522297807793791,6.49893439194538302672299,2.82575584940614055184938,0.562532719876478348730586,1166.33659766915707223234,1189.10692741225375357317,1164.39606155167052747856,1165.22426456152697937796,440.941648181341918188991,-36.2813249725604336504148,152.244794890384440577691,333.426549989098646165075,154.892161620667764054815
0.372499999999999997779554,-3.69630972908944510635365,-0.137970493364149127124563,0.0156760511186418115270325,0.0526099420777368653734385,0.0280024354839248541815255,-0.00142820034045550961661342,-0.000862199408880973908880785,0.0207070091282094519147261,0.0230992153189035695493025,0.99951791446700788412727,-0.0417700392317346472226269,0.00600227575064368745749732,10.6479280484235889758793,-0.0986783675259106513033558,0.0346146199254775618903146,1.18519712366882989940109,6.49879329836237484840922,2.825826557336700073364,0.565495258616950269292545,1167.33144908211215806659,1188.69977496972114749951,1164.98856352321558915719,1166.14576662601143652864,282.27978377344675209315,-284.960787735144322141423,273.060137498714311732328,324.212495694837059545534,154.899725513134399079718
0.375,-3.67120030688448517608435,0.0452135192343373973344889,0.057757491429542624772342,0.0417440164458078785680861,0.0281460505713930671245482,-0.00135928151137927242207704,-0.000885799017819210022899046,0.0207898011190196900510596,0.0230808738654047877758568,0.999516601712364116671949,-0.0449786394743974041188217,0.0034680783069048343181251,10.635487933020460360467,-0.0979091296487301504525291,0.0349168676307037365025288,1.1873991503423739768408,6.49865972350234155641147,2.82590343185253223268205,0.568461193411623821880596,1167.74799658802430712967,1187.68212347357803082559,1165.76136223916410017409,1166.84532704000116609677,72.4523226157997868313032,-549.953824331350460852263,348.381721414716309936921,256.117001989968912312179,154.906190780778160842601
0.377500000000000002220446,-3.41350215916726762444,0.17513061378681010760161,0.106147131842209682672795,0.0303926039259436869821585,0.028515700919761185344603,-0.00141644814952980851313624,-0.000925100539414508275283533,0.0208690935741155589311369,0.0230637629523098124095792,0.999515310613488972002472,-0.0481699912206892469357378,0.000168834050805907742720535,10.6216565468101542535351,-0.0971294776632613127143046,0.0351823987178501787487228,1.18959119625374953876928,6.49853424596064055407396,2.82598790411287037471766,0.571428750667136053920103,1167.69371069519115735602,1185.95000584806439292151,1166.73047213028917212796,1167.42635163596128222707,-141.709605550613446212083,-893.096477855805574108672,440.419228537575293103146,222.512547701125896537633,154.912825789934174736118
0.380000000000000004440892,-2.86220876309616034660621,0.271685245619609716527521,0.168292150947645324787771,0.0183290403647577010426417,0.0292093885844520208261432,-0.00146091500067916627188247,-0.000971795623103377938060976,0.0209442530688763485502424,0.0230497228523595699967164,0.999514018487723143735479,-0.0513176303539266756570392,-0.00370162528288087155914354,10.606407096390498168148,-0.0963438263542291534191619,0.0354217003010358216785747,1.19176780601626397526616,6.4984164902769743221711,2.82607992064462498760236,0.574398219954444178014796,1167.03944856027123933018,1183.21664108429899897601,1167.96345838185197862913,1167.95788977850679657422,-341.404404705690183163824,-1065.7046098130185782793,436.121607603217455562117,162.034320762677310767685,154.920984354160850671178
