t,ang acc x,ang acc y,ang acc z,ang vel x,ang vel y,ang vel z,quat x,quat y,quat z,quat w,acc x,acc y,acc z,vel x,vel y,vel z,pos x,pos y,pos z,mot 1,mot 2,mot 3,mot 4,dmot 1,dmot 2,dmot 3,dmot 4,vbat
0.0025000000000000000520417,1.31637445637504812978591,0.527883637888356904710463,-0.345394352662514281249173,-0.34786782205883803875679,0.237472272997849620512767,0.0110721094808184598173861,-0.0116557183118197165566654,0.000544508607234160928872724,-0.992193653856812685098987,-0.124164034222772681759217,0.125590733997550968448209,0.0255928212286164608046946,10.579073164154726427455,-0.16297781463242005939307,-0.154014972569561175985697,0.750807337266040542012036,3.64950226866654192647843,4.93173474042097215175318,0.238702762253442529738479,1204.40206082344116111926,1168.29003721041885910381,1197.43040981058584293351,1180.46096234569472471776,-376.197367621352896094322,224.789807296110666356981,-509.729045863332430599257,-34.113457520288648083806,151.381333003295821981737
0.00500000000000000010408341,1.22527528677517527633256,0.461675087594215494135597,-0.371109090736319258141407,-0.344581067535284779612681,0.238278452305276305933646,0.0107309767117336335440214,-0.0114026451588672278480985,0.000861638364888310504495494,-0.992195256503718869822706,-0.124169666779409770818177,0.119081941197787227748606,0.0266728656122137280926054,10.5959778590952709009798,-0.163726180028635759367006,-0.154359946024698935218566,0.752660627292627948392578,3.65003623669652865757485,4.9319969319295742238296,0.240579111407583867698889,1203.46156740438777887903,1168.8520117286591357697,1196.15608719592751185701,1180.37567870189400309755,-274.97989572575539796162,339.692917490265301694308,-571.25217622660795768752,18.3369898731598404140186,151.379174234807749144238
0.00749999999999999972244424,1.06066603925991898016434,0.373806505852283310620265,-0.425114623845395056545016,-0.342274951199884158725695,0.240199291808916859380929,0.00962365338917366489046579,-0.0111516935803195240545227,0.00118855429744428521716959,-0.992196337519582916009142,-0.124178788722723865145525,0.11263378695796313899713,0.0275555584287184573977214,10.6129471617505846126051,-0.164471682995539714156052,-0.154721811776149131834046,0.754518004084182680735182,3.6505691253845538035705,4.9322578139278423492442,0.242455447463877260538823,1203.02716134481238441367,1169.98850179787018532807,1194.5741489294528037135,1180.55264729506052390207,-115.012923237509312457405,587.018230664671136764809,-748.285993824310935451649,159.132305278581043239683,151.376814340924966018065
0.0100000000000000002081668,0.814192280292555858878245,0.202807518532356012563866,-0.491782669981035369666245,-0.339944929370328441375904,0.243430246029950753117177,0.00740766404614478894685714,-0.0108981918843311133271445,0.00152582441353611968776205,-0.992196867361635037596557,-0.124191760843476675657548,0.106155274247704711765294,0.0282349536128505274046319,10.6300276110271898488691,-0.165222037388096570920126,-0.155101275979491526335607,0.756382248023905967571068,3.65110124330854235452648,4.93251688821315070754281,0.244332039995162397794104,1202.88650278820023231674,1171.78710288198249145353,1192.41465722680595717975,1181.17134022828690831375,-13.8711344453895399908561,689.287331771356434728659,-801.980643391425360277935,292.86455626202035773531,151.373759606202213490178
0.0125000000000000006938894,0.589327612233661035645582,-0.00311667146622163215852197,-0.53288316138746882888455,-0.338174387566477274713606,0.245850199919970840989336,0.00514079670418122764569135,-0.0106438152432821071802227,0.00187432635782835716603545,-0.992196928449268655825222,-0.124207449714060308432195,0.0996929385458666106334391,0.0287158772844308823879445,10.6472696280930652079633,-0.165975686108295578113925,-0.155497140136884315353427,0.758258380016146871227534,3.65163324557745916365548,4.9327740912692243924198,0.246209606571953398823638,1202.95780567258543669595,1173.43493845672696807014,1190.56424571249567634368,1182.01697007637062597496,46.1464212251485221827352,635.291050781961644133844,-693.889822224218846713484,384.845959848189579588507,151.371035382396286195217
0.0149999999999999994448885,0.367647244367592773706122,-0.250565650385801808042174,-0.555094844030531664458294,-0.336862218515545985830784,0.246490182230900745086188,0.0031552206848137649697339,-0.01038651835009861065795,0.00223639409390743223310372,-0.992196623275095945793112,-0.124224885360415787660671,0.0932220246941145996855127,0.0289600725065075198516595,10.6647241152359306681774,-0.166735983042128943498739,-0.155910281393289024132187,0.76014900825660369765302,3.65216622927993617153675,4.93303057698208746728596,0.248090801537346916649796,1203.11723489432597489213,1174.96355813589229910576,1188.94520811568486351462,1183.09557002752785592747,74.2851730550228097627041,586.11780406613422655937,-588.141697827359053007967,486.390587367986768185801,151.368134326333233730111
0.0175000000000000016653345,0.13508325908645416046916,-0.53472168105259865189538,-0.573602786310628998123207,-0.336130318521247306584598,0.244831093772986146950288,0.00150701398140637410870413,-0.0101216813764262707903141,0.00261124082111726524280115,-0.992196080448581207988923,-0.124243199947172325292577,0.086658273253114467826741,0.0289835463403943227600479,10.6824375702947804711584,-0.167510346650569436066647,-0.156336454023561499671047,0.762055547669834409951761,3.6527023752158083169661,4.933287484950856338628,0.24997925851454000367724,1203.32923153786055081582,1176.36552747705763977137,1187.6235372233588805102,1184.44892301321056038432,70.8240284192015536746112,407.827612633855039803166,-339.518757204496012036543,473.150641334450369868136,151.364458676362261257964
0.0200000000000000004163336,-0.00767148573436387138518855,-0.712953786958711255294929,-0.597275569809298523260566,-0.335892803081718538393829,0.242147382542795552851089,0.000695748126609393806839277,-0.00984053282002094603653219,0.00299872987826015893406129,-0.992195421912498209948694,-0.124261960537826704475961,0.0798340784076639331523495,0.028770836213856940122291,10.7004489862109792852607,-0.168312027533854380312306,-0.156772481804435009911103,0.763976649660792261897768,3.65324257148518860560671,4.9335459585510177404899,0.251877472068474106414726,1203.47135503642198273155,1177.002696199061574589,1187.24761432966238317022,1185.46132323420010834525,36.1128270812514742260646,119.452836297250598818209,24.5199525738371555405593,350.263052836999293049303,151.361241073352147168407
0.0224999999999999991673327,-0.06900920246343522634902,-0.787336413370150256518798,-0.642772315951459560778858,-0.335730226387387253872419,0.238970435204120867922484,0.000185381482593864588791222,-0.00953650952966852982761736,0.00339075324288424032048717,-0.992195321381931449877811,-0.124276337688725049823724,0.0726111895343024282833966,0.0284749107954751917715086,10.7187849611922683124021,-0.169153915466929760658132,-0.157200641418562436779638,0.765913386766158166274465,3.65378644103108918272937,4.93380718917648408705645,0.253787205134088700297923,1203.50979567326680808037,1176.96279165854389248125,1187.74613698622806623462,1186.20023827739555599692,-22.6328322795325185268211,-180.204777234257534246353,409.440896684145570816327,247.553819996983236251253,151.357872017891168070491
0.0250000000000000013877788,-0.0118736522276035837142327,-0.733754863159331693900356,-0.721671550003641470993898,-0.336130440042141431788991,0.235279914997864381120962,-0.0005355597456650918603005,-0.00921332915364881169240086,0.00378132856946067482870055,-0.992196155779011990105687,-0.124283005869616242078379,0.0650790893326631536552895,0.0282234668971641927681659,10.7374582272742333799442,-0.170032734297318133265264,-0.157604957830446534838842,0.767870380205329494671673,3.65433329125118344649081,4.93407170207026979369402,0.255707951162909286058067,1203.35819087502432012116,1176.10167231289028677566,1189.29481881308311130852,1186.69909233418502481072,-96.9547352477093085099114,-441.027279307672756658576,691.685329216261266083166,124.506483447566978384202,151.35366464355786320084
0.0275000000000000001387779,0.171892213837384205676884,-0.571857162150862685656705,-0.792949011151741323111253,-0.337085672774609601543006,0.232834301258503600928762,-0.00157473201199411915081339,-0.00887787063031307034643991,0.00416753768456456282626155,-0.992198036329246191300513,-0.124280503375840165047883,0.0574075919176039450864124,0.0280798833756686072593567,10.7564655397546822257482,-0.17093960247327158463726,-0.157974798953201850393313,0.769853793360057880867942,3.6548820945647779723231,4.93433859676945285599459,0.257636776867623040754296,1203.02502199702826146677,1174.75765526200552812952,1191.20456363230937313347,1186.82277069463339103095,-180.665229929945866160779,-642.834149311511623636761,827.989621626148164068582,12.9399249923153618624383,151.350029256891133400131
0.029999999999999998889777,0.518466459789288847126443,-0.307911028868123937130008,-0.837533769682191397976112,-0.338060884348558965406539,0.231500482268266360996734,-0.00340793803915915910138223,-0.00853969100314815911245692,0.00454711090367556063779331,-0.992200565450656934984863,-0.124271274484611712884963,0.04983040947085166927355,0.0280934862100282317642908,10.7757849051742802259923,-0.171860577825839244692219,-0.158302673724754067174914,0.77187241704894238303325,3.65543182285831891320527,4.93460540676559666906087,0.25957050203306453184382,1202.45486472537459121668,1172.88750156633273036277,1193.43476692121384985512,1186.76379195914660158451,-267.019012773289375672903,-812.811862046737473974645,887.28650681105114017555,-28.6604054909730550093627,151.346269249095229270097
0.032500000000000001110223,0.998406536848525871796767,0.0183359753055018816214616,-0.829783215869157930733024,-0.338188415714844425874475,0.231169733206976729666948,-0.00598898558781374781845308,-0.00820230016469749440011228,0.00491684639543896444963123,-0.992203313976135481411234,-0.124258527851587294299485,0.0424551823954523108173298,0.0283121030103591631021942,10.7953729300030811799616,-0.172791276800856763440351,-0.158582703254416201854582,0.773934947755056112939087,3.65598117155953117318745,4.9348700619764978014814,0.261506627060655139072054,1201.68992693316181430419,1170.69359595177184019121,1195.64099616636462997121,1186.67946866717852572037,-350.009125298310834750737,-930.867323881874767721456,806.33928730612683466461,-9.51479911063869643328417,151.342413145001358998343
0.0350000000000000033306691,1.6096664201926327297798,0.390861887719852363343165,-0.726062824682668139786301,-0.336231456458128796782603,0.231942449038270326333588,-0.00915540615201886759377814,-0.00786583812132596836563803,0.00527379267678868435959005,-0.992206401959071282448122,-0.12424136176514431750828,0.0353239355975604393811373,0.0287670553150818769649888,10.8151632148747740558292,-0.17373406334386681804105,-0.158810137786664751224919,0.77605035443765835179164,3.65652878943883052897945,4.93513119295869717717551,0.263442914146371942596403,1200.70481909888303562184,1168.23316494692335254513,1197.46646335774448743905,1186.71621796359340805793,-478.624112667876261184574,-1119.9961369842189924384,638.220264463280159361602,71.534775919326463622383,151.338450029022709486526
0.0374999999999999986122212,2.42805241692432760558518,0.857486500188405331712715,-0.467667202288538641496984,-0.330936133788534814215154,0.233815833841585662966622,-0.0127299849243367665940774,-0.00752538473120390686427195,0.00561794134330796408188791,-0.992210053340701780832944,-0.12421830436049467738524,0.0283821620428347659581547,0.0294117744735370306718991,10.8350659737183256936532,-0.174698879197986989275648,-0.1589867932449150755847,0.778225760792335408133624,3.65707449754403635111544,4.93538823918177449456834,0.265378150410443047757525,1199.29680636982243413513,1165.09361526685074750276,1198.83209748868102906272,1187.03714254677515782532,-547.811376721120041111135,-1168.44662469829995643522,324.10517044768329242288,169.68602340684819296257,151.333581917170533870376
0.0400000000000000008326673,3.12097466458772387909448,1.2403382359018533254158,-0.143998072897333795339136,-0.324246205649487473365866,0.235945854113171898935875,-0.015092334955879693758618,-0.00717229086034595723908591,0.00595280007998755418541226,-0.992214644294061698381881,-0.124186800066462932345956,0.0215074200739398674331326,0.0301143466050532992994704,10.8549687420402385384932,-0.175701024986132298133512,-0.159121095661472616855647,0.7804658143097353839579,3.65761813360884335821765,4.93564205522912402557267,0.267313552809892329698016,1197.96576221527743655315,1162.39093182343185617356,1199.08698920998290304851,1187.56464808062764859642,-554.072007845843018003507,-1079.30940600522171735065,-103.650483457613432847211,253.645183963908266377985,151.329439635356919779952
0.0425000000000000030531133,3.75230779565985450574317,1.58833338277475966116015,0.262043957592619058960537,-0.315670067470672499609918,0.238770974901752197627758,-0.0164905911089150356008126,-0.00679930264868894990160086,0.00627834321245852085974226,-0.992220185911506735720877,-0.124147323231942385834969,0.0145979127066664243761451,0.0308231060770583070729245,10.8747376742087400458558,-0.176752988909376157478093,-0.159217298626938535965891,0.78277556946314430508238,3.65816012206799623385223,4.93589313755860459309588,0.269250076464144005861101,1196.52644633059321677138,1159.69706823682463436853,1198.31384507139296147216,1188.30536846659470029408,-639.549739134600145007425,-1146.76008673327555698052,-572.801026444631474987546,345.165943035181214781915,151.325218101786077795623
0.0449999999999999983346655,4.35912331546502329615578,1.922971591500334920255,0.776360238834274518637812,-0.303786944302391170857902,0.243387326227535116807132,-0.0160388023887646918863581,-0.00641049818490349587740695,0.00659297201446219262310766,-0.992226046430960240130048,-0.124104911230869904836815,0.00779069189893816238523527,0.0315524604216910614651326,10.8942224787875598934761,-0.177847729982619051636306,-0.159276772932515409131327,0.78516299237810538436122,3.65870188974093180078739,4.93614174756600565530107,0.271188581102911330233951,1194.76801351960443753342,1156.65713138976548179926,1196.22298407775974737888,1189.29047779580355381768,-633.249904085460343594605,-1045.59600210755024818354,-938.69487336742213301477,351.454589724017012031254,151.320071485915576658954
0.0475000000000000005551115,4.68483826465324515453403,2.09495304270736371066164,1.16055824465044721272022,-0.292583274748775434837,0.248602253292684344243568,-0.0129445027701930188285262,-0.00601687062102813485092723,0.00689288272847688246458553,-0.992231364638058388472075,-0.124066175552397905956781,0.00136529772335970689400853,0.0323866844055891306419781,10.913261030883123936519,-0.178966161344351171180733,-0.159296482612879042317644,0.787636797986533077065019,3.65924562907181538662371,4.93638788552163454426136,0.273131532710011226683378,1193.36019681016591675871,1154.46908822628688540135,1193.62037070455585308082,1190.06264141521478450159,-530.947046267237510619452,-754.869523224396516525303,-1176.17988900524210293952,271.935188880206396788708,151.315723127273798809256
0.0500000000000000027755576,4.76473743107165947918702,2.11173942142659987197817,1.41876993501711856637826,-0.279814753595980736378124,0.255212471177407529410175,-0.00688978218273162204554616,-0.00562663406762096453272992,0.00717740338643047329214575,-0.992235638340374648258546,-0.124034858985227411376506,-0.00445155266125507598218292,0.0333401408827034423376645,10.9316847169518140958644,-0.180092550330627293453389,-0.159277342949828121243527,0.79020076156295115943351,3.65979263586841918609593,4.93663186883475635369223,0.27508156479527295923404,1192.11327828826824770658,1152.88278377364349580603,1190.34208463273353117984,1190.65015374020458693849,-492.226807945007976741181,-513.362549427847852712148,-1529.89332683282623293053,196.369067652904135456993,151.311322189201149512883
0.0524999999999999980571097,4.52873824309855255165758,1.92255931569140448011979,1.53011030276915205305954,-0.263535592488457592885709,0.263721080459047352295698,0.0015401724311192670473919,-0.00524723521929672687830193,0.00744380882151208546348986,-0.992238748073112963865583,-0.124011834293999451128698,-0.00945875148198768722629382,0.03447494074973321553923,10.9493234298838952867072,-0.181212627342240889527503,-0.159215683759001080943563,0.792855753584194911098848,3.66034346507108265811326,4.93687386451218479521685,0.277040756003258836770442,1190.89906277044087801187,1151.90227547914764727466,1185.97090407039172532677,1191.04448675347930475255,-388.863323746045523421344,-190.829192658793630243963,-1615.2878521517332046642,87.3787496982459259697862,151.305990804154276929694
0.0550000000000000002775558,4.04846215218102223332153,1.59566742851439080652654,1.46438509607784062005464,-0.250661870887825377618441,0.270216777943850627874411,0.00721535930251724060696672,-0.00488385225843538002543642,0.0076895707791712879924928,-0.99224057798077802683423,-0.123998056915879117934054,-0.013510329550754332506024,0.0358471911653022584642869,10.9660114247681885757402,-0.182314949080659816083028,-0.159108136926918553033516,0.795598680456790163795233,3.6608966246783731790515,4.93711357796838878897461,0.279010810598379455083062,1190.16896166953802094213,1151.92863781034952808113,1182.26564537197486970399,1191.08704748869581635518,-227.994143440809949652248,174.347446848969269694862,-1416.02996304709313335479,-40.5054380394176050117494,151.301513549594460528169
0.0575000000000000024980018,3.30745573501313394615408,1.13695694614552400558694,1.28914205220670941010042,-0.240070476254739817445483,0.27481100943914960055281,0.0102556907664356853487897,-0.00453550735126448216483208,0.00791422675716999153572306,-0.992240655697786966271678,-0.123997465930162295566497,-0.016598213793001109772618,0.037454310686922023809764,10.981592322211250589703,-0.18339613894632744717228,-0.158956459468456184902507,0.798420809963828248534412,3.6614510549794667682022,4.93735020378326883161435,0.280992811349358384553909,1189.75909205323682726885,1152.77401271339249433368,1178.89075425515625283879,1190.84195956328221654985,-110.215042136769682201702,445.0024664763989221683,-1237.26934971891819259326,-140.301747769081032402028,151.297008745180534106112
0.059999999999999997779554,2.40374386276015172825282,0.625054811087021988669221,1.07749255140597965940685,-0.231983143871428015847513,0.277285136188491765363295,0.0113642512256268927300917,-0.00420095853177994416061125,0.00812211526844089544419081,-0.992239154709862569703205,-0.124008512053519009965541,-0.0187158552459805449519337,0.039193039762343576115633,10.9959251463590401698411,-0.184453887496324325789843,-0.158767522806610300589725,0.801310042237992514735367,3.66200686741292535941739,4.93758409645452811531641,0.282988768805621293545016,1189.61788645885417281534,1154.15365014273152155511,1176.07929862338028215163,1190.38553874985041147738,5.23376067239951492382488,629.490144964575279118435,-931.386395765003271662863,-224.204542684901866778091,151.292486567881525161283
0.0625,1.39169756116735321427313,0.129552313034430877092262,0.872981206584709457096949,-0.227183341687189677138292,0.27717564062727267915065,0.0111388643029292477154568,-0.00387203508520244125620802,0.0083207670369234345425502,-0.992236507298227654594314,-0.124027572896085624964968,-0.0200102014163535124602333,0.0408741746436679515008805,11.0088867043122498046159,-0.185496921209034104638391,-0.158553342045239908930654,0.804249469751096790481881,3.66256431740789922812951,4.93781599112320179756352,0.284999041292888111165382,1189.78526085659882483014,1155.92146343821536902396,1174.23382227633123875421,1189.72093684985770778439,136.554546416982589107647,796.50677460654083006375,-544.873875567372579098446,-326.148928350857829627785,151.287949287128242303879
0.065000000000000002220446,0.179219486845076853009928,-0.350143612663009751173604,0.659171000776487825412175,-0.225520020979215279899321,0.274511598725936778464529,0.0112386116357812756300083,-0.0035441300269341735780515,0.00851938093327915708929954,-0.992232923824318824301827,-0.124052530078654785206105,-0.0205591189384750350210851,0.0422826025745503958352955,11.0203755462668961939698,-0.186527631315792502553208,-0.158328020373526417996501,0.807222983138609406772446,3.663123699086113127521,4.93804669870997514635746,0.287022319696916772269191,1190.30065919093908632931,1158.13618401576422911603,1173.3549292455434169824,1188.75479410809612090816,232.722635982372395346829,781.855516446011506559444,-95.4754529424007216675818,-370.245738923085468741192,151.28249367816758308436
0.0675000000000000044408921,-0.7374370899791428124459,-0.604534609972463887750393,0.494224850120386804963601,-0.227589175525219289397683,0.270876509921856911677907,0.0125626326852999459227078,-0.0032144343419398127906228,0.00872916355004345334567262,-0.992228492269330852870723,-0.124082016001379150105244,-0.0204088141119569549397639,0.043165082924791500773587,11.0303130172776455708572,-0.187545063099682995932938,-0.158108512822617008897197,0.810215406094303647321908,3.66368497231542944447824,4.93827730767366279707176,0.289057596475488176590574,1190.94887403651068780164,1159.83074102044542996737,1173.75644501161923471955,1187.86970815524227873539,292.131672418372261290642,607.776626133272088736703,367.502859038995325136057,-354.338382036121060991718,151.277942407351957854189
0.0700000000000000066613381,-1.46362484410268267609467,-0.686176993522523259727564,0.312196899211329148560168,-0.232457927902330135916387,0.267142664902413506933243,0.0148858831128359167528252,-0.00288070520095667220727975,0.00895599521467230555438199,-0.992223500335563612928524,-0.124113382346489428686986,-0.0196201087266259233121701,0.0433882176970572103202883,11.0386415454509894118473,-0.188549018705474635826391,-0.157902566137060856865659,0.813214686038004397339307,3.66424777063479423233616,4.93850851938986945555143,0.291102538942035748981141,1191.76131755303094905685,1161.17506714643059240188,1175.19244354073839531338,1186.9831021979155138979,378.405047232900699327729,490.165319250037100573536,805.161376250090711437224,-370.283455045637992952834,151.273390165014376407271
0.0724999999999999950039964,-2.04519982898632513013126,-0.608158592877623638273121,0.0518262641148871799900988,-0.240163298148937581766305,0.263972018380784601010447,0.0173638136622306198109111,-0.0025405208074308384402773,0.00919901204657122550933934,-0.992218377001644835644356,-0.124143299270057586025651,-0.0182887433552699762984162,0.0429682428958242379479771,11.0453231447704016687794,-0.189541400324193892723557,-0.157706994441667330830725,0.816212379373814744809579,3.66481163196090387046411,4.93874006991557124024439,0.293154875604102693742448,1192.84089927267518760345,1162.28156761669561092276,1177.78225189286968088709,1186.01829088001409218123,399.972266300756757573254,321.815613313311303045339,1035.01309965959285364079,-323.210840783486389682366,151.267930200926883799184
0.0749999999999999972244424,-2.26798886648106234886768,-0.436500176226040592641908,-0.195114968223155327287088,-0.247237508118327259376557,0.262813380297804266572115,0.018341251069270387424881,-0.00219252826812134198053439,0.00945414866827966847429021,-0.992213899803590759773897,-0.124165828694541388599326,-0.0165072338051085176768851,0.0419982950915488428833555,11.0503386179436358105477,-0.190524047743359403739305,-0.157512617621982375926137,0.819203310394740702449212,3.66537637440226315987957,4.93897165356258849300275,0.295213035084588570899911,1193.76117888453472914989,1162.78414521299714579072,1180.36750903903634934977,1185.36704799399808507587,358.299410399513021729945,129.233227547683668490208,1053.26611832206162944203,-215.338844224151927164712,151.263384765479116822462
0.0774999999999999994448885,-2.22915081014376292856127,-0.209613264601427762290342,-0.444125454606703440330051,-0.254009597325072777884714,0.263079450975424400382963,0.0178649380498332108202497,-0.00183327384088700917619263,0.00971901379976530463422613,-0.992210451177899299679552,-0.124178096866787338048432,-0.0144224562052517324417522,0.0405321114369605883798187,11.0536859359763468546589,-0.191501129060828612082901,-0.157315295370119928586305,0.822182731455203708037516,3.66594168273978349148479,4.9392027383091487990896,0.297276589661875090264687,1194.63239632467275441741,1162.92773375443402983365,1183.04858248447999358177,1184.94159665889333155064,362.1302142296823376455,10.9573637470475571120687,1135.85763676423903234536,-126.548550021152436784178,151.258846504773828200996
0.0800000000000000016653345,-1.92687765478937178542651,0.074180371061402586296829,-0.696502537238131047558909,-0.261140267421859029184361,0.264381570798519816012373,0.015726324558257828711838,-0.00146215811774532181664676,0.00999022346383624665344669,-0.992207844480791578689605,-0.124181805907766978913642,-0.012134064278673292736066,0.0386567582615019028624559,11.0553782916288643178859,-0.192471104322254338292453,-0.15711150342230728593762,0.825148736745068611675435,3.66650719928547053072521,4.93943177759814311400532,0.299345617239587136193535,1195.57182995568314254342,1162.83893203173238362069,1186.04679722285754905897,1184.73430524389232232352,324.840651105978110990691,-49.0181491209113602280922,1029.06355738195907179033,-24.9330761520468300318498,151.253411876043628581101
0.0825000000000000038857806,-1.51233997130316577539588,0.298230151399123732947061,-0.833182892556669330019758,-0.266105676722211637041937,0.265504701235072693155104,0.0129378294680811897765516,-0.00108182062589419784523481,0.0102656133342623554632889,-0.992205732574961585257256,-0.124179813358000448730856,-0.00967749519803647040294692,0.0364471374414604559754949,11.0554424468803613734735,-0.193426536312714780763145,-0.15690063953800539864325,0.828101476976181527511756,3.6670725388170692937706,4.93965695575491459123896,0.30141934685077914624074,1196.25659958020264639345,1162.68264300882947281934,1188.1939002713897934882,1184.8169312781330972939,254.675112611039139665081,-47.6695315629057887463205,762.642159067853981468943,81.5227305121424450362611,151.248894742464159435258
0.0850000000000000061062266,-1.00339732390874147860416,0.499561488230559236356498,-0.863532905533937800157673,-0.269385725842134382546078,0.266137661224252086711317,0.00954686432046455979438804,-0.000696781828515519586868254,0.0105427494291371152967951,-0.992203749031017490089823,-0.124175160480426205467097,-0.00705610408005939715447852,0.0339959807839957106612161,11.0539163992456686003152,-0.194356795703445828227274,-0.156682361640914147304926,0.83104256639870976997031,3.66763820445807198211696,4.93987778411151712276705,0.303497984422349986743939,1196.84520551873833937861,1162.6005843739178544638,1189.86000801819682237692,1185.14191889645303490397,219.644910938313643100628,-1.26603073927071707593939,579.9807030531604823409,165.314237032407476135631,151.244392731643330307634
0.0875000000000000083266727,-0.479093400703052452183073,0.67779684563678799236186,-0.797690630191695171369304,-0.270665606960337201680744,0.266896853003634360046448,0.00613297870589705595295582,-0.000314780558375544550556158,0.0108214878229388813957179,-0.992201604074571585911713,-0.124170080845951311121489,-0.00420284904247698876122996,0.0313620079834577986099831,11.0508486212825705052865,-0.19524558211208958846683,-0.156459864508719709297324,0.833974540296818500628717,3.66820522089197131876404,4.94009449221739860291791,0.305582537496677075772311,1197.35482413489421560371,1162.67631285513311922841,1191.09380378665559874207,1185.64350246329513538512,181.727063992684975346492,81.8034844066916519977894,391.321940702619770036108,238.739820967385185213061,151.239905620389691875971
0.0899999999999999966693309,-0.0102746090361913733346455,0.816179018028296288100876,-0.627134401128940588421301,-0.269494238643503747354657,0.268630602999786194384768,0.00330413452029839401630218,5.87463516343821035275291e-05,0.0111045311483980498751256,-0.992198942557503626993309,-0.124167127219470901922094,-0.00109843991353547609790553,0.0285423452101481733844679,11.0462963958866087210708,-0.196079709694806952891,-0.156242121539472117452974,0.83689800039030659561945,3.66877438186911541961877,4.94030591401476204538312,0.307674116869776748117715,1197.75384083870176255004,1163.00960179595131194219,1191.81661772170991753228,1186.3356180012899585563,144.246511796973493346741,209.63006051079031522022,212.971800125342667797668,346.587624914310026724706,151.235439533422379554395
0.092499999999999998889777,0.415959406418868637977937,0.914621578242142740933218,-0.340457119156116594371753,-0.266454295626540327290854,0.271919333817083108684187,0.0011672916083414295197046,0.000419023666515935735033677,0.0113919588594887846028092,-0.992195383474392622602522,-0.124169321903514803806523,0.00225185649554712763453779,0.0255964278924135646420268,11.0403246900633895677402,-0.196847836564708777995492,-0.156034236711545565290393,0.839813517042016899338819,3.66934582385404883808633,4.94051130290319129301224,0.309773839529594252617528,1198.07605669387908164936,1163.72446315768706881499,1192.15866278728231009154,1187.37644058786668210814,90.3830286567880705206335,308.485769548951509477774,53.1674670410665797248839,417.571376042723898081022,151.230108764721364877914
0.095000000000000001110223,0.631190222326862726553998,0.928894295761325317073442,-0.074028559087358405954582,-0.263672752700560453220646,0.275099351606051978347267,0.000597595134866441826324013,0.000760549809482275059567546,0.011683368746242478800057,-0.992190813480860245299198,-0.124177602458283298236807,0.00585818976457586071404648,0.0226019409354860228988926,11.0330067183464493041356,-0.197538890312082854316955,-0.155839206484591236145931,0.842721623293795518705451,3.66991861892429582781006,4.9407107009282009713047,0.311882292618278933460374,1198.20575598198570332897,1164.55203064369607091066,1192.08245505691525067959,1188.42347488150358003622,28.1419653700140521834783,365.415911573108701304591,-83.7214389756808685660872,457.769639711386446379038,151.225693468007165165545
0.0975000000000000033306691,0.699694211163366830419363,0.873045889569166400079325,0.166926972870632239764888,-0.261332824893650839115367,0.277979884111772657107053,0.00128647485193091330908655,0.00108472910889498915139317,0.0119781269044179107530201,-0.992185846521893899385702,-0.124187072888939098458394,0.00958427758136154439583265,0.0196268364621143831527661,11.0244233755451706002759,-0.198156309638440858433839,-0.155657865296079250816419,0.845619559395407005553125,3.67049115324013808248083,4.94090400675451846268516,0.313999284643742548883694,1198.21676652072915203462,1165.55154271555261402682,1191.74005559240390539344,1189.66528878642361632956,-7.42152265643198294498006,460.480524467174802794034,-187.952765566524078622024,590.348398596005949912069,151.221309856921294567655
0.100000000000000005551115,0.634580432783742987012943,0.743130163940485477525044,0.369423268852560271469088,-0.259209845424216933640338,0.28070788992920225890515,0.00342204666023091484683416,0.00139575552420769660733058,0.0122788930443508432360789,-0.992181300027208057379369,-0.124190879352100436161521,0.0132493256666489089834471,0.0166601195746510777340177,11.0146648419357724435486,-0.198709631664192865052598,-0.155494972534467895686205,0.848502206999499186679259,3.67106262255290571872024,4.94109251659306192294707,0.316124006734618712144425,1198.16864836870354338316,1166.85443326603194691415,1191.14269122908262943383,1191.37521687448361262796,-13.6228617788219583673026,481.590943791843073995551,-235.847287914338977543594,659.258429650162156576698,151.216089763771350362731
0.102500000000000007771561,0.479986709314484727428862,0.603231626679322396888949,0.43605365528910700056997,-0.257992935062014761005145,0.282309288999998575508954,0.00601226252768602073550674,0.00170076791771799681191046,0.0125849884480492089228187,-0.992177557526621622940866,-0.124185919371020636603475,0.0166078394506575660605208,0.0137529027226245686987838,11.0038302050973566537095,-0.199214620920139168225305,-0.155349928862446862165569,0.851363784207378571089464,3.67163259767194372074073,4.94127841215078333902966,0.318256474239449638208299,1198.14865221183504218061,1167.95949743451183167053,1190.56081915283220951096,1192.96158093467442995461,10.9043574032512182725441,432.912321721006151165057,-237.915534699368890869664,659.101320028095301495341,151.211775417001064170108
0.104999999999999996114219,0.247878972281074250183508,0.457808078979705990185778,0.384107239263654753891331,-0.257400135604483271123399,0.283118195569550756829358,0.00870891798938871683488649,0.00200808333287546582346383,0.0128945028557671467761558,-0.992174881980903755618328,-0.124170160242382171533748,0.0193985653094675067342756,0.0109743355948943022148967,10.9920286160264968344791,-0.19969061947554617164613,-0.155218547034428666631101,0.854198082808976355551067,3.67220010405686503318634,4.94146373725193210901807,0.320395797081405198092341,1198.22317015571979936794,1169.01899487463697369094,1189.95311355558578725322,1194.67072347462408288266,61.2605282869027405467932,445.837878939210838780127,-263.45440948498486477547,766.741753866246313009469,151.207500283111187400209
0.107499999999999998334665,-0.0937437725680416028550823,0.303611168336417658331072,0.205254171504237442613672,-0.257466938145367363333094,0.283238585183269886424995,0.011097840816165183489006,0.0023198591750376398347433,0.013201682992856291279371,-0.992172822399939202675512,-0.124147709879186926573702,0.0214982067526823944492165,0.00848488513302608077237821,10.9793801048300032618954,-0.200146920212907197811347,-0.15508907600835947215856,0.8570022480045459412068,3.67276537828074456371041,4.94164978626077644463521,0.322540779995663107193593,1198.45495485326955531491,1170.18868682920788160118,1189.24354710540728774504,1196.79528970400565413001,103.991478431817000682713,409.167745657213913546002,-251.339196589105767998262,779.651503549757080691052,151.202417319136486639763
0.110000000000000000555112,-0.41541864765537112047511,0.202700632334123637123824,-0.00492323245378414875439432,-0.258023785732572730200474,0.282896672522357561785356,0.0120345023384437199709396,0.00264135359381455258123705,0.0135026171555237776283898,-0.992170751138248041556267,-0.124123832935803313226586,0.0227388975494098866114712,0.00638474907576487560323386,10.9660156472659888748922,-0.200598341712252964397223,-0.154951937975399189895143,0.859771131245913755591914,3.67332898663160989372045,4.94183780984813836312242,0.324692019796427477906775,1198.74312754787888479768,1171.06483360292304496397,1188.69641757264025727636,1198.56898099237287169672,120.175703980885259625211,332.184155296817777980323,-203.995951970136786712828,695.113834938728700763022,151.19822182282169364953
0.112500000000000002775558,-0.759049456523475551961155,0.128420924707456918234527,-0.219633395416507143371732,-0.259074376411598139569037,0.282612978213875543076483,0.0115325620974627493509068,0.00298138962562338565021047,0.0137956300378923295973932,-0.99216902456580491342919,-0.124095643517182607773464,0.022904832415694964531383,0.00470289141412746219961249,10.952077140839891811197,-0.201068347440536254744359,-0.154797251356640463981762,0.86249681905623620803425,3.6738908134965182483711,4.94202990322435464776163,0.326851567792963704217613,1199.05583337317398218147,1171.84960760569197191217,1188.22356734555660295882,1200.270858878699300476,115.399814782494914311428,304.029373709226717892307,-172.112478420649352983673,658.227750767582051594218,151.194068893086637217493
0.115000000000000004996004,-1.10649405436524017609656,0.0643381640359258766270756,-0.390563502314738630882829,-0.260706095204015830812949,0.282661941549974593534955,0.00963948708467439289993006,0.00334834991569091808619185,0.0140835555363244858961824,-0.992168276148512218171049,-0.124057621080472565977537,0.0218243316173716978001451,0.00335713156559550029989225,10.9377175101523125277936,-0.201579753535888001048093,-0.15462088814417071502838,0.865169751197112257834476,3.67445110074689518242508,4.94222826229555067811816,0.329021965860238185808129,1199.32012662179135986662,1172.58498047146917997452,1187.8358551805370098009,1201.86011974621078479686,80.4081316036899096388879,291.511855791850109653751,-125.710423197642626291781,599.583536374347545461205,151.189951457648618315943
0.11750000000000000721645,-1.43419237091990492416471,-0.00822927676633585652998804,-0.461935736099696070411369,-0.263347310342052109977118,0.283135297308678868244414,0.00666522481261370546706813,0.00374627708714764078024029,0.0143713993543633754279565,-0.992168569986169202046256,-0.124008753768527921201859,0.0194447472467026288844849,0.0022155619168128179441446,10.9230997623324572742831,-0.202145999038855300744544,-0.154423633998576753656451,0.867781306492732551483016,3.6750103797911153336031,4.94243267396862417939474,0.331203686766251337303402,1199.45787403119243208494,1173.30716688465122388152,1187.59501522956838925893,1203.26877656057104104548,24.0080269916689310605307,326.505288160888710535801,-54.1348086890139796878429,574.87579332901191264682,151.185876462612867499047
0.119999999999999995559108,-1.76390114906892514490266,-0.12896719182340488085714,-0.403483415450117233191918,-0.26791524633178365188968,0.283838018425614457829198,0.00324556185065091266223058,0.00417174860106087411204534,0.014665343675510960491648,-0.992169145707464394945418,-0.123954802993574725311632,0.0158945815963761755140737,0.0011279160308349661656635,10.9083957006661265154435,-0.20276481553982314554041,-0.154210931807672646520757,0.870325973135847141826105,3.67556896245206887741119,4.94264030465942116876477,0.333396029486101475036719,1199.440166756749704291,1174.21750691227362040081,1187.56518113709194039984,1204.73449871285583867575,-32.3919536270751180495608,345.205222864524955639354,48.8012693818746825513699,504.082053733555824237555,151.181034157173371568206
0.122499999999999997779554,-1.95296736211025456775303,-0.266852370550617168376561,-0.239810961194784511008038,-0.272705948597248504228219,0.284230023961478173166739,0.0012061094282942456858837,0.00461366350945921054743648,0.0149654061515341850474581,-0.992169009864729001257899,-0.123904291904908717136813,0.0114668160014491649079105,8.7299620736190630676532e-05,10.8937832609766545033381,-0.203420161685609529600427,-0.153979462147938839233774,0.872803942088883455419079,3.67612623180544195733432,4.94284660761162353281861,0.335598097665132100164698,1199.29591426305705681443,1175.03319299897384553333,1187.83902157647776220983,1205.78918682923881533497,-67.4145549837248267976975,331.464176999815833823959,189.932962142847657105449,397.247248026542024490482,151.177036987123557310042
0.125,-2.01711946089066396226031,-0.441106412095278010987442,0.0116696447026066602026262,-0.278109348607422535160083,0.284070414057055631307236,0.000359110505487448823484786,0.00505900442062023371347923,0.015272534842398263060792,-0.992167834519462998876804,-0.123859819240588017730254,0.00651381992862361258733728,-0.000936231086896152642218283,10.8794441639919661213298,-0.204092846282308115757331,-0.153727484611677511772143,0.875217307842156677644141,3.67668175393173868314989,4.94304909608822828914754,0.337808696232951288784818,1199.10309398183107987279,1175.87482779727270099102,1188.51484594780617953802,1206.72073495298855050351,-66.8741744977523353554716,350.167465713911667535285,401.35940113450453736732,394.254706547280534323363,151.173076617494189122226
0.127500000000000002220446,-1.91883466492822063464985,-0.673386908439314701979583,0.359030306807061327933894,-0.284886814462513848766889,0.282739539071000134384803,0.000878420939852983398768438,0.00549652934425724857409046,0.0155867107256134236614731,-0.992165458454611126626332,-0.123822679937792418103371,0.00135749791006689601857715,-0.00196156997315673903292677,10.8655598834916649053639,-0.20476592924737599399343,-0.153454141662833248860309,0.877569254477352012067115,3.67723531566217554100717,4.94324590340955172251824,0.340026049944500585731078,1198.96154339056829485344,1176.78403032754340529209,1189.84581858215028660197,1207.76046036197521971189,-15.5897537485998185502467,287.494666918791835996672,572.324828173440891987411,375.425708620150203387311,151.168362621305732318433
0.130000000000000004440892,-1.67947987958993993906631,-0.866139943659717581603275,0.641524040433184783438492,-0.290404175533255148877743,0.280789100417504433604421,0.00264406113621451716380606,0.0059242826048795356810861,0.0159078985226548189069185,-0.992162153870645213693535,-0.123790454771108532350254,-0.00387177504308758302364879,-0.00303374098451433815704092,10.8523065526601953934005,-0.205438320771824334265432,-0.153161315480731363702915,0.879860634834274457638514,3.67778664792407372630123,4.94343599435877489867153,0.342249067282398011791145,1199.02514521308808070899,1177.31230113186666130787,1191.37647008867338627169,1208.59786349608930322574,80.7589188729252072107556,125.318906679376482316002,684.489746333155721913499,333.330914251609726761671,151.164462740939114837602
0.132500000000000006661338,-1.28076060853197937206005,-1.03352047565509064241951,0.868429995361589490698861,-0.295095378841268574099388,0.278266171152254160325867,0.00572031386282034846196831,0.00634257613215867370459744,0.01623432194983420381873,-0.992157937308607351667433,-0.123763036175107005165685,-0.009093678851363945492281,-0.0041651380952644895261372,10.8398509370224207515321,-0.206111311863566626367827,-0.152850966613418570716476,0.882093450221281383250016,3.67833582917887902397069,4.94361902685871168472431,0.34447792892072481851784,1199.36533798493292124476,1177.4106248609402882721,1193.26826731381606805371,1209.42711493323326976679,216.90051740019933390613,-91.0225851378071695307881,886.327247879670835573052,363.958886249610827690049,151.160587414034807807184
0.135000000000000008881784,-0.647728723873151612799859,-1.18051162834115141997415,1.04013109909236733940929,-0.298963392882313550025231,0.274849103532734784227642,0.0103537477727796718013353,0.00675154735747455613664725,0.0165612688069584346184371,-0.992153094968131310515957,-0.123738656875465688478322,-0.0142301751732902687086479,-0.00530078964568413135705072,10.8283460276795242549497,-0.206785668729119326281207,-0.152520144258008444326791,0.884272196753163375326778,3.67888306180720237037463,4.94379433227468290112938,0.346712796134789447144442,1200.10964780008907837328,1176.85718820617762503389,1195.8081063280717444286,1210.4176579273373590695,317.91589531271682744773,-324.831906751296344282309,950.70928931818264118192,363.314617643572660199425,151.155958876044849148457
0.13750000000000001110223,-0.0276799494509149916765534,-1.24336325032013816915821,1.09288329158911667882137,-0.300395954896525485544601,0.271866430214226961759039,0.0141387148310498280551206,0.0071493431369644882059089,0.0168850039145461774947599,-0.992147712814607452003202,-0.123717211607742613721506,-0.0191610009170773698539136,-0.0063964920250035028903568,10.8179272503655905524056,-0.207456627133730669987344,-0.152168010468456099681944,0.886403645663225159267995,3.67942877786002631168571,4.94396203312497473092435,0.348952782455044907550246,1200.95491746149650680309,1175.78646532718380512961,1198.02181376040698523866,1211.24368802145113477309,357.708997108784046758956,-541.476221309994343755534,875.433851173601510708977,336.345480362342357238958,151.152115124186565253694
0.140000000000000013322676,0.633153994061368852186433,-1.22933948898619282985578,1.06773139760884050453171,-0.299771949896322442707941,0.268588920670931263767756,0.0170347505531069365325436,0.00753672542679164909201761,0.0172033433259505749712837,-0.992141891822743371420756,-0.123698182557147984272916,-0.0238233761908168695242694,-0.00744248787445080106639494,10.8087075144408952809272,-0.208122489050955733480563,-0.151796235998501199970789,0.888494597573630917608511,3.67997457551514406404181,4.94412340852709952798705,0.351197064607608244735104,1201.89819278563300031237,1174.14980709962765104137,1200.18527558393975596118,1212.09938532914907227678,366.883730169911018492712,-718.539027398173175242846,837.347003794729175751854,356.857726217640106369799,151.148279959183099663278
0.142500000000000015543122,1.28183746500063588946716,-1.14285927124982977787226,1.00025347222163318861021,-0.297298191662839272897401,0.265161051092302202381035,0.0191091391652742949303079,0.00791778812943076844288459,0.0175153142876605626143682,-0.992135389858164851162314,-0.123683478611567185256881,-0.0282321062206516704140569,-0.00845829974347389601518898,10.8007731080243569721233,-0.208785406879404888957907,-0.151409108633664607479474,0.890551471528972182767347,3.68052168228816345418863,4.9442794743130376033946,0.353445649812895779096067,1202.78933611234606360085,1172.19377019019293584279,1202.20854877938063509646,1213.02797665253933701024,311.303209185236141820496,-803.025937616488704406947,757.539505372827875362418,404.936450912602651897032,151.144448443734631837287
0.144999999999999990007993,1.86128441196204952312598,-0.965343733277044591112315,0.908090145437480233958638,-0.292485311902971223396719,0.26202819888896022870739,0.0204708742540619312300088,0.00829586150961172420770229,0.0178224073103708906262721,-0.992128385626253939122421,-0.123671354162676452870251,-0.0323875943365573848442551,-0.00950892209876486038666599,10.7941814089709264834482,-0.209445868032192450414186,-0.151011997334467379383582,0.892581677231999437438503,3.68107120135949017480925,4.94443227139399876790549,0.355698954345305629054508,1203.45470883155917363183,1170.13467741154522627767,1203.97297311080387771653,1214.1240675837120761571,206.966886401597605527058,-843.456861992448807541223,702.429568315895835439733,537.728579840407064693864,151.1406177241099726416
0.147499999999999992228439,2.41952234343004812799904,-0.654311684967684992209058,0.789528367641366246587609,-0.284354335106433153690375,0.258785378179228253703315,0.0217796460176985541556949,0.00867178683453555428084503,0.0181252663903276323154046,-0.992120885989166367835423,-0.123661726220860801461754,-0.0362517555540996239127338,-0.0106311004058036867592207,10.7889586602949290039533,-0.210099308768699727378859,-0.150607169617508307446485,0.89459501694275644911869,3.68162378323408612246226,4.94458337821879201356978,0.35795608779682874800443,1203.8241705443540467968,1167.97648588023071170028,1205.72069662096009778907,1215.71661955174135982816,48.7513635406684926465459,-677.469849193720961011422,575.635727785947437951108,632.002704117712141851371,151.136017899284553323014
0.149999999999999994448885,2.74766620367841341021631,-0.328432061718179291176511,0.686097910394484755691735,-0.276404533644630800992559,0.256601859173690216575636,0.0229050170449088853763531,0.00904926616011463534616777,0.0184230839416002489805635,-0.992112924246562055685672,-0.123654317924571280351564,-0.0398640048925916895550259,-0.01183631051285995855471,10.7850975758057110454047,-0.210746749978312025719518,-0.150193206863413475371516,0.896601184382127103233984,3.68217968368671444423512,4.94473315662191126307334,0.360215589451568285461747,1203.69846564926251630823,1166.74732816557661863044,1206.85115174973361718003,1217.28408110430063970853,-146.779241377180227345889,-316.691653364705132389645,386.617105302365985153301,660.456109587630066926067,151.132179984514351644975
0.152499999999999996669331,2.93544676311859165096507,0.0345190592709150312344946,0.56697076424909287339915,-0.268511023245539881543209,0.255699298733080226941894,0.0242041108855444199454698,0.00943255045886870133187152,0.0187147850950834422623092,-0.99210480198392925199613,-0.123646713950001846393789,-0.0432873924695185707811618,-0.0131315212403862943690847,10.7825577422786800241283,-0.21139149071716528682785,-0.149766078512342082351694,0.898610120411680424190592,3.68273810410818169813751,4.94488128326713027860251,0.362476443259257430362652,1203.09027433746814494953,1166.39302761340718461724,1207.65378214747192942013,1219.01890009967951300496,-372.310412479145838915429,74.6711943531862942791122,283.785867772075789616792,761.171732797810591364396,151.128335162307052996766
0.154999999999999998889777,3.03120596662601382575986,0.459537394867507831275333,0.384471125952905945499793,-0.259780948895202978832231,0.25677194571652728338762,0.0258842093485471304303847,0.00982403627625710700044248,0.0189952358803097479111877,-0.992097229468922092721073,-0.123633968424246898365482,-0.0465661709028487441619504,-0.0144330450601082745099024,10.7812669137644494554706,-0.212036227891340967044442,-0.14931194867201721954153,0.90063346146255229829336,3.68329800440582255660615,4.94502836787986677080653,0.364738275097916286870969,1201.83691358686678540835,1167.12068413734255045711,1208.27008108859399726498,1221.08993976828969607595,-531.899328898588919400936,449.354308311103125106456,172.546679704100682783974,720.920604194224551974912,151.12371193689287451889
0.157500000000000001110223,3.03550582437468818852722,0.764163381729651036700091,0.184306552555619701516676,-0.252854733483166116414509,0.259109550113711728513977,0.0274555100502583415700286,0.0102197790987985995259102,0.0192583366143873682685417,-0.99209084290600213495992,-0.123612356180185026244267,-0.0496219662754071727528427,-0.0156221041754316877780973,10.7811248041086518156817,-0.212673595392006753446168,-0.148813523110905343571631,0.902685126995696252016899,3.6838578960407000195687,4.94517578145233382969082,0.367001324746083212868797,1200.43077769297519807878,1168.6397991549627022323,1208.5165155459924335446,1222.62350312065063917544,-607.030767351715780932864,752.899306144171760024619,46.3797221104868668817289,535.105807704166636540322,151.119850776433537475896
0.160000000000000003330669,2.9987410163514871541679,0.979037751606603223741843,-0.074330818370789544791144,-0.245921408441757277651973,0.262352339162877645772909,0.0290311702489258159631813,0.0106132326234222983812883,0.0195038976161704645517769,-0.99208583289697394036466,-0.123581017767533538065372,-0.0523144045796738454967567,-0.0167023987010340331516023,10.7820065442180919035309,-0.213290905861137414234463,-0.148264291309444073974078,0.904777261500907092894863,3.68441674786304718125507,4.94532522890672954218871,0.36926750804700775310252,1198.80175975010820366151,1170.88518066806341266783,1208.50197969914643181255,1223.76546880681053153239,-718.13668116155827192415,1076.59829531375999067677,-64.0854900183512086186965,389.766307327317576891801,151.115980458299816291401
0.162500000000000005551115,2.94455042236795261345605,1.11020969565426352865245,-0.43767398929274248242649,-0.237841530087518793212809,0.266724412554658063534418,0.0298229161049425803287072,0.0110011616040585433889953,0.0197333649179663624118053,-0.992081899090701435639517,-0.123542521173845218362963,-0.054577133516513665068004,-0.0177240849273384848405755,10.7837654775248115157638,-0.213881495221984768706491,-0.1476630109087848086169,0.906918029184301754952457,3.68497379199420915796281,4.94547674360964073514424,0.371538652116183087947832,1196.84009428716740330856,1174.02279063153150673315,1208.19608809590067721729,1224.5723346572872287652,-678.514465818306575783936,1159.22190402156843447301,-156.718701752697455731322,206.458450833679137303989,151.111325496736895956928
0.165000000000000007771561,2.91411501422962837537511,1.11323119675988091437091,-0.754647057454503111806332,-0.231525044968339616113795,0.270376594405730308334768,0.0287219512125027991167325,0.0113807163249330343945953,0.0199466185684293827173885,-0.992078152337538043958887,-0.123504394798063396598842,-0.0563625194976934140722591,-0.0187065131034926876441027,10.7862390011323743266303,-0.214439595975349867051918,-0.147008620134635281662128,0.909113412986048752273405,3.68552834692879383027275,4.94562937756540144107475,0.373816178379171248913337,1195.40918742101666794042,1176.68129018817126052454,1207.71838619038294382335,1224.79776106097892807156,-484.247870581247752852505,999.507242980643241025973,-228.305466175015482122035,25.7595138593387460446138,151.107437848408153513446
0.167500000000000009992007,2.91818939561752621614232,1.02274920909917010902745,-1.03759357014836695043414,-0.225406015457798147849644,0.273418122395733376173155,0.0258587104837377720900626,0.0117466287061997656099299,0.0201430373118993873149396,-0.992073592271905058126436,-0.123475365026670461099378,-0.0575751266032583086662555,-0.0196515117077886991570068,10.7892554662234267937038,-0.214955680125767684129912,-0.146300557980169304572726,0.91136821056044947653163,3.68607969719668648878041,4.94578153656699193163604,0.37610124283924040167193,1194.41885493426116227056,1179.02032684643472748576,1207.05456076502559881192,1224.701132226583922602,-300.375342689585238531436,840.081169355970928336319,-285.009068268754845121293,-60.7898290390039051089843,151.103542093865542028652
0.170000000000000012212453,2.95610333904297384322035,0.876997406657436417987128,-1.25775804288571402267394,-0.219114451483950034571535,0.275536885144232523980889,0.0221215242191275009153717,0.0120944644938584550813987,0.0203260054294659223139696,-0.992067573318843098917341,-0.123460569718551377293991,-0.0581254418133194949991349,-0.0206461004073268984682077,10.7926401104151619136928,-0.215422122380832914423365,-0.145546058642469222643712,0.913683626382042479718848,3.68662745945908021383275,4.94593126555712547798294,0.378394007422380940219853,1193.90731070756874032668,1180.88169603495111914526,1206.29334084903916846088,1224.4938119157839082618,-82.9818287618763150703671,601.846834403158368331788,-309.381040584639492863062,-73.4357765246840443751353,151.099640451391337592213
0.172500000000000014432899,3.02979441232134849570912,0.693908415973057524084311,-1.37327559361778805957499,-0.212401112434161543074396,0.276690694253366453736476,0.0178426004478880115278194,0.0124273006862487250118177,0.0205006575653648021040354,-0.992059652378102008185579,-0.123462493922548155467211,-0.058078508301977166405905,-0.0218298331373355004869641,10.7962194043587942360318,-0.215845240089272444317103,-0.144758101475661288271013,0.916054945917966212398653,3.68717172880200916296189,4.94607617283144218589541,0.380694291118276961771727,1194.00394579045178033994,1182.02956101845052216959,1205.50765556210239992652,1224.33395334396050202486,164.294856872947860892964,341.48117464237628837509,-325.84014715789606952967,-29.0071433486900538412101,151.095733083967274978932
0.175000000000000016653345,3.14279867937407431099928,0.45973628062357413393002,-1.37463698506055975734341,-0.203679158045616759409313,0.277696795247177830034957,0.0125101193758566479885541,0.0127481314166488692712909,0.0206687474564652765018913,-0.992050146975223090528573,-0.123478049513082874244496,-0.0575032184546986069317853,-0.0232622320671443047479521,10.7998286209762248688548,-0.216233138729540197431334,-0.143943021654178049395512,0.918476516679666343812016,3.68771253539357424244827,4.9462145427315284962333,0.383002947442013130796568,1194.72878499193348034169,1182.58910190816300200822,1204.66414011324968669214,1224.34877619904045786825,340.041313777330060474924,94.8631136087446833471404,-277.82026000377430818844,47.2691486267651654884503,151.091039887177203127067
0.177499999999999991118216,3.24180527065564660915697,0.264696869229894826691663,-1.26554687113662511777079,-0.195783709262353777802446,0.278515349245794630039796,0.00830833312377540073034865,0.0130614599805138655030934,0.0208308527598813006398437,-0.992039160465962521762151,-0.123505887497387736861931,-0.0565046316379037572019683,-0.0249726850153304535950838,10.8033171269767223066083,-0.216596024334269887656745,-0.14310741644581118081625,0.92094071970537316751404,3.68824994096971670032303,4.94634597622649341275292,0.385320416260561071641888,1195.70415235933842268423,1182.50387658649424338364,1204.11855426208353492257,1224.57029908709432675096,429.387684403311311598372,-97.4910567028477998974267,-178.255773864385361093809,127.96258014968830707403,151.087127274377991170695
0.179999999999999993338662,3.32925767046625509237856,0.0791122756695596118792224,-1.065251050225132001259,-0.187428111485151122073134,0.279067858654197975543099,0.00486093354956887609141791,0.0133758077657065103244216,0.02098732064874414895983,-0.992027018769097157502301,-0.123542481030799289332123,-0.0552739453830529414712913,-0.0269857467381968765818279,10.8065526826223035072871,-0.216951434216912902863683,-0.142258179331873318984591,0.923436973889365186884959,3.68878415746718246737146,4.94647045221010994708877,0.387647314483322513734009,1196.87572341395002695208,1182.10164662464876528247,1203.77286124392776400782,1224.98858909978889641934,520.608040654814885783708,-183.254479996048587508994,-115.184151585026384623234,219.732330703618373490826,151.083215836790202502016
0.182499999999999995559108,3.41054745308468465481155,-0.120993750188948395729582,-0.764354341987574237293757,-0.177086784260019697301303,0.279068376482299984608915,0.00209720676994780289362219,0.0137021384748899806294009,0.021139952754677587831722,-0.992014274698938103291823,-0.123581978271236403443822,-0.0540512477249226463982268,-0.0293524174941152994622318,10.8094259246565691512387,-0.217320912700330715061625,-0.141404581182083849411057,0.925952509699624615180369,3.68931548397877406841872,4.94658880624403085590757,0.38998270847562716001633,1198.30719256261249938689,1181.58760418651399959344,1203.54263350415840250207,1225.66896074061241961317,505.665647423392783821328,-151.077536937873304623281,-72.2152508662929193405944,275.286057551556723410613,151.078527367556091576262
0.184999999999999997779554,3.45904713508766237239911,-0.258884288676933027595339,-0.501490067106533654595069,-0.168511072607744116780282,0.278365525921687062549381,0.00102957312766028489386949,0.0140501634918070786306465,0.0212910760299979025245154,-0.992001728873011856535413,-0.123616586441631398640695,-0.0530501705986101690371015,-0.0321204438653841170547842,10.811854146944185117718,-0.217723232686416190428957,-0.140555384254310078429029,0.928474681973005866453263,3.68984480698751093896703,4.94670194772894866730439,0.39232455406631017158503,1199.40405165106699314492,1181.34625893995939804881,1203.41178498959629905585,1226.36501938754668117326,399.02048105877804573538,-24.0763665948634084656987,-71.8601726008727723638003,307.808035905463555081951,151.074627937006169986489
0.1875,3.49658027827515827112848,-0.356626353973624576898516,-0.268657388995831580835727,-0.160308638715293799714701,0.2768898145380782604974,0.00104108754282936457648268,0.0144222493755487291000605,0.0214352667809818674127254,-0.991989895606888327783679,-0.123642911763105337041857,-0.0523537605253769633417704,-0.0351411015681718646996856,10.8137841810282964161161,-0.218163431544450309162997,-0.13970436304222810797171,0.930995804712484220644342,3.69037268409712737593509,4.94681013064683217095308,0.394672984156684503176393,1200.30229496790639132087,1181.46722235353968244453,1203.18333264115403835604,1227.20800092013973880967,335.439513668415827396529,150.022274120237710803849,-163.958634261598348302869,412.994558507261558588652,151.070740793852166916622
0.190000000000000002220446,3.54282145865527553496577,-0.426251144645109714126363,-0.0588927004149559368828548,-0.150798303264460309414119,0.27448267959837718832361,0.00185308728964644507317128,0.0148111702459990477592777,0.0215714092153451407474218,-0.991978829298977959894046,-0.123661585961647460529811,-0.0518348836139640167797182,-0.0383230300353395725299066,10.8151945563593443466743,-0.218625814355409675560082,-0.138851550598469236641463,0.933511523471697857168294,3.69090010837629112216973,4.94691422393505941812464,0.397028992216389042813063,1201.08124921940907370299,1182.09637031056058731338,1202.59199181828830660379,1228.42999218008299067151,229.42936373688078788291,306.594702265601597446221,-294.436799955110188875551,485.18164712127099846839,151.066096146756251528132
0.192500000000000004440892,3.58877500569172047661937,-0.456324296684490982034532,0.0462166499647042941512076,-0.142983555431451081485505,0.272494436884811175314525,0.00279965879925594615662554,0.0152029497151086757239513,0.0216979680145878185693054,-0.99196832969497972243289,-0.123676164638382560245766,-0.0512300164942719182814557,-0.0415400448188665352700077,10.8160943024510238785751,-0.219080550143033209176124,-0.137994494673979645193995,0.936020706455472306650734,3.69142823237367556643562,4.9470152170341963326905,0.399394633187474590307886,1201.44944178659079625504,1183.00019586486769185285,1201.71114864137848599057,1229.63390915574609607575,83.8733593101550667370248,426.170293845052185588429,-448.891544670641053471627,509.564119741707600041991,151.062246827846848873378
0.195000000000000006661338,3.64068949265977437335096,-0.488157372617192941710584,0.082096281362862844055428,-0.13515226763777926644039,0.271364524950346852616434,0.0037986434544317205369568,0.0155863468356163895056632,0.0218140136240169806025602,-0.99195841334901968533444,-0.123688076042430275536255,-0.0503380422056351750637049,-0.0446807144758627067249179,10.8165194493716967372166,-0.219502456790862110480589,-0.137130161763388408457942,0.938521132774148947319759,3.6919579307165784065603,4.94711458931258007964971,0.401771436128596171055705,1201.50061601595984939195,1184.22722177978585023084,1200.34753409493509934691,1230.97781277879153094545,-33.1928851345309965381603,533.655538285574493784225,-625.135725605513812297431,541.900678293631699489197,151.058425558387568798935
0.197500000000000008881784,3.68727971886359240372144,-0.55101272672648349271185,0.0742855599713882347456817,-0.127216132294077383102504,0.27091758908366486702235,0.00471688288446580825108434,0.0159520561623590698130393,0.0219156405188584944843111,-0.991949123125787868282544,-0.123698884274165948893298,-0.0490139621447921863817143,-0.0475716401183977760647181,10.8165308286574859408802,-0.219870270592204430926131,-0.136249228601040744957018,0.941011162692998670564748,3.69248984625709608664579,4.94721308390569536328485,0.404159244272550566279278,1201.28347736091814113024,1185.66847355629556659551,1198.58547001335091408691,1232.34341254721425684693,-146.065225250049337546443,619.492627374892776970228,-787.011315932112893278827,520.673428136114580411231,151.054632202890275038953
0.20000000000000001110223,3.70321439753353942592184,-0.68134679852324397941743,0.0421249579050351069531288,-0.118987753186895972579151,0.270429662137928294995959,0.00502230726858875209384081,0.0162898912863059311395553,0.0219975646468233317076812,-0.991940417180167233190957,-0.123711231404904684061385,-0.0471041508141568088241513,-0.0500064309642098900332563,10.8162116412636901685573,-0.220161310399150905725563,-0.135339179957400579379367,0.943491305198623786409939,3.6930243967318698850022,4.94731066446643374945324,0.406556675733498740221705,1200.77028988970960199367,1187.32468491666031695786,1196.41247751527453146991,1233.58117991947210612125,-274.598296901058120056405,770.870807656773877170053,-1020.54461755096690467326,476.688103988680779821152,151.050877727039420506117
0.202500000000000013322676,3.64276890104010497850595,-0.93702635472117712378548,0.0198383944190317351718988,-0.108481401873060628870959,0.269290010885807173934836,0.00431104548455875282580996,0.0165980934063574454839785,0.0220576978132196316328972,-0.991932389912942968912546,-0.123725010189282225159246,-0.0446308293611265838318758,-0.0518711382895669786963211,10.8156612912522795966197,-0.220369318125162055865829,-0.134393860558489064427334,0.945959381658880493759511,3.69356057193425657558805,4.9474061598207494938606,0.408960850435959311077738,1199.91048587641284939309,1189.52282759457943939196,1193.48274692559607501607,1234.72685306715766273555,-332.651521781553753953631,833.515746518468517933798,-1099.26196025175977410981,342.763750035555574413593,151.046423277523672368261
0.205000000000000015543122,3.48981513088214212459093,-1.23479245163263740003856,0.0436312551882613516851528,-0.0992044086718926604318014,0.267993016211064416509657,0.00330313924846472413074383,0.0168807618748032725597419,0.0221008367154496981887846,-0.991924932229710454301141,-0.123739756153152496986891,-0.0417265312950076405762445,-0.0532184111065098497395098,10.8149915485060734710032,-0.22049886923166081564851,-0.133421317044618487068774,0.948411162616593084173644,3.69409556280779671766368,4.94749838367971417341096,0.411368520420102856682831,1199.10703228080183180282,1191.49226364925266352657,1190.91616771401572805189,1235.2949986696498854144,-305.167847234815496904048,799.340321517456004585256,-1014.21500542637568287319,134.170408050067521799065,151.042757483299482146322
0.207500000000000017763568,3.19353702053272447969334,-1.60452464076321810182435,0.130962176069980479331534,-0.0898147746178595274280099,0.265862913280229151702372,0.00244085307208738921599944,0.0171430056347928738702535,0.0221347559925274377234938,-0.991917428302672155027153,-0.123758400528141673802018,-0.038540171285781896215461,-0.0541719150109006702953351,10.8143229056870406878943,-0.220556698045099558447291,-0.132437130174892392364683,0.950843297957662647590382,3.69462628238212342779434,4.94758659209032991554977,0.413777425102115958832627,1198.38464664023877048749,1193.5195292021667228255,1188.41167189846419205423,1235.39770510740800091298,-259.615485842506416247488,874.769904968665741762379,-1043.02895585788542121009,-63.6031025077503073816843,151.039143611164604408259
0.209999999999999992228439,2.6530532776492119495515,-2.08650656652925725609293,0.309147154230365817095816,-0.0789687711857343516141938,0.261259196409519833803614,0.0017279056965533883850894,0.0173902276296886461326441,0.0221633415845070916305737,-0.991909643651492256566371,-0.123781449282526836985774,-0.0352347004678805753030701,-0.0547787925690542826240303,10.8137800586247241341198,-0.220553221753934408644326,-0.131448659237763276763644,0.953254583634196128727467,3.6951510691587525769819,4.94767044299908320681425,0.416187799381194378778304,1197.80895485158930569014,1195.86611317409597177175,1185.70102293472632482008,1234.97698315711113536963,-140.163418366410695625746,820.684893891943147536949,-916.119958108451783118653,-239.001463434261694374072,151.034870763303217700013
0.212499999999999994448885,2.05913182859543697489357,-2.47450915232938539745078,0.503395543044154902823095,-0.0709497301668180618827719,0.255468265751591705470247,0.00147864529481993062405565,0.0176284294019651739671151,0.0221930958213356552266582,-0.991901434248717350783409,-0.123808109933785048806243,-0.0319745729941486450664812,-0.0551515082648917423502333,10.813487492222781938267,-0.220500906547672237412172,-0.130467532334418906403428,0.955643765312105597509174,3.69567062399541157446947,4.94775029541079458539343,0.418601579891174691017142,1197.68382954840672027785,1197.62295367162641923642,1183.83107210792195473914,1234.20269779023669798335,36.2567227347426168648781,635.773686488209364142676,-641.225727394520959023794,-385.486863104460667273088,151.031365475336968984266
0.214999999999999996669331,1.36536857133310340906007,-2.79290965262764023790965,0.707793758668117556354105,-0.0655727092997421268094627,0.248080421204476875285394,0.0024799362928503302164196,0.017863390179099176285904,0.0222294462910470995431478,-0.991893123817024879862458,-0.123834037228517726547672,-0.0289147903342270307103234,-0.055387940949509648080884,10.8135655065298355026471,-0.220413613852613765597965,-0.12950117739316732712318,0.958010190485856893971572,3.69618683421379223830172,4.94782748847281972359724,0.421020907963096380210999,1197.9902384652630189521,1199.04498160653702143463,1182.49489429775371718279,1233.04954884158883032796,228.028723655870436459736,533.278641530705044715432,-446.547501329132103364827,-576.264794065763794606028,151.027919823109527897032
0.217499999999999998889777,0.51280877934979340881938,-3.04574793309761115978063,0.904617280488029695817431,-0.0634693185157723105405125,0.238310828382428452343333,0.00611366564456914882152994,0.0181061347376093341454695,0.0222738568239540524196229,-0.99188537939099485907235,-0.123852061044713093740377,-0.0263246495778807765297813,-0.0555251128284726114259229,10.8141253020675076612633,-0.220317236456030768332326,-0.128548649009326249048613,0.9603515720922957132899,3.69670021351538036213924,4.94790400311349021222895,0.423447435351618828303089,1198.82397316668607345491,1200.28934687927994673373,1181.5983346012762922328,1231.32137381990787616814,367.115664249103815564013,381.79945526185258586338,-206.044758068992280186649,-673.901274812077986098302,151.023855729328545294265
0.220000000000000001110223,-0.138773966715817959061141,-3.12899178570482350281168,0.989034936291791288986985,-0.0647148684069210750058332,0.229987526540242237516054,0.0104343005359550048544159,0.0183655957124220572951323,0.0223273196687299654850101,-0.991878621342672461835832,-0.123857352646869409151797,-0.0244224045552192403629732,-0.0555944858448943202144932,10.8152670660508238853481,-0.220233614768688107377059,-0.127607818287101104637316,0.962666711704599609156219,3.69721074561010043524334,4.94798163436784932400769,0.425882020726642496200043,1199.82581678650853973522,1200.95397888284628606925,1181.4646705074087549292,1229.6800424675284375553,440.783341423093190769578,208.385515935833410594569,70.7940682415027708884736,-672.289491185210295043362,151.020528709879584994269
0.222500000000000003330669,-0.658139555806379838998055,-3.07433420763667442088263,0.970729773409187757238215,-0.0677184977632276086101371,0.221864899961809081130326,0.0144194030859840505165437,0.0186480455704249939441475,0.0223961579169119455456904,-0.991872955411812418091699,-0.123847015330403764643563,-0.0233466827087110140315218,-0.0557450388495884241457645,10.817076792682454922101,-0.220177902254873408827152,-0.12668660560798725156495,0.964954840525350965307894,3.69771855552190453764183,4.9480610030338034732722,0.428324732029247978726261,1201.02788987380154139828,1201.33127445895911478146,1181.95230494248380637146,1227.95992636398182185076,500.209228540461026568664,127.804337734823889149993,290.098310695384213886427,-678.035490039928276928549,151.017264135977654859744
0.225000000000000005551115,-1.03794037657196924762104,-2.91196297296416695132848,0.875699764322580676001451,-0.0715538884996372442914847,0.214200912289128964083318,0.0174763230226361830632609,0.0189563948542026163013308,0.022482325618158639779498,-0.991868477870287090780721,-0.123819510328163268075841,-0.02316679129951561277867,-0.0560326895476830691422698,10.8196233427895336376423,-0.22015943735758830568372,-0.125784553363078255294738,0.967218185287016307682961,3.69822387703534616321122,4.94814205327399303513403,0.430775107228803466608014,1202.3268629292108471418,1201.59300057152040608344,1182.91516206088567741972,1226.28986501732879332849,535.73466718562440291862,109.4330729822558083697,483.550172927243238518713,-628.218412910836718765495,151.014051302673124155262
0.227500000000000007771561,-1.24236498951112261934782,-2.63707680058803983769167,0.717200227103002130313314,-0.0758997757767078812252137,0.207414890846851496242209,0.0193264447332021742365082,0.019282282150394611242028,0.0225801633284793794309575,-0.991864826962131851395554,-0.123779988815470767815619,-0.023724400611361884383399,-0.056327341976041452042967,10.8229573098166564903977,-0.220165964586051615681228,-0.124887413556713386397767,0.969466468189861818594011,3.69872698062720806078119,4.9482225396010548479353,0.433230605331096196852769,1203.70656320972966568661,1201.87843982387039432069,1184.37005580712002483779,1224.81883429942763541476,626.225401220107755762001,161.862571464643991703269,722.989597973809622999397,-574.838593516687524243025,151.010900361169120742488
0.230000000000000009992007,-1.30873067669239562249572,-2.20594831735758223345556,0.497794706160718802845366,-0.0808248953780443812888734,0.200410466862863789749838,0.0204410958580198628964375,0.0196151165522099706073345,0.0226841609384867658183449,-0.991861550700880223452316,-0.12373465950762527199025,-0.0248043482450469865430165,-0.0565029114884134306406871,10.8271071601023312069856,-0.220180082705094370965071,-0.123982218320232429054073,0.971711197429908746237004,3.69922802761953795069871,4.94830029517470038058491,0.435689614346444820114357,1205.45798993531138876278,1202.4023134288436267525,1186.53011005075472894532,1223.41567204974535343354,660.777722535157749916834,227.670345899923432853029,830.688764224532178559457,-445.811304253447417522693,151.007189582300242136625
0.232500000000000012212453,-1.25079763175055425072912,-1.78505325816039817077296,0.318885735907418477186326,-0.0839330072041689079220816,0.195696314574950180897872,0.0207420581476237021745224,0.0199464927924437283868198,0.022789830204194897605996,-0.991858318061730193093695,-0.123688285828188540560468,-0.0262265237345205987073982,-0.0564663543570039228036705,10.8320767385117378012183,-0.22018803824820235015558,-0.123059138517885385821771,0.973963239833978144943671,3.69972666127679694625385,4.94837409448197185213303,0.438152028812997751394676,1207.01045182240545727836,1203.01679155337001247972,1188.52349962824268914119,1222.58977777816039633763,639.405009283290723942628,263.267282348851722417749,794.7120200744386693259,-261.2303484836045299744,151.004154627383314846156
0.235000000000000014432899,-1.12698868080172465155897,-1.32695295313981498352973,0.167480961005673056885001,-0.0858032799147968872066627,0.192296698002889343559474,0.0206985498133830797540256,0.0202723663778967659598873,0.0228917714477166502062833,-0.991855235242304900111776,-0.12364163725353256861883,-0.0278974931358654532065344,-0.056120236933181966154649,10.8378436920032257262392,-0.220184998582604624095538,-0.12210713923917899947913,0.976231851027784425234302,3.70022290433491951588962,4.94844421866157446743273,0.440618264113534108261661,1208.65501498172784522467,1203.71864984058788650145,1190.50367015112692570256,1222.1095203073273296468,733.481048767816218969529,278.545989303574742734781,818.582833176559915955295,-141.83292392617647692532,151.001177285870710420568
0.237500000000000016653345,-0.952343940882246497992014,-0.761435981590412924724376,0.0310772136357124854899592,-0.0870794084146939845192392,0.189722078961911455596834,0.0204896246522606774453923,0.0205847913132782729672687,0.0229884434863767660173206,-0.991852107522120940430455,-0.123597832766612528154759,-0.0296246752538158880652119,-0.0554399306053966409169043,10.8443606056545771565425,-0.220156657336228411825374,-0.121123790744740583713579,0.978527254813343905226475,3.70071665266316296438731,4.94851031732873725133004,0.443088553037135235435073,1210.67785706624454178382,1204.40952149988788733026,1192.61641379412549213157,1221.88061315852951338456,734.319459696101830559201,183.29605551111939121256,701.47762704432682312472,-34.0061968349347552020845,150.997668819427303787961
0.239999999999999991118216,-0.804814816483060746499234,-0.292552379014692609526804,-0.0421180942650291115225691,-0.0876801895843980494404946,0.188663204271795864608308,0.0202850128726399271672509,0.0208807489280967428779689,0.0230791570711411167526883,-0.991848901558144202539324,-0.123557757186084152256633,-0.0313131304668150811654215,-0.0544315607070555498858688,10.8515533547172715600482,-0.220098047991194256667313,-0.120109466365458356085227,0.980856846855989950029198,3.70120728752845717934861,4.94857185740502991677658,0.445563916520325509207368,1212.32661228020833732444,1204.63513011814347919426,1194.01105828634854333359,1221.93948932315265665238,627.205162171961319472757,-27.39632391858334869994,461.895298652554970431083,67.5321909229754453463102,150.994797596114239013332
0.242499999999999993338662,-0.654146709974676721088827,0.160293313791856517624979,-0.0750008610042027790143493,-0.088434983975979403192369,0.188534627842258772911777,0.0201007172088840634083251,0.0211601585023219150583085,0.0231640209160044532876732,-0.991845774993651008166751,-0.123520167915864356733557,-0.0329245728612302390736488,-0.0531239388975920448499046,10.8593222475116153447061,-0.220009729119185676315951,-0.119066603682234262162609,0.983225958030392144237908,3.70169425543128260969183,4.9486281542772863062396,0.448045638421376346549607,1213.81388287710433360189,1204.27253988029497122625,1194.92589028738825618348,1222.2182741131443890481,547.650503148406187392538,-258.468450841746516744024,284.454701983895347439102,142.476242139946293718822,150.991980375878995346284
0.244999999999999995559108,-0.484023482685772277189784,0.591318573867137153854401,-0.0772771538915467681718496,-0.0897796722688079668062144,0.189142608296031550230154,0.0199413455037729947516567,0.0214241384854161609485601,0.0232394182644023727934979,-0.991843041862603191916037,-0.123483084395002218336401,-0.0344543639843341853445935,-0.0514649632184312755267541,10.8675436948115944346682,-0.219895230055835139149067,-0.117990671925809073594671,0.985639463045398733775926,3.70217767469504588362383,4.94867969162777754377203,0.45053502909993609071293,1215.06486479595037053514,1203.34278786393474547367,1195.43333179626802120765,1222.65187053385238868941,419.283584271760958017694,-498.51299638512455203454,116.444343355396895844933,202.654973247535792779672,150.98920821945259262975
0.247499999999999997779554,-0.262521785997835599424377,0.983734007285224421046621,-0.0461329763204770953999301,-0.0915638417023430378760551,0.190761306886236464697149,0.0198089202780133491477166,0.0216767170107263103251416,0.0233029174567010444185655,-0.991840810115969140348113,-0.123445474193138560181637,-0.0359578112122528603666893,-0.0494309843171236093506415,10.876071794045993001987,-0.219762840310127216536529,-0.116880525862196452124842,0.988100218204199465255044,3.70265769078399342717489,4.94872702254207386118878,0.453032248409124538301995,1215.9103007984631403815,1201.77997489836934619234,1195.50811200416524116008,1223.23154897938206886465,252.691496476245220037526,-784.889106237368878282723,-40.370132876569151392232,275.798337517289610332227,150.986491539300658359934
0.25,0.0889261986229175210860731,1.38871982212967148839766,0.0258219751301093369821871,-0.0933754965155953187139204,0.194120544763244334829366,0.0196872700676310220802012,0.0219221398455339902544559,0.0233546885234586359958442,-0.99183935887079710536085,-0.123404405683607262811385,-0.0374882928616541155619757,-0.0470507002224566511783266,10.8847414635422605755366,-0.219620481013182183849253,-0.115739192176842017878435,0.990610345017554516644509,3.70313453593454333656609,4.94877044693389755991575,0.455536544378320973347485,1216.32832227833159777219,1199.41834233274789767165,1195.23148113188517527306,1224.03086222143883787794,43.0392284832123195315035,-891.697599876351091552351,-139.604083760423122839711,299.470543205052024404722,150.98329815127573283462
0.252500000000000002220446,0.456877387015450608931388,1.65331167725756666975201,0.111294190001334961093171,-0.0940567411751381116102877,0.198158582111991332652678,0.0196433433008721784751582,0.0221614309051052470189713,0.0234007717600984745109916,-0.991838280659182669474205,-0.123361892857809019030668,-0.0390192545258878920044765,-0.0444659611694047038343847,10.8933724011851342794444,-0.219466799428679026906508,-0.114582175504653410724742,0.993172404121688390254974,3.70360901708114198527255,4.94880916676564819312034,0.458044969479666552736319,1216.12549694087920215679,1197.32148689898758675554,1194.81009158536312497745,1224.72890169540733040776,-194.686495942778321932565,-789.59785413603572123975,-183.020079797870323545794,271.822984291520469923853,150.980695084460506905089
0.255000000000000004440892,0.885603591117113841946207,1.82407862173677814965345,0.217101061395748307081277,-0.0933746478945940427962569,0.203065223040831827061581,0.0197305446389631905512729,0.0223943672492862184963958,0.0234454289628629464203868,-0.991836999021216580985083,-0.12332184665416312530084,-0.040506536577115018205042,-0.0417734736844355691864905,10.9017722557346132816747,-0.219297531010672924756122,-0.113421403084636593372458,0.995789740646804699686356,3.70408183763086373829765,4.94884278355459272802364,0.460554903168207296904058,1215.35488979861770530988,1195.47035306206771565485,1194.31638073289582280267,1225.38997714289644136443,-447.989068937613012622023,-676.280597558615568232199,-214.017453240285050242164,266.055956014042521928786,150.978156272550620542461
0.257500000000000006661338,1.42675801044652272864255,1.91168420705065034148618,0.355116173589914874142437,-0.0909206616596877903457852,0.209164676863697662767549,0.0201253722075741339758714,0.0226220387202729009135105,0.0234928632266246974202861,-0.991835062907152620326201,-0.123286932037293295305602,-0.0419380320173794451932281,-0.039070658574091608750134,10.9097404213029758324183,-0.219110833230064638854628,-0.112267674000871300887816,0.998464482223372140623496,3.70455380733419836758458,4.9488722320097169316,0.463065998895507369148561,1213.88555159619113510416,1193.94008391119450607221,1193.74000431916169873148,1226.05918147547754415427,-598.254153523338914055785,-402.235897863419836539833,-202.690910358387384349044,214.661318883190489259505,150.975189638076699338853
0.260000000000000008881784,1.85647938787454624964823,1.88989573583055592287394,0.465568561451292051156514,-0.0875855879279111987356643,0.21421675585602997782253,0.0208219897330512888899978,0.0228461099142430075492616,0.0235431795778658775608605,-0.991832061202916892561632,-0.123260148809133593394982,-0.0433298532276361336723625,-0.036367316795632112502723,10.9170729613402457403026,-0.218906810900932752295134,-0.111122845821375632047179,1.00119778714796647811625,3.70502543967859576667934,4.9488989261775069294913,0.465580291677808233430369,1212.36361903100100789743,1193.45917357275061476685,1193.30292618110388502828,1226.46328373731239480549,-618.702023262721354512905,-3.11274540208614514114061,-168.244518550545620882986,122.771827721180557091429,150.972788720387768535147
0.26250000000000001110223,2.20217032058919448544998,1.78266103172435541601715,0.549697602097230841877717,-0.0825728761524846255337451,0.2191391059134716878809,0.0220294216837104324391294,0.0230675498877399194619375,0.0235952407676699171812373,-0.991828190506187978847663,-0.123239950519860710920206,-0.044688188180117729975116,-0.0336464211620628797505539,10.9235684981998204534648,-0.218685410728940182734092,-0.109983158414880821673876,1.00398927290299777581595,3.70549710986617730767989,4.94892337220167899403123,0.468100690679969066998467,1210.79204147987752548943,1193.92452018418407533318,1192.89878172640896991652,1226.67304061408344750816,-635.722490920124414515158,412.464686847124198720849,-180.520467235692024132732,48.9450952227798126159541,150.970467864443946837127
0.265000000000000013322676,2.44412698669494954373249,1.58138031599956652151207,0.592266644069931125216044,-0.0744344069739636682303541,0.224292203977217108334941,0.0240599152698442245168486,0.0232903050221391592911058,0.0236476876172990943536512,-0.991824080829256882196887,-0.12322077038147188909889,-0.0460858408428205246210041,-0.030897612366432201935762,10.929033287660203654923,-0.218453695086699678507003,-0.108842501297387705960773,1.00683478044446594878991,3.70596813132828240000549,4.94894607187345147991664,0.470629833855427393007886,1209.18500657640038298268,1195.52149700698623746575,1192.40032384492542405496,1226.70800921342629408173,-499.654260143415285710944,726.575393001939346504514,-193.679410162712713372457,-14.0777402233652413343634,150.967783098878044256708
0.267500000000000015543122,2.45601911022037722176492,1.37811173615211868259678,0.560855572959394588217208,-0.0665609596479267845436922,0.227498503827785553133012,0.0260230246026413002125022,0.0235204431127979569915443,0.0237025242711893409375268,-0.991819920651815234435844,-0.123199526359276237408302,-0.0476371722869882857631652,-0.0281927930781654401126701,10.933287585036486788681,-0.218222490724098161507527,-0.107702286624475535026235,1.00972616878934928763556,3.70643707406263356318732,4.94896740258706557824553,0.473168505445667464393011,1208.29377017916044678714,1197.55739714919377547631,1191.93038467559540549701,1226.60265191296662123932,-231.740255063686873882034,901.577256706149569254194,-207.134724342813399289298,-50.2603378650291716667198,150.965635404422329202134
0.270000000000000017763568,2.24363990472204477555351,1.16711443128456893170153,0.445870792023895290423496,-0.0589680505072212729489323,0.229616330154852499312312,0.0279763292740160401939065,0.0237681446813382685201432,0.0237620237013850162111073,-0.991815638889234407749029,-0.123174372743400858953855,-0.0495477734773894784581216,-0.0256256525076576230359748,10.9361708335348293275047,-0.218011630994844080033701,-0.106565566141331072302911,1.01265120924211360353695,3.70690282694629891224736,4.94898835361854771974777,0.475717459557180810669763,1208.02630530108194761851,1200.02938329051698929106,1191.36465022321135620587,1226.45670752410114801023,-0.20501055009844984522438,1008.64510596097625239054,-244.721356751278790397919,-46.6874847883445482921161,150.963588483203636769758
0.272500000000000019984014,1.84994955018532336588066,0.964118365000120713936838,0.259221965761347039602924,-0.0522497339184196038508468,0.231151876889599122710806,0.0298107058001422127457847,0.0240388568335170894896269,0.0238275399920007402432276,-0.991810742823108770771512,-0.123147913760114621761765,-0.0519263249321643416411831,-0.0232617379230121226751926,10.9375489489740136406226,-0.217831998358879175281544,-0.105434120498404101939904,1.01559820539452005938585,3.70736541265349828222497,4.94900868723345332966801,0.478276852109452255135125,1208.29274512640995453694,1202.60062267899866128573,1190.70677789183901040815,1226.3692144890248982847,213.693630291208847893358,989.751655375674999959301,-283.996799566466279429733,0.094839453458916894712516,150.961631329308943350043
0.27500000000000002220446,1.27202335177466596682905,0.77376628356095245031554,-0.0035356367919959358347981,-0.0468941541368533137967844,0.232430406812306616926023,0.0312291503851439937455847,0.0243353950092065861310342,0.0238967696460741473030165,-0.991805030600670600726687,-0.12312161605910079686943,-0.0548325653933513790239118,-0.0210857018255500433534522,10.9373182247498306196576,-0.217691171218434509349038,-0.104301524207316559378356,1.01855591502817888205357,3.70782544300253169566872,4.94902880941873490883154,0.480847477650859889131141,1209.09477345253799285274,1204.97814156739536883833,1189.94466622537902367185,1226.45718172136844259512,424.745675631310916742223,934.258496709798350821075,-352.020992369716282155423,98.6968288553725017209217,150.959790414744077224896
0.277500000000000024424907,0.443373381253930054501922,0.546683102663846565150152,-0.372939654394269293202768,-0.0427482153441345533173568,0.23405100916081267303781,0.0317770381237055116185886,0.024652937679321033220825,0.0239642693559547377557539,-0.991798058460671927427654,-0.123100979371477597945628,-0.0581692585242032933479095,-0.0189974843196246551135786,10.9354102417317484707837,-0.217582176852766401298211,-0.103155331141564027275237,1.02151616981524395733061,3.70828271984297064278735,4.94904801234965319167713,0.483428440575308704385549,1210.41647350456651111017,1207.27191516254765701888,1188.94667292999042729207,1226.86269863330176121963,499.690061009232067590347,715.033602828906850845669,-370.408972928316529760195,205.634429760766408890049,150.957726314693388758315
0.280000000000000026645353,-0.281335260279337640021424,0.34188459381082747512437,-0.686808360106167192782323,-0.0420767626282788423375258,0.235474505022324365199893,0.0306835228204315468847341,0.0249834535050784262155688,0.0240267001799072191237094,-0.991789522526728251072825,-0.12309061337961180182532,-0.0617603725448453710900054,-0.0169384038914847032120115,10.9317940171997314280361,-0.217491698804822525259439,-0.10198719639747129417362,1.02447152831057297639461,3.70873602255510803615834,4.94906448120092257170199,0.486019224328828547410097,1211.59322375758415546443,1208.55330958153990650317,1188.09262136073743931775,1227.48535387017227549222,438.903820234508714293042,365.484380870202244295797,-330.878104128669008332508,307.86421486664011126777,150.956134333505957556554
0.282500000000000028865799,-0.933265348936630934062464,0.102091340594559473742287,-0.951749968302928794905426,-0.0451091954399598996094944,0.236687691536427602390091,0.0278998460983810349367307,0.0253182623869592851595378,0.0240856225201548541925423,-0.991779393464400915725321,-0.123092124962423485334817,-0.0653975222801922162485511,-0.0149580138867034737049089,10.926477321984128465715,-0.217404683620077116001923,-0.100798659048017311135048,1.02741413232082967610381,3.7091832976068332961006,4.9490767844108054518415,0.488619662998904802364564,1212.61099260573905667115,1209.09933706689866994566,1187.29228240934708082932,1228.40201970763496319705,375.558673357454267716093,80.8052946762472146247092,-318.513110173625761945004,459.176324713916585551488,150.954682926319378566404
0.285000000000000031086245,-1.51807737792812202926029,-0.236978933500725824634614,-1.15611079573479447191175,-0.052106701963027871049583,0.237431610448930852097504,0.0234978119494122089649935,0.0256504073036348916037053,0.0241442528928137688237765,-0.991767959120160802477528,-0.123103928522085875885139,-0.0689001027999069926011089,-0.0131486163012037235442442,10.9195062575365948731587,-0.217309717038866867522273,-0.0995950570135047258402139,1.0303355183511402337615,3.70962309038421933493623,4.94908430323235393188952,0.491229441476341288641549,1213.47101712437142850831,1208.95733605492114293156,1186.50005580986930908693,1229.7812354937418604095,244.259739867720554684638,-159.396317140590184635585,-246.61191984728225179424,533.796365069201328878989,150.953111188667492115201
0.287500000000000033306691,-1.7891669476139995254016,-0.559774415838553252022791,-1.2037923997665560538195,-0.0592187089555153423070522,0.237051645270940913867719,0.0194821762660687333723608,0.0259802616672347164161749,0.0242050626788676385980903,-0.991755200814737891690243,-0.123125568137845323168911,-0.0722465254561600600524685,-0.0116058810165555609250632,10.9109626318573500469711,-0.217210089258761229746852,-0.0983834213716373029434692,1.03322473477236354000297,3.71005528810230655878399,4.94908675842145839851582,0.493847180174835809207678,1213.83229130507766058145,1208.30235548119571831194,1186.05922281011066843348,1231.07100153298097211518,71.5795479203741678020378,-326.322397713150792242232,-114.743424005429261569589,511.091128312460341476253,150.951947541211097814084
0.289999999999999980015986,-1.8250427253351295675543,-0.910424484821190760364118,-1.11051425427730032780005,-0.0659257376742704986893884,0.235405775308114351140887,0.0153642725758809314817732,0.0263127365808622053211518,0.0242717505082243635572414,-0.99174154358303745482317,-0.123151849150530762200262,-0.0755050515621449314096481,-0.0104639273306514901662467,10.9009630013033547157875,-0.21711800897710620272818,-0.0971731998965551097002802,1.03606963321253231491426,3.71048126775711928360124,4.94908475802628622375323,0.496472676803620116547933,1213.82891486397329572355,1207.32572406635540573916,1185.92633868984216860554,1232.33669113530413596891,-76.2252557059135682493434,-437.014270005242849492788,22.3035722307033665856579,502.546063507321036922804,150.950939876248696691619
0.292499999999999982236432,-1.64213808984373876853624,-1.34021030813418207117138,-0.84692082267023738317846,-0.0724111122218915742587697,0.23213583216554833921208,0.0106972302756014690100494,0.0266455988659863932110916,0.0243439672786146844851718,-0.991727654671798464214305,-0.12317793968520726610727,-0.0785996263644451464980278,-0.00974759704772917151549549,10.8896586499958054616854,-0.217030724362584165332279,-0.0959641130308466205889317,1.03886302528685492418958,3.71090328244393319323535,4.94907765068134342101303,0.499104994055635353689127,1213.45116502654809664818,1206.11728413116952651762,1186.17074067126418412954,1233.58373185051755172026,-193.009122434204812179814,-399.568832522208708724065,154.322935865638868335736,378.216215049405604986532,150.949914640110506525161
0.294999999999999984456878,-1.3603259588084697373489,-1.68833718685805145298673,-0.52952506136454446927786,-0.0761204906412256271375227,0.228487185602597953071324,0.00778815513442812201033716,0.0269752730391625110406562,0.0244168946499656001891676,-0.991714188177814093272389,-0.123200307110972975821461,-0.0814393518279231953815867,-0.00937862232668992823469978,10.8772304102042376428017,-0.21694212373717167152698,-0.0947466288510347698359482,1.04160008077109500490565,3.71132320783361668858902,4.94906449615301724520577,0.501744236496097562039154,1212.86386925180227081,1205.32787990374436049024,1186.69795336917036365776,1234.22777221055116569914,-283.13132072626081026101,-221.757437691075921293304,261.103965662596010588459,149.902468054960849030977,150.949215338482304105128
0.297499999999999986677324,-1.0251177879801429693174,-2.0063269247715607157545,-0.167797305631264909164813,-0.0775825323637788916153468,0.223884354559058751377165,0.00693133919028677582263587,0.0272952442656255525599285,0.0244881251309913040847821,-0.991701525885830270645727,-0.123217791364397352693594,-0.0838684856555626800922454,-0.00931983472572609633610696,10.8638856720829419799657,-0.21683757009431589568571,-0.0935158620937080603541247,1.04427807102323755295004,3.71174226894240533169977,4.94904474002640348828663,0.504390156402949041414274,1212.03550842291679146001,1205.0084969427141459164,1187.47626049957716531935,1234.33324419079235667596,-364.216912624032943313068,-28.6107631631693699603147,330.523763408927777618374,-48.0891829256506326828458,150.948678206376257548982
0.29999999999999998889777,-0.699113688353245721351925,-2.2861133137640363699461,0.179209342019796297185152,-0.0772679546774567155287272,0.218619371793049993568658,0.00799134015144532285079837,0.0276043838434850315188829,0.024556273753639074747257,-0.991690181887199040389191,-0.123226797291057607597331,-0.0858483702908345580606664,-0.00956829928806691987208666,10.8498509416905637436912,-0.216712510910051336932014,-0.0922685885681728129581458,1.04689282698953056716107,3.71216132137120791156804,4.94901922161563678770335,0.507043266380944768201289,1211.04278468868210438814,1205.18482608792851351609,1188.35057218621500396694,1233.98732629592291232257,-422.153903374691765293392,190.380459730203995150077,338.714294154032984351943,-222.966920298949645484754,150.948276122588140424341
0.302499999999999991118216,-0.420391798485751144731637,-2.50641553784587634012837,0.454063816581055990084792,-0.0760864339704111908302409,0.212917022028401348165971,0.0107511059565589539577246,0.0279015017446119194255427,0.0246238407432689404563675,-0.991680889482789873490276,-0.123221228404933422218015,-0.087333348223672141452667,-0.0102021788652073633341111,10.8353684020049509939554,-0.216560961600640200508394,-0.0910076353360803752545749,1.04944089720037103674599,3.71258020466633453793293,4.94899078012644633162154,0.509704160439629960777097,1209.92473890604333064402,1205.9603992413651667448,1189.1698319703473316622,1233.21840958929760745377,-488.76725806871900203987,446.898503607189525155263,305.960973133823870284687,-379.023796641058311251982,150.948037374982192204698
0.304999999999999993338662,-0.13961605284745465249685,-2.68595023356880169274064,0.661078988339756756786869,-0.0755390846465796433895079,0.205491012800149724926158,0.0144884426600754394331982,0.0281895081654933571391197,0.024692329184053802421106,-0.991673874603806071448275,-0.123198363092970067378396,-0.0883781705714767051862424,-0.0112851809115197820876375,10.8206882460367701526138,-0.216385218386976940774247,-0.0897350332447856835482725,1.05191838665699477495252,3.71299844541427459532201,4.94896217885469269504028,0.512372413718171548779878,1208.5989483983385071042,1207.41931860596446313139,1189.88037705188412473944,1232.092207312717619061,-450.842147718912713116879,579.913123146342854852264,194.841931543078146660264,-395.939143912846361672564,150.947940097543551019044
0.307499999999999995559108,0.0756781181200662927954781,-2.75279767250986351356801,0.728836155040512800873387,-0.0764294964371175500339461,0.19851635937320954994334,0.0171089779395601632172585,0.0284737258838889568945962,0.0247669224508329441358789,-0.991669069095718502815373,-0.123156588445814882404328,-0.0890878468472061368910175,-0.0129626955040488683890132,10.8060636401286735974736,-0.216191853480122764263882,-0.0884609167557771219891904,1.05432129358516091244269,3.71341503557722418804588,4.94893477044311769219576,0.515047551992615426641464,1207.67052816744876508892,1208.85996485709688386123,1190.14404162806272324815,1231.23871386973337394011,-292.015574192327846958506,560.645752306936174136354,32.697050810156696343256,-266.634479849653644123464,150.948016828089777163768
0.309999999999999997779554,0.305295892675223057288747,-2.72341178735350419870542,0.70782819388361295498413,-0.0781209804036097354984491,0.190867173903035258764049,0.0189218490317629509100961,0.0287567246107206415939306,0.0248478068288351568171368,-0.991666365774472202687662,-0.123096259904533100737467,-0.0895303666205144454970366,-0.0152607265584063650498692,10.7917451761022444856053,-0.215983274592443319495061,-0.0871849583865093036294525,1.05664902111650915728092,3.71382856365902114248456,4.9489088876255138416127,0.517728968387308308152228,1207.13887052737686644832,1210.2225473674991462758,1190.04386230593490836327,1230.75903491346934970352,-101.781567351645122698756,512.034138393300509051187,-108.826601762484543201026,-80.4663411819546325887131,150.948257277876336956979
0.3125,0.605605290411267316308397,-2.58198810612862050817284,0.614369437338380897095647,-0.0792141413548383410692111,0.181908354937202393353246,0.0203445414263498658424822,0.0290320098306527663023502,0.0249303152672216352114809,-0.991665537619891845899645,-0.123021742201783787495906,-0.0896027177615476289052054,-0.0180714669950182635349556,10.7779767228691341074409,-0.215744107070489632427268,-0.0858964330190150754384959,1.05890714776825234366697,3.71423871513065373406448,4.94888293713159832520887,0.520415463534225852804127,1207.1616203306905390491,1211.42013554906338868022,1189.59990861925030003476,1230.83638216382360042189,132.546074576794012500613,326.426567533189597725141,-191.856743212338017201546,146.377778478335898171281,150.948734758805841238427
0.315000000000000002220446,0.853060563604725818898089,-2.39528682594997022192729,0.502478720049265192848509,-0.0781181357099056811188476,0.175402734759963124799853,0.0211568371148924370961364,0.0292971495477177164279414,0.0250074206093991308064162,-0.99166615221005061098225,-0.122938581620865738930348,-0.0893033567811802042601954,-0.0212414852364177092480801,10.7649855018767137693203,-0.215468276511182305066328,-0.0845822008947442610660161,1.06110113228860036826973,3.71464541461865360716388,4.94885441577980511596024,0.523107250249202349046129,1207.80160090026083707926,1211.85468020516509568552,1189.08457858987321742461,1231.49092380586102990492,376.566910958444736934325,29.4297103981079750667504,-203.578251059934530076134,365.002452613770969946927,150.949289697025932355245
0.317500000000000004440892,1.04772540939376979096664,-2.1746905402203902113456,0.374587803942703634341171,-0.074687355534310731486336,0.170201536574686146385815,0.0218533052980659989183998,0.0295459065792771403968775,0.0250725245988060174706646,-0.991667927188192410703493,-0.122851943417218972820493,-0.0885543852704520073615413,-0.0246092060156621883493244,10.7529789945542919582522,-0.21514181652450500847884,-0.0832303072735628424183574,1.06323945734956559761031,3.71504863339963176116498,4.94882146448795268156573,0.525805165185927791959841,1209.04445488548276443908,1211.5672841010539286799,1188.58201736395062653173,1232.66139442689245697693,646.298082039856467417849,-295.697865876354342162813,-186.65969051003213508011,580.339278883456586299872,150.950006940030931446017
0.320000000000000006661338,1.16795985333968932451398,-1.91796385047936834844506,0.215809315080089547667086,-0.0688965547313518666960874,0.165013847898428683835803,0.0226763566585400921926663,0.0297753922100941134654128,0.0251217528335600931432836,-0.991670626047324921259474,-0.122765286838871279240237,-0.0873464864530663909203412,-0.0280712975938909453654801,10.7421372819752303229279,-0.214757449315949838775097,-0.0818362007249408829334669,1.06533021092287172315594,3.71544864035861399642613,4.94878326635924192800076,0.528509533700002975820098,1211.03309131046012225852,1210.37619087578332255362,1188.15128013732305589656,1234.39262020027831567859,770.114935294713404800859,-560.64634914669068166404,-114.950462679189413961467,639.019853281160408187134,150.951054204869990371662
0.322500000000000008881784,1.15883584308312070909608,-1.73973864269180733543863,0.0861650051148009632484559,-0.0637785941286210245060317,0.161226666011070440820419,0.0232258300186650896990148,0.0299843200200493667506585,0.0251566903829630525435412,-0.991673819128491396135416,-0.122682147109198114165451,-0.0856940672868465591616172,-0.0316339146886557426308073,10.7326086322795415384235,-0.21431008409364429856403,-0.0804086655560192209435399,1.06738172916178086779837,3.71584586248793735663298,4.94873860958361166950681,0.531218485789086369841527,1212.89502956195633487368,1208.76405235532047299785,1188.00726505055467896455,1235.85649369329826186004,734.220492062603852900793,-735.099118128209056521882,-9.07153196480975587689954,532.617550461736300349003,150.952081450627616732163
0.32500000000000001110223,1.05630644541260210189648,-1.62369068959236417803993,-0.0309884825356159035458781,-0.0597191210171270567275137,0.157918201148808334810525,0.0232487952829401045562463,0.0301718172075032264878303,0.0251775732885195432930736,-0.99167718414561856210554,-0.12260537870189260056808,-0.0836256600343539269193371,-0.0352630745960945263250963,10.724504938020990252312,-0.213796355538111104710453,-0.0789544423478855811326937,1.06940397640033024728723,3.71624032088789091332615,4.94868642391622959308961,0.533931154066413671266389,1214.70419377077314493363,1206.7006952851422738604,1188.10592247749900707277,1237.05570795258699945407,680.038425170914138107037,-862.078496052708146635268,73.1910570268154714312914,404.441657237975618954806,150.953267742454954714049
0.327500000000000013322676,0.915584470533248762080802,-1.57016020304538184149123,-0.129480206836725481034378,-0.0571302782546801793395197,0.154902031974474191367008,0.0227335114416969269468538,0.030337737459791465355341,0.0251874414892930970077956,-0.99168047139005222057051,-0.122536496114866680362532,-0.0811776123141010885753133,-0.0389737037966197616412067,10.717898437166041958335,-0.213214458210176149854931,-0.0774864069010610112542281,1.07140785133476268420338,3.71663125692082640938452,4.94862683974955963606135,0.536645400538893868613854,1216.29522168781090840639,1204.45365987505692828563,1188.37322033568875667697,1237.87870197948814166011,552.664172504864382062806,-891.183142639100992710155,133.062009561581248817674,221.77925926553123758822,150.954584759578665398294
0.330000000000000015543122,0.788629873807397574481115,-1.59424087981755335796663,-0.198142723382189883674087,-0.0563002358576569217341046,0.151848329743831084170935,0.0219237333506218726175696,0.0304821370504201050177784,0.0251886262276705581719671,-0.991683202181249501272475,-0.122478950701113711851953,-0.0783924609650522852266619,-0.0427528098390404370787721,10.7128192297059179338703,-0.212563822882843395101204,-0.0760165613450132643391655,1.07340544144910632340384,3.71701759360423089617598,4.94856052019833203559074,0.539359391422183809261526,1217.46751463329746911768,1202.24477957194676491781,1188.77123252530691388529,1238.16460424891465663677,394.896168686409168913087,-896.938973672421639093955,188.303584885579596175376,6.23725618411298832199918,150.956057805111868219683
0.332500000000000017763568,0.718106244598378795629401,-1.70130519138574198834135,-0.243888865369941504335216,-0.0567826326865063027438119,0.148026421813277742067783,0.0210167397575778611140684,0.0306054753635319060078857,0.0251863606232133156737074,-0.991685034912007434826364,-0.122434364931387984487543,-0.0753096564353798458846256,-0.0466389747960721523512007,10.7092543255142000901969,-0.211844974224346588309587,-0.0745618040541579374380632,1.0754090042967812124175,3.71739894273758775256056,4.94848829292655967293513,0.542072184319366878746393,1218.26970253124295595626,1199.96896500669481611112,1189.3147382601166555105,1237.90988826040870662837,187.309404534607722325745,-731.339238280588006091421,205.117833759277175431635,-177.105285470451974561001,150.958003502117264815752
0.335000000000000019984014,0.751806226537651389740802,-1.83726016993156981982338,-0.254296073469314709569744,-0.057393174916034968291445,0.144530278623765578993599,0.0204141103942034156382146,0.0307106252156289609434037,0.0251868029709938871796293,-0.99168562374533519854225,-0.122403569668782255530637,-0.0720125735737827399329802,-0.0506872173317831214989226,10.707147193962221365382,-0.211064146312775452463129,-0.0731401001054193117267843,1.0774295061013401397787,3.71777570748705343817164,4.94841222148698989258264,0.544784017119724683908544,1218.40406165597050858196,1198.58808338054382147675,1189.7968216941033006151,1237.27907782156239591131,-51.0154905222861572156035,-415.603273285296040739922,203.83178519264203032435,-315.636728922072222758288,150.959771383909753694752
0.33750000000000002220446,0.872515727653754069592651,-1.98806179192169540925761,-0.241203408609416303232109,-0.0566644012448808548354506,0.140124465164524286686643,0.0199425972455232990154794,0.0308023129389017602530743,0.0251993643504690029155668,-0.99168515662701839374904,-0.122381864918891941629298,-0.0686063535060006668420129,-0.0550210462886982498709187,10.7063997661706995501163,-0.210231715656133855141263,-0.0717733319901448230115903,1.07947587112388654340123,3.71814810966288389337819,4.94833458410743709521284,0.547496777608870832665389,1218.01462507863152495702,1197.89094864026833420212,1190.33389718607986651477,1236.33170461579834409349,-268.160672114390536080464,-147.421203749172349262153,263.074900445144294280908,-465.33131052178720210577,150.961688827714510807709
0.340000000000000024424907,1.07038606480453024616395,-2.13838962699403190015346,-0.203268774118731454514375,-0.0536530161613226613814831,0.133720029970077869396761,0.0194207710302379613076518,0.0308940212402440787797797,0.0252282661010243894339489,-0.991683362746026086931295,-0.122367044413616191111949,-0.0653906247148657582268783,-0.0596718791156492997518335,10.7068733635592678865578,-0.209378437309769488416933,-0.0704738414145646141495405,1.08155200378474547484586,3.71851646139244262911916,4.94825669558408431925045,0.55021187998294740495453,1217.06325829539855476469,1197.8509773617979590199,1191.11219619632902322337,1234.95242126895345791127,-400.434403067037806067674,95.2696262484550118188054,317.086513888125125504303,-531.360361657470548379933,150.964159783547870574694
0.342500000000000026645353,1.23784706281405143535324,-2.20514214419328657967867,-0.155181166116103608221266,-0.0498450413064628061743377,0.127751125668877169028192,0.0189533461116845845795265,0.0309988870886843924379317,0.0252741412256600149477404,-0.991679744107890726034782,-0.122359515036638430429683,-0.0626613026953843077482276,-0.0645921436958461075983351,10.7083959396097068150766,-0.208535444913271694744594,-0.0692457299668033932071864,1.08366009394056783676774,3.71888098952127776897214,4.94817841452691098425021,0.55293189018122179678727,1216.01245306329633422138,1198.36729677151060968754,1191.91932975552049356338,1233.67490280751098907785,-428.230879775400865128177,270.545233056736606158665,360.38150840290620635642,-522.373401078129518282367,150.966358615494840478277
0.345000000000000028865799,1.36941820171835848540809,-2.18208586660606629337167,-0.0918660546598540489471318,-0.0453257015209444641401504,0.121725579702215383481878,0.0184444954641031430564446,0.0311236807152115227403932,0.025332805676302905945052,-0.991674259043058947682425,-0.122358531509772078260667,-0.0605833600118675930090717,-0.0696174031489724676191599,10.7107690621195885682937,-0.207721756059732587385014,-0.068079556327390461367699,1.08580308180223572556145,3.71924137844182700618489,4.94810005346482384425144,0.555659143220987417066681,1214.92210389652154844953,1199.20370352708164318756,1192.91410373834355596045,1232.34055426356280804612,-430.882034166188134349795,369.387138385900129833317,475.670521122765023847023,-581.931371016707430499082,150.968700245928459935385
0.347500000000000031086245,1.46722637420210011427457,-2.0337578325656222588691,-0.0031114371024355859385313,-0.0398387669412021139248026,0.114719462247822659439755,0.0179562136021324501855556,0.0312673866837375608040972,0.0254001564777797568528417,-0.991666808979042802008053,-0.122365723125840444862611,-0.0591499131176406456322781,-0.0745682703188216278178402,10.713774025667881062418,-0.206939366080528180935616,-0.0669641458083796436984159,1.08798483153515079813189,3.71959718666319449908997,4.94802077779825921766133,0.55839370514253316990505,1213.85804289246539156011,1200.21423246344011204201,1194.29768236113432067214,1230.76524595242744908319,-312.963681518658347613382,320.771513045837934896554,527.779414263249691430246,-557.003422978049911762355,150.971672916563818489522
0.350000000000000033306691,1.50346624636769465865882,-1.80852689415859302357603,0.0743538596882123148379407,-0.0357353492221699209352437,0.109156390894459318086085,0.0178808209275750466804578,0.0314261493997146923451425,0.0254710835980052931193374,-0.991657509602331233011796,-0.122381912682225577060358,-0.0582884990280803372275642,-0.0792436515347199610381779,10.7171765877985976089803,-0.206184186209948550061455,-0.0658846573021298481664942,1.09020836458635650423332,3.71994821471239411891929,4.94793947543399603716807,0.561135506432291042422378,1213.35728548892825529038,1200.80756109231083428313,1195.55300080965980669134,1229.55553714867255621357,-95.1588035607992992481741,140.759179608132029670742,501.721534017229373603186,-439.195484998895096850902,150.974284119801865244881
0.352499999999999980015986,1.51319520403578144929213,-1.49110394058471418254896,0.143164028789144359699037,-0.032261459539450407230099,0.104402499817382504732066,0.0181862847015398336469882,0.0315943216293948087036725,0.0255384603602398611854607,-0.991647198539461038890863,-0.122402977424733772071619,-0.0578842633166859743543142,-0.083405503170885325614492,10.7207329650242577656627,-0.205448632857867713452649,-0.064819350233666112037767,1.09247581687372297132299,3.72029464807581922158874,4.94785555131213428126102,0.563884891208871419365778,1213.38224887466139989556,1200.91802836148076494283,1196.80629003122044196061,1228.56926852743299605208,97.0443279534730152136035,-51.241599811829090072024,479.477066681425071692502,-340.089041379818638688448,150.97703258434108875008
0.354999999999999982236432,1.51961136356745041275929,-1.11853712753538281354793,0.19477048088908802125907,-0.0292338287910437998051716,0.100728231275518595455587,0.0187332647714537302297,0.0317671080037718947530756,0.0255929283756998922350068,-0.991636453934307660063041,-0.122427232707812500001054,-0.0578418313761880908963064,-0.0867804537413211091179122,10.7241951519780265300597,-0.204726729389903217004587,-0.0637424289574347463505077,1.09478756713536085065641,3.72063626347117804016307,4.94776914731395578428419,0.566641569952186952008333,1213.84250712869561539264,1200.55135309325169146177,1197.95038614306690760714,1227.85509194177348035737,265.789540503055604858673,-255.756617699034677571035,402.06465268620343067596,-207.049796980481744412828,150.979893613985751699147
0.357499999999999984456878,1.53932151796375937813366,-0.71557181408211811834974,0.214963194453999362210084,-0.0264816127098210889190266,0.0984409174287190491536848,0.0196540790609895273111096,0.0319348731115785752776581,0.0256289329733579776537944,-0.991625899259241605498971,-0.122453244590268794933507,-0.0579481734200268383538912,-0.0891754706972818500521072,10.7273178329554408350077,-0.204000115949858923380944,-0.0626349450701151194698113,1.09714448752117554874985,3.72097366591721856465824,4.94768029759256133814915,0.569405367296983211389261,1214.71119657717667905672,1199.6392452729855904181,1198.8166132946514608193,1227.53401954253058647737,423.785441078279802695761,-493.136328199670515459729,280.720511140543521833024,-54.987423307556987595035,150.982889024250766851765
0.359999999999999986677324,1.58584458601635391872264,-0.249410368250257696853822,0.195097050126754961718589,-0.0231873216208464058563088,0.0972885506559142271276741,0.0211246721766776487938522,0.0320916525362092350248666,0.0256470954638141172832189,-0.99161589059896138032002,-0.122479747254998092009792,-0.0580487573474506579618293,-0.0905522150508941831015264,10.7298609755210385685587,-0.20325579765513618335504,-0.0614922862787284987828862,1.09954446796734961466768,3.72130783230088013624481,4.94758890624314773276637,0.57217688564851365562447,1215.96143433408701639564,1198.08567145225333661074,1199.35398869876962635317,1227.5801548252356951707,444.929642445594765831629,-608.706109470949172646215,91.4520684982561817832902,66.5161510155939481592213,150.986637784200297573989
0.36249999999999998889777,1.63601590242861605339897,0.0864788536131668589268529,0.14434980691205923086784,-0.0201456905874609105977502,0.0977675917737276939378788,0.0221721606327086283305672,0.0322354364194747666783059,0.0256489609896117416731887,-0.991606976259692962649694,-0.122503104785372810003885,-0.0580673262632522002579805,-0.0909178632609728837321583,10.7315946822728420784188,-0.20248842748741241459598,-0.0603119998266020834742918,1.10198303479136905380642,3.72163978053629485032161,4.94749456016674926672749,0.574955064069280319394295,1216.9358447894046548754,1196.5957147256308417127,1199.27387363714274215454,1227.86660029760855650238,317.878780476348481442983,-588.748655865401246956026,-158.592327179576244589043,121.332189166423518145166,150.98989023980809065506
0.364999999999999991118216,1.67419643801844575392579,0.329895427339155777879398,0.072568918946103677658499,-0.0163511811818533372986373,0.0996732184008923133289315,0.022451129210636664584877,0.0323690143350219838858095,0.0256369356848562060524621,-0.991599611218400567302922,-0.122519582805285229265557,-0.05802659020509218223971,-0.0903257708195844555287835,10.7323032095108654715432,-0.201702285073681819582703,-0.0590947485330128099989544,1.10445322544005719578308,3.72197018306746052473954,4.94739783756266326975037,0.57773985099785118979554,1217.55082823646876022394,1195.14192817292632753379,1198.56102706287174441968,1228.18681577106781332986,135.914917284207945158414,-587.994562561697762248514,-462.273429850801733209664,89.648246170918270081529,150.99327687957139687569
0.367499999999999993338662,1.66887452198019925475592,0.493092153283807399510863,-0.0142772147033225979551041,-0.0106591111273553907495826,0.102665775101719938811051,0.0220056057301892156463641,0.0324951197144751485756942,0.0256117199785382658461241,-0.991593833115652634191406,-0.122529886162608375732574,-0.0579549463364969486001144,-0.0888064546657896247694453,10.7317902158083313679526,-0.200901464864735729287659,-0.057839001021041301642267,1.10694789681837102435225,3.72229924164674974562672,4.94729844129191587143168,0.580531768434044082027867,1217.61541937582569516962,1193.65574191282235005929,1196.96250648788873149897,1228.31484152846314827912,-105.304184251872257505056,-487.549692140828028641408,-696.345984976005070166138,-30.7927467732042430270667,150.997498036984723057685
0.369999999999999995559108,1.59891573577736934019811,0.525828703049351031673098,-0.0730045884420530838410102,-0.00522899521556925012122363,0.104798686026344969879354,0.0213797682683696810279628,0.0326165860626245612818863,0.025571130123411757451013,-0.99158991223578751839085,-0.122534280333743555990722,-0.0578909174342746024599649,-0.0863443843246291947712834,10.7298820973960538083247,-0.200091183182480147895177,-0.0565368205277828606014623,1.10945986801816376399188,3.72262592564494720903667,4.94719619875791494223449,0.583330075303925110752346,1217.02430731520939843904,1192.70417971222218511684,1195.07929713799171622668,1228.03285203720179197262,-358.184276586279906950949,-330.371629560704320738296,-831.66212508276589687739,-213.820265231197282673747,151.001148886018199846148
0.372499999999999997779554,1.45278465187227623367505,0.476511940011400181305135,-0.108783617840110313768065,-4.28091181550863987548272e-05,0.106082049272006762041798,0.0208010970923415521027788,0.0327328895147668205711788,0.0255157171945898687825949,-0.991588344394361831390938,-0.122531141974880353195942,-0.0577945291085204260195241,-0.082988669712164439551394,10.7264314663461206578177,-0.199268965617055510142208,-0.0551849463725425579130324,1.11198304572629091957481,3.72294918650207007360109,4.94709102017970892006815,0.586133698840717642930542,1215.82449799289429392957,1192.00388376501882703451,1192.80419586247489860398,1227.24574020230716087099,-616.57361461943708036415,-291.068244213283549015614,-1030.42426566589620051673,-454.997933521053312233562,151.00494151047365676277
0.375,1.21225253227429297098183,0.362203559296161436975581,-0.124301361070062565961081,0.00479925521744857964262509,0.107130176431519702484607,0.020287085626286643913474,0.032842310106620892229401,0.025453721075989747812951,-0.991588777402645504821521,-0.122519774640378081853598,-0.0575826402885653287899714,-0.0789625551327689662040044,10.7213188829212615615916,-0.198428020962516771241724,-0.0537974806737142180468325,1.11451119163559564384514,3.72326851700813232781684,4.94698387430552610766199,0.588942534026502317878737,1213.94143924211221019505,1191.24883849115576595068,1189.92717580966223067662,1225.75786236959652342193,-710.104576171715279997443,-302.949302199340024799312,-1030.35563930597982107429,-612.836763304130158758198,151.009661666878741925757
0.377500000000000002220446,0.991245245006664998932422,0.249660393471484165495156,-0.117279611638449951516172,0.00712052624836634947408376,0.107626154029467305250911,0.0200112639534302284849421,0.0329440837201826278168859,0.0253941303198820383935086,-0.991590537965162166500477,-0.122501251436848465625751,-0.0571932858725800741250822,-0.0745190773435117914669235,10.7144548753967114862462,-0.19756385632998560430984,-0.0523914178351831058555454,1.11703740676594875935734,3.72358370838719032747122,4.9468747417255132248215,0.591756016412957719374788,1212.27397511203571411897,1190.48913725402212548943,1187.65241766594499495113,1224.18155638578650723503,-619.847273864706380663847,-373.35893892259230142372,-833.913517830750720349897,-661.560144696840666256321,151.013740309598517796985
0.380000000000000004440892,0.793597204087607699385387,0.149955014146387705098462,-0.0940639704624710165647983,0.00798970147142606494650163,0.107397413199454866417071,0.0198515789453556357191388,0.0330430980735050977559197,0.0253428124811094883372942,-0.991593024483073293140478,-0.122476046411028577365343,-0.0566942524790931268174887,-0.0698700534793952610090884,10.7057805886850641030605,-0.196685871164072934025313,-0.0509785433105892429872519,1.11955232111935454319962,3.7238948699437899314546,4.94676396174758448154307,0.594574734819946937314228,1210.84220287278867544956,1189.38204379654280273826,1185.75760822050847309583,1222.45006164611231724848,-493.265629350662038632436,-515.928957649702624621568,-670.698731745096097256464,-688.52944153668374838162,151.017974929982784715321
0.382500000000000006661338,0.639601172718516020054835,0.0782080363560666153022183,-0.0601761122707628604011632,0.00853488459449852632232592,0.10680173968531864181486,0.019751768223285292441771,0.033144887197168911019407,0.0252957958572348207137992,-0.991595854754322880708628,-0.122445394981015170943195,-0.0561945617353235282731561,-0.0650278028912216615742281,10.6952704116848149595853,-0.195808072992541409851341,-0.0495495588887004609346398,1.12204628645560089417188,3.72420163032296969163326,4.94665232349115502330505,0.597398913302036982386767,1209.80764696528240165208,1187.90949246577361009258,1184.29892400721951162268,1220.73890917810308565095,-294.475895314780871103721,-667.96793237822328137554,-469.434837428479625032196,-650.117756491271734375914,151.022342330786699449163
