t,ang acc x,ang acc y,ang acc z,ang vel x,ang vel y,ang vel z,quat x,quat y,quat z,quat w,acc x,acc y,acc z,vel x,vel y,vel z,pos x,pos y,pos z,mot 1,mot 2,mot 3,mot 4,dmot 1,dmot 2,dmot 3,dmot 4,vbat
0.0025000000000000000520417,0.622222818364596252926901,0.227391149940989911737432,-0.210629948704827374417192,0.0197400827787544766445116,0.251553648696141329832443,0.01761526607442211525556,-0.00260118049810646127101288,-0.00807455916951659545544029,0.0168864467614419991314811,0.999820889908832777237535,0.0340786390786137691200075,-0.0546410048237432055540097,11.2918084732159602623369,-0.0967978392957748734470869,-0.0100385099954237097530374,0.810121021274549657498198,9.10764090126814984671455,-3.69441092536795379075443,0.170172104037222021721831,1153.26988902168955064553,1205.89747888159172362066,1203.11867423924104514299,1142.69133340661892361823,302.572605353088874835521,1424.44465667786062113009,-960.909573165190522558987,-366.560993260009126970544,159.894375132185928123363
0.00500000000000000010408341,0.0121560159823560776093387,-0.112700081289123746342007,-0.304282434497159914865705,0.0203942735425334011056808,0.253416470219476441805284,0.017746289433155908871198,-0.0025380713266240336259405,-0.00782993564474887375481682,0.0169249047773728303334373,0.999821742040436833853789,0.0386125572018075069458121,-0.0547345186876233985584506,11.2907073676896292369065,-0.0973924592598689742306561,-0.00980876679391213569803032,0.813661907712886378618578,9.10736720976482594380741,-3.69444344786601153174388,0.17220241425584484340483,1154.02632053507227283262,1209.45859052328637517348,1200.71640030632806883659,1141.7749309234689008008,294.553004045610634875629,1279.35380349031242985802,-925.834026925758848847181,-312.514967283777934881073,159.897151579155945455568
0.00749999999999999972244424,-0.632985847710923144049389,-0.554428470819625984766787,-0.404836109861066884008096,0.0203631776145868290117669,0.254913891481031329444562,0.0160781893289046254325037,-0.00247453525245400858187383,-0.00757717519172389566972647,0.016953334832507698654025,0.999822831129003275485445,0.0430194781711422252756805,-0.0547969726527420125661294,11.2895526075825127776397,-0.0980038390126916070244079,-0.00958411580438678703530719,0.817207801751482221241929,9.10709280000540211119642,-3.69447245775727939332,0.174234118111120717120599,1154.74265404191760353569,1212.29424789904328463308,1198.48950410461225146719,1141.12875857020003422804,273.986109826000756584108,1015.38747612453335023019,-934.181415493230815627612,-186.644208585130400024354,159.899620279488914320609
0.0100000000000000002081668,-1.40875555373134497827436,-1.19120269857734895069257,-0.474484954345328668878778,0.0186124706988694994802547,0.254598073192785823160023,0.0130305216089984157029624,-0.00240893738687218391184008,-0.00730902381140879735255123,0.0169655718995610736710145,0.999824342342322536225652,0.0471817235688528693882127,-0.0547688110956850437993637,11.2882887552060662272879,-0.0986440150243133168084242,-0.00936722527094278022141705,0.820761434546420809432732,9.10681735004341419426055,-3.69449569041954939407901,0.176269574781911103622534,1155.39625108420227661554,1214.53552790390904192463,1196.04549322886191475845,1140.84170988054324880068,184.63021984807707553955,590.923268964070189213089,-854.645922512099673440389,-18.2394068530811601647201,159.902240611426350369584
0.0125000000000000006938894,-2.01581965495892889705942,-1.77375870937680768513189,-0.463271775800083440710608,0.0149713333648955268517788,0.251728650464374481554586,0.0105354970239811916027373,-0.00234821573218508151265072,-0.00701928745569937919540626,0.016961336310475121774699,0.999826352535202578231122,0.0510099288776764275832321,-0.0547775615563938014784817,11.2868442040011824900603,-0.0993238053659542541318217,-0.00917415788650560379280385,0.824324706316215793933111,9.1065421241422246367847,-3.69451355422400640193814,0.178311137249382578584544,1155.6658051411579890555,1215.24886424386363614758,1194.21627449205175253155,1141.03756153593462840945,31.3167658865495504016963,18.0829343054483651087594,-682.647508363197744074569,150.881363179223654924499,159.904148370376361754097
0.0149999999999999994448885,-2.52209720182749075334527,-2.34609400854023730786935,-0.37239382352395966613301,0.00865029270216852511077299,0.245913654130578723799871,0.00864630689462927634614253,-0.00230476596466998220197331,-0.00670955271770965009509036,0.016945143185556062886965,0.999828778624034075761529,0.0545919130402043248362354,-0.0550716532890023133250956,11.2851329677398730666482,-0.100041456825413974107697,-0.009029139227771165038261,0.827899466054437760398343,9.10626850154125477843081,-3.6945271585594721130974,0.18036027239569060731661,1155.55283491363502434979,1214.62594257543628373242,1192.63225568704592660652,1141.59611669643936693319,-117.337218558213834285198,-476.521798802423177221499,-588.824321080301047004468,254.751868485482134474296,159.905779940761448187914
0.0175000000000000016653345,-2.90211009341771530856136,-2.86259187536698922471601,-0.224285530402142718742198,0.000373642494736138922311469,0.238165992511653351604295,0.007521783419942337615971,-0.00227787325504809302564868,-0.00638658424349075604098402,0.0169216264602450421061786,0.999831418167486107861919,0.0581369071895977071462447,-0.0556026483818577721418563,11.2830586132042753888527,-0.100785866305229745987226,-0.00893410417758438817059652,0.831487088951491482013978,9.10599514395637221753077,-3.69453747746707295007695,0.182419238915191683769734,1155.07911904836691974197,1212.86625524985151969304,1191.2721528866502467281,1142.31132087836203936604,-278.456437067052263500955,-967.587720752316954531125,-489.578161309782331045426,278.269081252392368241999,159.907189380643700360451
0.0200000000000000004163336,-3.09853468067690673848347,-3.27285854257476049866682,-0.0276770519634769729400148,-0.00893449733094407901046186,0.229100659421903163348588,0.0072758050842536428973184,-0.00226379883567179003914238,-0.00606645409465038972646189,0.0168949102672061382546254,0.999834007320991147160782,0.0620606011382299135870078,-0.056257120546344296929675,11.2805162562433469730649,-0.101529513726856104871565,-0.00888476615844316537640157,0.835089079014738722150923,9.1057225001659922725139,-3.69454633778961039070055,0.184490675377941282242489,1154.16055272829976274807,1209.78800397167469782289,1190.18436488049701438285,1142.98746210270132905862,-498.854775227619256838807,-1627.43567240136235341197,-424.324321308631851934479,229.602152592042443757236,159.908338554313047552569
0.0224999999999999991673327,-3.12041044558446412082731,-3.62443548412009963755054,0.234903633231739572551078,-0.0194091378365769673397523,0.218004709951730851758001,0.00747245183541557934231436,-0.00226043081163447524481458,-0.00574995469796538236778582,0.0168767802704259881063642,0.99983626036303197004429,0.0664244074210216250975236,-0.0569553574566927511835246,11.2773986898756923835663,-0.102269371782505988366374,-0.00887550881906153804612458,0.838702321145570972582561,9.10545224855990298351571,-3.69455470041776923295629,0.186575090838277696247971,1152.58484517222882459464,1204.72907688784471247345,1189.15053128010708860529,1143.45933164132225101639,-644.071141292761126351252,-2048.27052093269185206736,-346.562317900270443260524,81.7633998983182976871831,159.909425774397476516242
0.0250000000000000013877788,-2.98314037239022544767408,-3.80620174713015080314449,0.454178657246736061647852,-0.0268338915265798616527348,0.209101665153550747566769,0.00807068714580438072159208,-0.00226789981152104207565157,-0.00542548270942788072451757,0.0168737931745531512250924,0.999838072940717137448985,0.0709966184780737030735054,-0.0576698826627989880044822,11.273599494075870808274,-0.103022123484316732722199,-0.00890315090247680886170745,0.842320060863811503892862,9.10518179004726313507945,-3.69456336974712273857335,0.188672132630233441163981,1150.94019702183595654787,1199.54665136701123628882,1188.45155329099566188233,1143.39627910219292061811,-705.948705664832118600316,-2221.85928248786649419344,-265.490908432320736665133,-145.040636381827397372035,159.910094862075311539229
0.0275000000000000001387779,-2.72307894350173373965163,-3.88869817550333785050043,0.645836622040324215276996,-0.0327288916402966936769481,0.200366546074834284141275,0.00973666641295647429521498,-0.00228348849150297912580232,-0.00509342939945660756057011,0.016888063102870526366317,0.999839378209233853311844,0.0758007965834788660641763,-0.0583228224821343843586874,11.2690125456126590819395,-0.103782989771721109728553,-0.00895897319504496136843841,0.845937521761483957050132,9.10490907596082266195481,-3.6945731249423472419835,0.190780758875245426420264,1149.0551016439046634332,1193.61978047540537772875,1187.82307673794548463775,1142.73412845941311388742,-857.533267017743582982803,-2709.34087464143112811144,-282.426722283617095854424,-436.436887576201343108551,159.91052497039052582295
0.029999999999999998889777,-2.30572150442747103582519,-3.88769557456922143501288,0.813051258370325657942601,-0.0387710287170956319213744,0.18972178036058318095769,0.0129041743113150406130352,-0.00230148173376076977877935,-0.00477126055107592213222478,0.0169179595761684911647826,0.999840110952858185378034,0.0812264361460979245066483,-0.0587871463583771458605298,11.2635327583487629965475,-0.10451672690714584879057,-0.00902850566539090126916278,0.849553510695044145073496,9.1046341595067072915981,-3.69458593741310803437727,0.19289980477377330347899,1146.6525306867472409067,1185.99994699380408746947,1187.0394196795775769715,1141.21409466431191503943,-884.567132406845985315158,-2823.77453279545943587436,-303.539172423415891444165,-669.059090948712650970265,159.910772261333022470353
0.032500000000000001110223,-1.88359933784810906765017,-3.80816571462345576648545,0.886344376294738278687646,-0.0434779549379233701267289,0.18069163181908898252459,0.015790696983637626110708,-0.00232126197041932283426924,-0.0044867879170031373797789,0.0169622912780238999097548,0.999840162029431822610093,0.08787051166441442462407,-0.0590688533272346744107395,11.2570575358669380250376,-0.105168996186603136422377,-0.00910446244849517569153186,0.853169246429219985117243,9.10435834710471247888108,-3.69460322777278671324552,0.195028650535412295674575,1144.63226598187043236976,1179.50090781142807827564,1186.30538087582840489631,1139.38883300466955006414,-790.528828818514057275024,-2566.09898358151212960365,-313.582665745661586242932,-820.427352690966699810815,159.910759327384397465721
0.0350000000000000033306691,-1.38912875470811303380003,-3.64756426137971923040482,0.889499810202684981774723,-0.0479171458748529344173761,0.171805929779995758543976,0.0182941229707311928120994,-0.00234786041508152796761233,-0.00425784220529779738884102,0.0170159547868951599447485,0.999839555302589944041358,0.0960768305149925366803743,-0.0593122573559035498602654,11.2494910377430361592133,-0.105700947999941785582223,-0.00918878859471252557034049,0.856784253034074905208684,9.10408187636034327283596,-3.69462588049545592738809,0.197167716146420674006023,1142.69988654265466720972,1173.16945207589651545277,1185.4715063508492676192,1137.11195790085707812977,-808.634225393826000072295,-2677.80331937892833593651,-378.119096335103847650316,-1061.93330436040059794323,159.910524574246323936677
0.0374999999999999986122212,-0.720177085585164356018595,-3.3600732178948184980527,0.823419960584366839029258,-0.0523614796120270842294531,0.161755319647701234497816,0.0207762924334890450306368,-0.00239304089375202934039666,-0.00408436713568022420617343,0.0170687779850367052358884,0.999838499843197170413589,0.10575700919947804423682,-0.0598203681435891809758942,11.2407471105731673333139,-0.106103336655963650936307,-0.00929548463636201485749133,0.860394684460837555484147,9.10380138485329482023189,-3.69465428338247559025831,0.199316759646902014191383,1140.58909485490130464314,1166.11189121453344341717,1184.41478539415288651071,1134.07916648286754934816,-725.656165946066153082938,-2453.35267904251986692543,-379.34304062359859699427,-1125.16937896634817661834,159.909992203703893665079
0.0400000000000000008326673,-0.118068181816426573393919,-3.04080925002989710392853,0.721065283080174146412844,-0.0545864521531796639819412,0.154045908980827650491818,0.0225368567629418564690624,-0.00246503476409571384633801,-0.00396230159859479232759005,0.0171107009262330932164442,0.999837283432825962847801,0.116707458584985421246039,-0.0608278315017649340301631,11.2307487766348312874243,-0.106373326987905372775778,-0.0094332159136727954107382,0.863996530336241019831789,9.10351408013476515179718,-3.69468860253207775912188,0.201475160234832945116423,1139.07160571292433814961,1160.90268868068392293935,1183.57479114773127548688,1131.48611100602533952042,-542.705007136964468372753,-1902.03978861804739608488,-302.352021749947823536786,-1008.91391476602530019591,159.909343539912327969432
0.0425000000000000030531133,0.488908116611271759133217,-2.63831200675638566366388,0.581877374982082473664491,-0.0545149658309450335647028,0.14723023299156837162549,0.0240494491382157241088358,-0.00256313818137500525409789,-0.00388226346925837125650949,0.0171407489628020090477456,0.999836145298624190402847,0.128583581084798781457579,-0.0623785051733809214891124,11.219430180572464550437,-0.106517667027479945307533,-0.00959463139529879299738369,0.86758550535450584817454,9.1032204606748603481492,-3.69472764519331420274284,0.203639887985899298294967,1137.87556981921648002753,1156.60169227144319847866,1182.90302528540314597194,1129.0345969090374182997,-417.11304575082999690494,-1549.26887579413300954911,-224.61411222830076894752,-931.27920095439594661002,159.908486645181369567581
0.0449999999999999983346655,1.05841504618655246616754,-2.16710624287463682335897,0.420421733929840391041921,-0.0522319142811759548616912,0.141410491600889864916013,0.0252395972837132637200952,-0.00267728557499049071854991,-0.00382473818173370647827136,0.017164773211861761997854,0.999835337724799266823084,0.140795426840164272785927,-0.0643122456239416245837859,11.2067397548096909787319,-0.106562172111564587573262,-0.00975637090658410671695222,0.871155841276706310871702,9.10292267598373427972547,-3.69476804236194400488102,0.205808727861489099142389,1136.98604048417018930195,1153.15634430171326130221,1182.45172058658977221057,1126.82971500125336206111,-278.191157070659869532392,-1163.61716420210609612695,-118.761332445228674714599,-799.965413209657072002301,159.907460714689619862838
0.0475000000000000005551115,1.53318368112584035856116,-1.61428555067433165959301,0.241574910845666762648776,-0.047501664142330354834165,0.136775917467198304677822,0.0258649585808270257580865,-0.00280154694816023459857934,-0.00377692743480128028527032,0.0171875364056410344371084,0.9998350565926937827399,0.152885061633312224760317,-0.0665697243470566024647894,11.1926365661686570973643,-0.106523703525272378511701,-0.00990501268555123159931242,0.874703067413450940925657,9.10262282636841213445678,-3.69480728544976422256241,0.207984124080802995626627,1136.48461403386318124831,1150.78360645043267140863,1182.30921862317700288258,1125.03476984298913521343,-136.903207293062109783932,-808.212035862651873685536,-0.50083676551366762552675,-677.195728356718404938874,159.906235692013353855145
0.0500000000000000027755576,1.95101556278521837128892,-0.860454036470519323387407,0.0171672354571367272169091,-0.0402758243867900322943143,0.132396758408469927825735,0.0259247985905607693235542,-0.00292775638724677208374336,-0.00372157637978232959385938,0.0172130420755339207106172,0.999835140962348045690078,0.164283536484036513103391,-0.0690406599888344629789572,11.1770950366867793945858,-0.106429849197005127470206,-0.0100256761265027985463583,0.878221285135601048565945,9.10232414049812277312412,-3.69484389603459062456636,0.210167371563081240015691,1136.3015244477048781846,1149.11528412239999852318,1182.44921640276220387022,1123.44373635946976719424,-9.76779446914406968005551,-439.131077048159795594984,82.4471098535923800909586,-484.379921426625742242322,159.904542060060208541472
0.0524999999999999980571097,2.16597309848655683595098,-0.16585052243497286350582,-0.173390066465257008943013,-0.0341220222250367896665857,0.129969064309098519816033,0.0255861572851381786908309,-0.00304533532573990871339387,-0.00365002720191096854604473,0.0172442300182049854107014,0.999835378164419030788679,0.174608804233104347725103,-0.0715603761864617299304214,11.1601021130334085995628,-0.106296126408928784390362,-0.0101018543171002422864646,0.881705646047703739398571,9.1020302672323953885325,-3.69487656371880346384273,0.212356929755092793676852,1136.43577506151746092655,1148.58795106519187356753,1182.72145417244496456988,1122.61287023585600763909,91.1476074092206971499763,-73.8271837750744879258491,107.632614073963907230791,-232.120440499738947437436,159.902949470001175313882
0.0550000000000000002775558,2.26079741850825266524794,0.571937523061159414083932,-0.36578541394359814775683,-0.0285272546136420522555621,0.129650314241993663832986,0.0251491220378770238830235,-0.00315281505772693629655046,-0.00354757741444835811989167,0.0172792619998938593028903,0.999835699238191377702378,0.18333984103026937373393,-0.074155671932212022245956,11.1416623133416781143978,-0.10615147917225703499966,-0.0101356438054913747248698,0.885148673041275646511394,9.10174376943854390731303,-3.69490494979568495637068,0.214552888446448181136716,1136.75726248475098145718,1148.74614820352462629671,1182.98737947313202312216,1122.28313415697107302549,154.730992496752008946714,169.796400252971437794258,79.9291907835594628295439,-42.0885289784564164961012,159.90117524364825385419
0.0575000000000000024980018,2.27311924159029654646247,1.4565003697460781051376,-0.596012884924026153932175,-0.0225337195910204728110937,0.132337783021056337728893,0.0243633751699793774103675,-0.00324971584427057600188982,-0.00340974719428199096737941,0.017308668912357265401436,0.999836181801909695820996,0.190189008052012359373251,-0.0768634350486653572520623,11.1217934765363555271733,-0.106008478384937085414741,-0.0101342232933090154595179,0.888543577427260533596609,9.10146313265606821119036,-3.69492974092379400374853,0.216758209154274350538572,1137.20943002400122168183,1149.43693306645673146704,1183.1211001263627622393,1122.40242759096372537897,155.796638227002489429651,293.84001459761765318035,2.31943960570788609842907,114.615524105602219151478,159.898844185952782481763
0.059999999999999997779554,2.22517345371836183787195,2.14857470688966900596029,-0.780204756111711250632368,-0.0179491377835571640220191,0.137127299290773690954026,0.0232140942433981950498989,-0.00332966941002601829122098,-0.00323701844413910692910274,0.0173281591526572437134135,0.99983686498007151577383,0.194991671082236917023067,-0.0795761663582214701095907,11.100529607018627231696,-0.105871457754467004908072,-0.0100941573301092015618741,0.891883217568019803778157,9.1011856731528162356426,-3.69495159969224928886433,0.218976107701804673100199,1137.536245675885993478,1150.21534827651271370996,1182.99897667116056254599,1122.85621177749908383703,100.492382298216455183137,309.342112162176078982156,-100.912751536407142793905,232.427063506975287054956,159.896739428832546536796
0.0625,2.13790282562551459122346,2.74423706004542511394106,-0.939797629230320952231637,-0.0133381618085497283265894,0.144071737120083753769251,0.0213756485223724965183401,-0.0033861964460198596717222,-0.00303161293686688392001738,0.017333433376612757126356,0.999837817141869145132205,0.197637110769055462933252,-0.0821664547189130262117018,11.0779221259507494323771,-0.105741624362599914710437,-0.0100121525247338361008786,0.895159622562566870129785,9.10090984196762065039366,-3.6949700466656674180399,0.221208331186500961607067,1137.71189193549230367353,1150.9836436272676110093,1182.61653636868072680954,1123.56456290849860124581,29.7090356788885152639068,302.118188559688576333429,-217.552768763198201895648,340.782100542446357849258,159.894473552991854603533
0.065000000000000002220446,1.9977335785527154943253,3.30690058227778127530883,-1.07615539583862362960076,-0.00757147154582990360160988,0.154098838605312704608252,0.0183629485653595270200356,-0.00342679634665798071510578,-0.00278601008612395671312778,0.0173256167135293279168984,0.999839001393179716004056,0.19781385934550238525631,-0.0847948456706675846028531,11.0540430866062262538208,-0.105637915608849178306095,-0.00990841804411149960907235,0.898361980493309397743928,9.10063229420529040680776,-3.69498521429194193288481,0.223455011037672846008206,1137.68479085428043617867,1151.72593921931115801272,1181.91121282734457054175,1124.56012228021131704736,-51.0770279088319085758485,233.288381117699628930495,-287.557055613296824958525,366.86487960555461995682,159.891576173544081029831
0.0675000000000000044408921,1.85368849764204379759747,3.63456916439327892831557,-1.12333024320929464323626,-0.00275745555682982076972642,0.163440292686022003998403,0.0151393612179856491134489,-0.00345138308189507549833541,-0.00250633265021794806454158,0.0173063865944900439897136,0.999840358012686669653135,0.195541221938106746236485,-0.0874379443373428932861913,11.0289768184220058344636,-0.105554574578246962435202,-0.00978963706080936829634354,0.901482992884948042267013,9.1003511757424870864952,-3.69499731860217384138423,0.225714088010862179434213,1137.45650679594814391749,1152.15008553285611014871,1181.17875109061424154788,1125.3988873065263760509,-127.426258622426644251391,137.494666619295344389684,-310.423796241320530953089,312.313056354650768753345,159.889018524866543202734
0.0700000000000000066613381,1.68484957285119518743954,3.81698790434258805603918,-1.08298721157941946202641,0.00190977857767619463649766,0.17334343878435562458229,0.0113382476798615829116645,-0.00345061580600341307606405,-0.00220797209654887685234548,0.0172787685854830092013756,0.999841813591506145542098,0.191075021353820262426382,-0.0898525472903800442869837,11.0028206459178647946828,-0.105469147183574432635744,-0.00964499067432533774280046,0.904518777871907930787643,9.10006577929983606622955,-3.6950075387906431423346,0.227983719675199453247316,1137.04765956116830238898,1152.4134125524076353031,1180.3590938461379664659,1126.12168756198457231221,-183.175362133579596957134,95.7464365385933007246422,-337.187495295530140992923,255.286964023799129108738,159.886318358973994691041
0.0724999999999999950039964,1.50207543948860222648989,3.89312105730862123564862,-0.966905886562990146693153,0.00618288817278218796186229,0.183286605341710401306798,0.00760388973897259141249139,-0.00342068787022061166283593,-0.00189643015268084686245076,0.0172456048558330653219794,0.999843303921483683716076,0.184483548002979030888682,-0.0918962906862996059542681,10.9756891720498455100596,-0.105378223332623130459318,-0.00947211746636097279283817,0.907465048147787722854218,9.099775943231939834277,-3.6950171044619595228653,0.230262744057290885679734,1136.540629985280247638,1152.62881771554907572863,1179.49281361413659396931,1126.6753221266453692806,-208.629897112451033081015,101.765906623040990552909,-358.517322985336022611591,172.378290669849178584627,159.883504256580920355191
0.0749999999999999972244424,1.31730305028918470711119,3.87128998780274891089448,-0.773961086487487182061784,0.00941666888524048638353658,0.192651613582832975657411,0.00480314694268747788274965,-0.00336939253470859827882533,-0.00157237819738910195206671,0.0172164981835098325479994,0.999844616377498884851605,0.175762710158399143578478,-0.0936654505209368326568153,10.9477084138912648114683,-0.105289694132331523857005,-0.00928685147099603432174764,0.910318412147732791694921,9.09948356634432542477953,-3.69502692612898542279254,0.232549663741090123503241,1136.00451007560604921309,1152.9222420855228392611,1178.56650723121128976345,1126.98357901533381664194,-215.788200361157379347787,182.53620377531643725888,-432.381420820683672445739,83.0281157872376951445403,159.8805575518000239299
0.0774999999999999994448885,1.11508167699079718815369,3.77814940006913779768638,-0.491189790720826191527948,0.0119426960229234869342863,0.2026057302049730224347,0.0028614756362377244403028,-0.00330305764491380278446986,-0.00124112520641117877150117,0.0172014910854802922923756,0.999845526710916310264565,0.165053382415156879581275,-0.0952102415772951016226244,10.9190105115520275091967,-0.105205855783212620657707,-0.00910136468136089546443479,0.913078819550942499816415,9.09919288169927398257641,-3.69503684036766655296447,0.23484197494791603233466,1135.4616889834744597465,1153.54149873442565876758,1177.33090651003317361756,1127.09046270558155811159,-164.132782233173060149056,294.176081249861169908399,-488.321749674514194339281,7.74038919516896584127608,159.876873967097765216749
0.0800000000000000016653345,0.972293902525660391766849,3.67332948234104250673226,-0.246165939698516883504809,0.013621782736896523649528,0.209871747500170208189374,0.00227376215394595269231326,-0.00322372942457574461830316,-0.000907757513481671708850673,0.0172022466885630408162111,0.999845967395681101130833,0.152539077340293455220532,-0.096472298583446677855413,10.8897331252985374305808,-0.105132300286640251174575,-0.00892072600962625326947997,0.91574847874988440921129,9.09890807245544408488058,-3.69504683067460382162039,0.237138456730502544811401,1135.1838461644401832018,1154.39312249177214653173,1176.12489848283871651802,1127.02228096130966150668,-61.7637923048277457382937,430.991096633260497128504,-540.60383695941663972917,-39.3928342093203909257682,159.873685270319072060374
0.0825000000000000038857806,0.853875443296385872038456,3.55364060550730620491322,-0.0291087753140459107314975,0.0155127980036628698723433,0.216882774231433150813331,0.00271707570905189554205661,-0.00313156153561368767040962,-0.000570929151697281765491521,0.0172194059365829675589676,0.999845903998580198823731,0.138311832107391480262137,-0.0973417384493141385481962,10.8600182686783224284,-0.105089192329837988193475,-0.00874543332260541497746864,0.918330142736725973939826,9.09863305856600668164447,-3.69505656135728655087291,0.239437533150365311485075,1135.15287002195032073359,1155.69645421759196324274,1174.62788732523608814518,1126.89349853453495597932,41.7886745527539105182768,691.782655294400115053577,-747.797182369185293282499,-48.1286441131941984394871,159.870377331406729126684
0.0850000000000000061062266,0.725856050796116814005643,3.37455192533995917969492,0.166735460497628162901407,0.0179896785185673334372947,0.22596636824206139948501,0.00431759020116251595461376,-0.00302748388778091136880333,-0.000227553789672479419388049,0.0172498380144214258358204,0.999845371508281788308636,0.122475084224420507905684,-0.0977205971429835756891791,10.8300075897815837322469,-0.105101912430379321183871,-0.00857702068147457759306196,0.920827473237351368240411,9.09837085125718481037893,-3.6950650745701998367565,0.241737283268135122460407,1135.39278953720395293203,1157.85203576824414994917,1172.385912570992786641,1126.78163774074369030131,121.266736128018123963557,889.836445985883187859145,-904.11343206032972830144,-22.3149571920657550094802,159.866274552061724989471
0.0875000000000000083266727,0.620051154649298719157002,3.16631960369742992966735,0.266043369927637829430722,0.0200215959961568511216168,0.234147796053127965620888,0.00613036750581176861918387,-0.00291891871456179639865436,0.000126546966445715913058764,0.0172925878859102599705011,0.999844353702783128490239,0.105153586803457099740911,-0.0976521118197878762456909,10.799839516290498764306,-0.105198689244235574213882,-0.00842732080931601901241379,0.92324428696777738334589,9.09812182490766474529664,-3.69507172233893355084433,0.244037187463091248540437,1135.75920370259041192185,1160.14563644752138316107,1170.10732016493443552463,1126.7819237485746270977,155.813282554527461343241,1006.04330713158753951575,-992.377561528475780505687,26.8935024460916380917297,159.862747624576627458737
0.0899999999999999966693309,0.507391850642203379173623,2.85902836621964961949516,0.307645075466325024216019,0.0218482464780686037875146,0.242462444005338451091802,0.00753501527807095769495582,-0.00280863868710864907768388,0.000498593690204303732760316,0.0173515421743464133552681,0.999842778185017655445677,0.086451046566828976258634,-0.0970822730465066979776978,10.7696500734478206595668,-0.105412146246544269345691,-0.0082971943706162832460338,0.925583447982515905572143,9.09788609708326845293413,-3.69507637926354348678615,0.246336628575402893925883,1136.17185594997658881766,1162.88225230390207798337,1167.42402476335041683342,1126.91610525297414824308,156.974258019409091957641,1266.18574912058898007672,-1253.20990579566796441213,93.9988964498299424121797,159.859112059202630007348
0.092499999999999998889777,0.364972269897455792175833,2.34789704283662903350205,0.321848612044942417043103,0.0235999046775760695782154,0.251878409496343269591279,0.00815039269181250594642485,-0.00270234430901470029998124,0.000889881994725972408875891,0.0174256453127864807672864,0.999840674375581439647931,0.0666343427910987690099276,-0.0960286425046441710628997,10.7395699489816394134323,-0.10576100069456806362922,-0.00819259543308286687646191,0.927847612266526455826465,9.09766322199923038738234,-3.69508125844640389345841,0.248637372863390576638309,1136.54407499268745596055,1166.47656519312431555591,1163.84127063595610707125,1127.25191823082377595711,89.7001542984980062556133,1326.31605989386002875108,-1351.22529881609693802602,155.374057098197084769708,159.854627387734296917188
0.095000000000000001110223,0.24731251360925401994173,1.80262316614988082896787,0.329713225700689283037548,0.024427908181065344922489,0.258506140280895468919198,0.00809321714124906603504694,-0.00261019519076351961400784,0.00129957125455110373592194,0.0175055764521393451838005,0.999838237073695346168734,0.0460408071055363257717552,-0.0946144520087434798272241,10.7097264818056849833283,-0.106255168145384340516735,-0.00812797697953041367591176,0.930037602184006662042748,9.0974493086916119466423,-3.69508847623230973766795,0.250944030981940069402469,1136.62035672146907927527,1169.51383260337138381146,1160.66789826926992645895,1127.69297553846513437747,-46.3364512684165248401769,1162.97058624995656828105,-1277.02160738781344662129,215.529030561537894072899,159.850790912572620072751
0.0975000000000000033306691,0.143400667421835298354083,1.15981261253407330613641,0.355074518262288640890745,0.0244919255146973102732488,0.262928334366426930124305,0.00815424632598881621303732,-0.00254816667282383802276002,0.00173098367360718170988865,0.0175829070855000636763865,0.999835672896743354876037,0.0249304647407224064248332,-0.0930988581170288098665111,10.6802453512997068685308,-0.106906140698302370983797,-0.00812702010642428473996546,0.93215076199131829959299,9.09723679108979688123782,-3.69510091420499842129743,0.25326217870558237477141,1136.31239273634537312319,1172.29141812437410408165,1157.4561625990170341538,1128.32956338363146642223,-202.365068601056748320843,1023.71015625535528670298,-1268.57740442774115763314,291.594299618782031302544,159.846854057064092557994
0.100000000000000005551115,0.0588213224920811281193345,0.472361565488548018620918,0.401071178375334069787783,0.0241279150815283775777242,0.26510339661646697972941,0.00850136393642419822824774,-0.00253123302931976268403957,0.00217626008172002068097317,0.0176494120773959851933288,0.999833258004451330691609,0.00380422303453803976880376,-0.0917375014769835489536476,10.6512511501794104873397,-0.107697521772351936797385,-0.00821126171236080670823299,0.934184837465059980665671,9.09701884747185296475891,-3.69512107701437164664071,0.255595778885053137585714,1135.60853137846379468101,1174.63238338464816479245,1154.32501124713121498644,1129.15094703655904595507,-384.43706665152569712518,789.803114815230628664722,-1211.83994641964886795904,375.780139943708149985468,159.842835761572445107959
0.102500000000000007771561,-0.000319759609342282549726555,-0.21673538974606965101799,0.469391178822362753475517,0.0237115184399967274253562,0.264738570098422609788713,0.00924152283495767445931079,-0.00256100354593833757013699,0.00262632698030180761900043,0.0176994117717294494052105,0.999831247869652051107892,-0.0168191716348901273980765,-0.0905173400211081030652949,10.6228712810146603828798,-0.108603451977914086667987,-0.00837701098321563808468682,0.936137335798136294151561,9.09678992827716292879359,-3.6951485125305163492726,0.25794430687430719428832,1134.39020740308774293226,1176.24043369845026063558,1151.39696286691878412967,1130.20846408335000887746,-647.140254008674105534737,510.097816782446045635879,-1225.76145085004327484057,516.194520217551257701416,159.838721252418139329166
0.104999999999999996114219,-0.0495465317924348655487243,-0.983582123413831999059198,0.56588408619041963287799,0.0236222971608578552471513,0.26190368941475239417116,0.0106284601285754135013839,-0.00262732506177296761679107,0.00307780430083897868498433,0.0177287672798212975200371,0.999829684676246444041681,-0.036562057850499124489474,-0.0891910644277939534951827,10.5952347830083706270443,-0.109602861774850637854861,-0.0085990864656440308549934,0.938005502481349062726679,9.09654847862623938681281,-3.69518144994210029352644,0.260305110169338160819308,1132.37283010842043040611,1177.18287246856039018894,1148.19620399288100998092,1131.73191963764679712767,-813.67402486785226756183,180.221814683818934099691,-1118.66586808260058205633,592.356367995990922281635,159.833674967650722464896
0.107499999999999998334665,-0.0814455194166495005658746,-1.53807050096785680182165,0.647460901498649654683959,0.0238787944703555132797135,0.257973737582503581666771,0.0122597962130773317085408,-0.00270863858438275722020916,0.00351906051135594030027098,0.0177366738353242937853427,0.999828589356786756603412,-0.054901994191250823307282,-0.0872913512208531999769789,10.568470767967724555092,-0.110655190098647937535503,-0.00883221107078726447303652,0.939790679750794111235734,9.09629544983041427030912,-3.69521725967080971742007,0.262674298787282822775779,1130.32183727874848955253,1177.14154277186935360078,1145.8036335265057914512,1133.17024592332995780453,-861.031733788012502373022,-169.201863871466997579773,-903.843966901148746728722,593.823891410874580287782,159.829380581429546737127
0.110000000000000000555112,-0.111251695301433278784131,-1.97969932908641199631461,0.718226504770254070564306,0.0240518483658186156548542,0.25288095109877589683478,0.0142455798715976130613958,-0.00277941905800584100269535,0.00393756220464806273862113,0.017723244995007877283788,0.999827965845775046282995,-0.0713395538040553500724883,-0.0842852353391715380936944,10.5427053144960911623684,-0.111716143436577639014295,-0.00902561787980641315465302,0.941497469278091747568737,9.09603213769395146925945,-3.69525224997176948704691,0.265048500726398350568758,1128.06767143948036391521,1176.3368631492030544905,1143.67698415837526226824,1134.70103909470117287128,-982.244941224825197423343,-490.127997385570324695436,-881.810989824679495541204,669.76211234059462640289,159.824995396207128806054
0.112500000000000002775558,-0.144718135814508180869709,-2.36926259518079618260344,0.782438066047310254447211,0.0236765571661245385892691,0.246028395365078145218263,0.016713729826211370238509,-0.00282198863058666848599443,0.00432729850199189795822985,0.0176932605514356737497206,0.99982772663197994056361,-0.0855647259448741315246423,-0.079817504421645354972803,10.518055531879136665907,-0.112753776466316846249782,-0.00914429356196310057225407,0.943132120603431878258505,9.0957616009001309720361,-3.6952837451894877673908,0.267424487150718814820749,1125.41061257262435901794,1174.69090278494149970356,1141.39457857738238999445,1136.51905648503293377871,-918.458305936473266228859,-679.722369177442828913627,-795.731345006469609870692,642.650418027323553360475,159.819630050989502478842
0.115000000000000004996004,-0.167977643406968329964357,-2.57914127117021285684473,0.817074308090046552699448,0.0228485076062768382998414,0.240027241768397847643257,0.0186239537422919314291203,-0.0028406108429799509576541,0.00468697022486393600343435,0.0176603807090499782816995,0.999827568500222807479361,-0.097425273101884132809225,-0.0740016052965429688148546,10.4946243363643301194088,-0.113746969077974477424497,-0.00919450376355622316093541,0.94470234658874119304528,9.09548690108704604995182,-3.69531052692342498744438,0.269800001498163688484766,1123.47537990979799360503,1172.93825130331583750376,1139.69832743334291080828,1137.91429118483779348026,-658.168890015166994089668,-731.489351596700771551696,-634.715588775952141986636,508.522426953049489384284,159.815074251870612442872
0.11750000000000000721645,-0.187138909012027510048171,-2.67771633039670620135553,0.832509122319608496631815,0.0217653617055591497297939,0.233735645577259509853008,0.0203766495252141049965289,-0.00284119601468591073331615,0.00502404151606737885832343,0.0176356374152882543204779,0.999827212861147174294274,-0.107002515807728917907049,-0.0669866073457136695923353,10.4724993403522184109988,-0.114693114123063710785289,-0.0091873925545558655925138,0.946216195315755848049832,9.09520974070857946003343,-3.69533139390341958119279,0.272173034019392356963607,1122.11976812254852120532,1171.0334560269579924352,1138.22100063350262644235,1139.06166861979818349937,-405.945762795546045254014,-816.900196705093321725144,-587.895946283834973655757,424.876539928482884533878,159.810431971032812725753
0.119999999999999995559108,-0.217952315228293946880456,-2.67769765171101603584702,0.827121003686845268632055,0.020540025541013043341998,0.225835318198271239875652,0.022522552621970948205643,-0.0028276360613156362872056,0.00533363804947944823708905,0.0176198283166307846647758,0.999826634527360758042391,-0.114165617307470879104869,-0.0588883231845432550399799,10.4517558659759259853672,-0.115568415327428161698542,-0.00913363464197197022498287,0.947686044509602809604587,9.09493128542678164194513,-3.69534694939687780035342,0.274542303936098686101275,1121.44565109582026707358,1168.85375031979037885321,1136.75884770192374162434,1140.03867388448020392389,-62.5898994131149564168481,-744.227276921630163997179,-468.548208590028480102774,283.693015564631934921636,159.804762858149842941202
0.122499999999999997779554,-0.267838404888506520507008,-2.58793528605049871771371,0.798549727057770830640493,0.0198679489795680064290195,0.219242689815617119997171,0.024453731098339790556162,-0.00280345074326725229862944,0.00560447625094440734366819,0.0176065428719724484385445,0.999825965675320227354916,-0.118696065340810383292869,-0.0498217637310987976340115,10.4324562482649945138746,-0.116339220956621580693735,-0.00904486505055577573453096,0.949126218680347077949477,9.09465081166633204645677,-3.69535900435179565093335,0.276908817795577633091852,1121.80681862548294702719,1167.31231964234984843642,1135.87825959055248858931,1140.48013369762134061602,340.534850161656947875599,-524.273098689036032737931,-257.276111687133152372553,104.799534199992095295784,159.799958037682301892346
0.125,-0.36933933430759069427296,-2.41946399257789845904654,0.738243665372059765239499,0.0197227685837069420526912,0.213173840354219934489777,0.0264165389502042727287723,-0.00277145862412609723934853,0.00583382728445539650019569,0.0176007509387075718187976,0.999825077226369041127896,-0.120595848055599322301568,-0.0398872564042363972336425,10.4146474216920452704471,-0.116990758036900482919052,-0.00892773984355022670600377,0.950548438496571668210322,9.09436692144914360369512,-3.69536870817199325500724,0.279272559807509257456815,1123.14832534662855323404,1166.23238482634519641579,1135.47246714348807472561,1140.56267155548016489774,679.520451887219110176375,-339.090971570567205617408,-65.1322180269289106036013,-10.2190610750312682597496,159.795072013678606026588
0.127500000000000002220446,-0.53074375130518491872067,-2.19913687678248370716005,0.647218837025223314718403,0.0197333233127056674460764,0.207644614170194530267111,0.0282565429135403119176306,-0.00272488494682820341433183,0.00602855398107431713489168,0.0176096388484431286280962,0.999823792039917003116045,-0.1200980936758352102256,-0.0289874001995788325991565,10.3983624830376477632399,-0.117529067118663135826928,-0.00876846681601524402527303,0.951960665271639694395844,9.09408145919104704546498,-3.69537624083483473569345,0.281634935772945238507958,1125.20442088491904542025,1165.61686478449701098725,1135.55259850041784375207,1140.42903839224618423032,943.6584683313404866567,-128.862849908682505883917,163.08302850820822982314,-74.9158962432829156341541,159.790121076776443942435
0.130000000000000004440892,-0.7724421372415724018623,-1.93340262036588539373838,0.516132832897901350222014,0.0193037267030440468085217,0.202551796497656644291396,0.0298375145406405070658273,-0.00265608971766154210517041,0.0061991125712732393290838,0.0176380109728527662005249,0.999822080195961637727464,-0.117538345449561015820805,-0.0170143093928536402736906,10.3836245871678478636113,-0.117970122182009376499146,-0.00855021089722771999996898,0.953367397865668819711971,9.09379940068573944245145,-3.69538291476527636092442,0.283999697571192921685679,1127.86661768828525964636,1165.58807057680178331793,1136.28788228602911658527,1140.1880920742637499643,1220.25505533083446607634,111.731713327480875364017,472.327716419976752604271,-86.9156355295671545491132,159.785095576059575250838
0.132500000000000006661338,-1.14421006248395196180923,-1.58617289897647495422461,0.31238910886009529921381,0.0175729187256498803337834,0.197044098101422926472281,0.0314198922664332136456267,-0.00256912257448137747173345,0.00636195003326899856388454,0.0176873595429237438769743,0.999819916916886097801864,-0.113402878382585184380282,-0.00411100492175722406762439,10.3704512148463159348921,-0.118344627592281870231972,-0.00827703017715203208382047,0.954768364838313177145324,9.09352369695990425668697,-3.69539090265232816889807,0.286370024343499507413213,1131.30569616157322343497,1166.17552335113441586145,1137.91423708251772950462,1139.9944602145983481023,1227.77683615840828679211,300.301749119125531706231,700.435563483096643722092,-26.8101441831731541753925,159.778984585922700034644
0.135000000000000008881784,-1.50018710915048636422853,-1.29503089265293702680992,0.107520617264654172462457,0.0148692976493515986030625,0.193396989168039407092081,0.0324732845711372328234567,-0.00247640981425832195500503,0.00653005158058498312578788,0.0177556724362262635663612,0.999817325851752869425582,-0.108126015397277577823054,0.00939370011082267877822183,10.3588622671415464537858,-0.118679177063598845220938,-0.00796816842839709847667873,0.956160871260304690011367,9.09325462169406506518499,-3.69540149354938307624252,0.288746240523890085327707,1134.00550186907730676467,1167.08957932239741239755,1139.79006010344460264605,1140.05404135334788406908,964.026801923227139923256,424.497004681233704559418,814.877727823294890185934,92.7265613504913801534713,159.773830093530392559842
0.13750000000000001110223,-1.86780191537229511844487,-1.03298376949145231940008,-0.122323100174926896466232,0.0106221840717738019721494,0.190921654817563041239836,0.0330722023503578765879496,-0.00239185413694669368397938,0.00669923738674578148066807,0.0178381440908762477215443,0.999814468573412939988998,-0.101800194396723192591381,0.0231225428038946724529357,10.3488874232903409478013,-0.11896876155698399291083,-0.00764562976874321679338076,0.957543556423274044853144,9.09299260145351340156594,-3.69541534117026060357603,0.291129056449296652608894,1136.12583017118936368206,1168.29800837454058637377,1141.98862572163420736615,1140.45809302135080542939,730.834955078670873263036,563.606821620623577473452,974.64639895379059453262,268.413262556214021969936,159.768618110876104765339
0.140000000000000013322676,-2.27827858389937931704594,-0.787177714010108720010805,-0.40153437051825197068311,0.00384176594772949429879016,0.188964004903903248777652,0.032698238110475327800053,-0.00232382078132273729026425,0.00686258036636749543801805,0.0179282459896888055062014,0.999811569352144879907485,-0.0944693061936786315779813,0.0367993093213797722862424,10.3405651590336269407544,-0.119202915623218802521066,-0.00732053378626953271668398,0.958913601127064141316225,9.09273752593397865950919,-3.69543241611732709017701,0.293520003285093145084517,1137.65967664447066454159,1169.90761343050053255865,1144.66329209821356016619,1141.3961076661289553158,370.277246855311773288122,590.686750765279953157005,934.734617390176140361291,418.368488531768491611729,159.76230632767129691274
0.142500000000000015543122,-2.56913728537531138584882,-0.659564612850136788857469,-0.611685305689056324496278,-0.00256351297389376293900387,0.187822950303766417201601,0.0311773738941915345979083,-0.00228099018333841269470796,0.00700424309626945101880935,0.0180200387311735127360279,0.999808881401457516524545,-0.0859998330768161761694657,0.0501249611978139414381062,10.3339456584733966337808,-0.119353051971787527119062,-0.00700456947157626803879271,0.960268689817624143678643,9.09248751895121998245486,-3.69545232697157111090291,0.295920094903530717100892,1137.9772164054659242538,1171.25144212836698898172,1146.662298808585092047,1142.54993546400964987697,-66.6584466810948867987463,506.974660693233659003454,698.252776193706836238562,529.233999784539946631412,159.75700564214125165563
0.144999999999999990007993,-2.78777328609301999762238,-0.626664085200374643136456,-0.768346651190003226972181,-0.0090378286714199191492769,0.186888436831174065133609,0.0287886456275663060733194,-0.0022745062832197023884595,0.00711900995419513515916066,0.0181078238364537486004835,0.999806482170631172223807,-0.0764824620169641117284343,0.0627411116910795013668078,10.3290880082463871758591,-0.119409147683349245450124,-0.00671410849154860552012725,0.961603147278331182867817,9.09223922201436174361788,-3.69547570342481668248524,0.298332541070072621014475,1137.32638441106519167079,1172.44248673396668891655,1148.15455597918207786279,1144.0422776650516425434,-467.223786145316239526437,453.153260244837213122082,501.873506332688123166008,716.22496787463535383722,159.75167070276353342706
0.147499999999999992228439,-2.95203107178816903655161,-0.70116713016497977939423,-0.870594789171619143353098,-0.0168845661054815576740395,0.185881933195019444227114,0.02558920243783277884142,-0.00232102295281449034353161,0.00721679037983920333015897,0.0181798659379540060443414,0.999804420574859964432335,-0.0663243524574204518229337,0.0741707071300242576361583,10.3260601927948467704255,-0.119388243769566457230802,-0.00647793646998534155406757,0.962907947106005801529705,9.09198565710381600979417,-3.69550239375601208280386,0.300759191764659261636439,1135.64109747473935385642,1173.5172084295911645313,1149.17166634024852100993,1146.13106030338281016157,-722.207140238560214129393,311.802159438456953921559,239.140993758564746940465,799.070349911198036352289,159.745238313809664987275
0.149999999999999994448885,-2.99460148717703233955945,-0.852368018016139594728031,-0.876888915497038179402978,-0.0237334347442134559191818,0.184823068537871698646669,0.0229341447419825587850095,-0.00242957039753619909172588,0.00730206987253305492974187,0.0182303364259164719929363,0.999802708184812427560928,-0.0558143515608659629423371,0.0840840776279142831928226,10.3249374774095770135318,-0.119295093149298897516886,-0.00631059344116089403209369,0.964177304739550988799124,9.09172174626271534236821,-3.69553129453356365985428,0.303196934422858943580792,1133.71534870987238718953,1174.00149753115897510725,1149.35026094797490259225,1148.03762941460763613577,-817.122399284607354275067,89.4036240827971653288841,-44.7442470490841088803791,778.225331747852806074661,159.739859069809767788684
0.152499999999999996669331,-2.9195180948674859244818,-1.07677951887027734123592,-0.802939178922408847149939,-0.0309651408480120272914693,0.182773055470782819220688,0.0205168858275452392625482,-0.00259626242605295008691879,0.00736817905459022544356618,0.0182605301299228472977632,0.99980135095323319216476,-0.0449988317715918281769483,0.0924082045770159704600744,10.3257956775332004895063,-0.11911207977950953595947,-0.00620247742280660707692164,0.965411468321650367840903,9.09144741376230491880506,-3.69556091814923881599952,0.305641141164376517469492,1131.55548547831631367444,1173.96422655000515078427,1148.94794510500310025236,1150.02218696212207760254,-858.611090250814527280454,-105.41118221649402642015,-221.293564834877344082997,796.813740359129269563709,159.734467684444069845995
0.154999999999999998889777,-2.73133630998226095698556,-1.34078651272884297185328,-0.669953478920099487758932,-0.0383816232687176697724318,0.179625263569788445883191,0.0184222138841406458953376,-0.00280185399646461956793542,0.00740545023033764744646579,0.0182752258135447688547348,0.999800356677824964002355,-0.033845868558399175296536,0.099383823922159206243343,10.3287020933968580749251,-0.11881635531896386770434,-0.00611582125044281017106629,0.966615601414606229191406,9.09116606679470962149026,-3.69559014847541433823608,0.308086916117662923397802,1129.42229325861831057409,1173.47444162007650447777,1148.24379312380051487708,1152.02169811640328589419,-799.687099390347839289461,-295.862285861903444583731,-294.950596276384828797745,799.085631457455065174145,159.72907168463299854011
0.157500000000000001110223,-2.39428271728639963100704,-1.62734669738738779720677,-0.480419603583413790115486,-0.0456210338906152743088107,0.175541842913335743858738,0.0168254537242501917004844,-0.00302250637509663116347935,0.00742042937823195192237336,0.0182772464396011129206254,0.999799661239726522588001,-0.0226432724495507428641439,0.105355855224509117884502,10.3337102811475780583805,-0.118418752389259085422424,-0.00600604111640007029548904,0.967795164159188314734195,9.09088284156256420942555,-3.69561658711655915965366,0.310531521034416002624567,1127.55704998136457106739,1172.48491512069563214027,1147.47319212362117468729,1154.01761511940935633902,-708.237362675389931609971,-523.37058533880690447404,-271.77990097461565710546,879.474171875789693331171,159.723676564828878099433
0.160000000000000003330669,-1.81973605280429362451855,-1.97319653651532567195659,-0.211725264519216527236978,-0.0533216545374835676485148,0.170109735777727283378979,0.0157458115881565115234952,-0.00323856750315123457367728,0.00742536342341382649828718,0.0182669944201806003225563,0.999799197010652229700156,-0.0117811859311946261902326,0.110593882951197833297563,10.3408584854403535757683,-0.117944740992549659819311,-0.0058391119153802066576997,0.968957881653276675848474,9.0906021910822474296765,-3.69563848686112272901028,0.312973169447509746987635,1125.88110644524135750544,1170.85758869338246768166,1146.88489361892743545468,1156.41906897578223833989,-493.083061065635320119327,-641.568863641531947905605,-107.699943408533627575707,884.393053348684702541505,159.717211597105517739692
0.162500000000000005551115,-1.21843757003388586390713,-2.25082283101401570135636,0.026843432048091576264115,-0.0582400191448676149419406,0.165120616736600306362348,0.0156587494238969900106628,-0.00342709286811760695246054,0.00744687907995606954147938,0.0182519277684922674731549,0.999798661292954027324242,-0.0019220184404085873669521,0.115453938818589632586686,10.3501630430519995229588,-0.117451228964929432763142,-0.00557434492391203992994742,0.970111091327491403824013,9.09032773582498521136586,-3.69565397434372977514272,0.315410505675206509490494,1125.09163467603639219305,1169.27707080248796955857,1146.93469240657850605203,1158.43958038615278383077,-170.321460513059577124295,-640.393329856851210024615,168.087082324882288730805,811.3195040988096025103,159.711837621681780774452
0.165000000000000007771561,-0.534499668947108985683769,-2.50480470786259479254454,0.258066813199475886264622,-0.0608347165836279624162586,0.159557914519540933184771,0.0165550468093758271215243,-0.00357086124657059276327198,0.00750106896961513173321956,0.0182394351315766853338651,0.999797808634618645484693,0.00651196095023962896741754,0.120188008197300508217431,10.361617125826887431117,-0.116978097623033863716735,-0.00518380223228713174488114,0.97126648154581707306221,9.09006106031075411522124,-3.69566276467019161344751,0.317843392887522058209981,1125.02949914267605890927,1167.65562204409820878936,1147.72532903055184760888,1160.47566649627628976305,142.76638390756477292598,-681.006816152193437119422,515.996658123412544227904,890.034030918012945221562,159.706484541361447782037
0.167500000000000009992007,0.311360744089408836288158,-2.76604705265928529911434,0.508274270930505367438457,-0.0610669510058451311951266,0.152412069353120571690852,0.0183966534451299804087121,-0.00366432763176202875091136,0.00759967360111013252171874,0.0182421812076870096253067,0.999796295933017109547336,0.013213437345087420196621,0.124825331752795851136817,10.3751884873584359070264,-0.116559435366675359646571,-0.00466186021083084441152256,0.972437406473854903943277,9.08980272239965536584805,-3.69566637130643504960403,0.320271970527478577750458,1125.80546659557421662612,1165.8720367217269995308,1149.5146756971955710469,1162.88975054074285253591,413.044342094326225378609,-603.052698959253916655143,764.124500525257872141083,868.88324365945584304427,159.700092898140667330154
0.170000000000000012212453,0.982374764808508049718228,-2.93238067681809155828887,0.688590750484437852385611,-0.058963996215960469415851,0.146003791241462649308502,0.0200077356075226177323234,-0.00371136759132566435362421,0.007742715370007805485153,0.0182688789762845173181294,0.999793916207714628008318,0.0181423787514036552459551,0.129219427956145105351737,10.3908165492325323953082,-0.116207977137009199619655,-0.00402263442490525136713275,0.973639516079633171585783,9.08955214811966349941486,-3.69566657505155182761314,0.322697124093975551417657,1127.09472085314769174147,1164.64035854930193636392,1151.54595153317814038019,1164.82008271457357295731,617.679080991683235879464,-421.995121983263345555315,861.243545262686097885307,738.896556846611247237888,159.694798960845218971372
0.172500000000000014432899,1.55885192366963343246766,-3.02168814223925430439976,0.839984008057811704084372,-0.0549414065733208195618786,0.13847149829516552932418,0.0213463290764974236712881,-0.00371886323109988379057023,0.00792419091173227063684692,0.0183191050212867939661621,0.999790685172429971494523,0.0214095680820628117557725,0.133185268621870300798093,10.408410094999402062399,-0.115924826051583163000203,-0.00328809744941320133970741,0.974888480410595725800249,9.08930911513137296253717,-3.69566493918314442623796,0.325120423352018961260512,1128.89386200053263564769,1163.76206111181068081351,1153.82089342350900551537,1166.58423332497591218271,859.85017620196151710843,-297.638630508253925199824,973.494046867198449035641,717.359995211563045813818,159.689545489676305578541
0.175000000000000016653345,2.08888173741763250035319,-3.01319533426493268990498,0.985334242538993043680762,-0.0485438886266738589547742,0.128314632756148877534841,0.0229083209576446504562863,-0.00369494850767375804939663,0.00813399374230788264894532,0.0183871644230426886656993,0.999786775649443404390126,0.0232383497588339246742173,0.136535896557876623713668,10.4278481759913521642602,-0.115702176783740492971297,-0.00248363104103653141094266,0.976198726323051491071681,9.08907234769894856185601,-3.69566227699368710091221,0.32754420264643657745296,1131.39397173415750330605,1163.15216539676066531683,1156.41342176751413717284,1168.40688269063139159698,934.94413306207638925116,-152.658811083029632982289,876.638867511114312947029,603.767770991728980334301,159.683295999088613825734
0.177499999999999991118216,2.37068511589959474150646,-2.90228446064878120580488,1.06421823846841956395792,-0.0420388184280332255493562,0.119859731390843118892242,0.0246883252178412455901668,-0.00364698352184671895775958,0.00836401759908332771698003,0.0184631460829187028782616,0.999782470816072077468561,0.0238367180272629000659101,0.139125936121791415889248,10.4489825671698230991069,-0.11553434176281489331739,-0.00163366846939165706598107,0.977581473247073562404807,9.08884005097235814218948,-3.69565714037897263821719,0.329969942084237577439865,1133.56858266584299599344,1162.99876705639553620131,1158.20408776106455661647,1169.60307217993454287353,847.035106402658470869937,0.393937789431221985214648,608.944180011579305755731,393.743820051624425104819,159.678139430475113158536
0.179999999999999993338662,2.47471598810835491377702,-2.69693563299024141599602,1.0719701770780476479672,-0.0346365444153769672097631,0.112446702388251051907275,0.0274110988523268428451729,-0.00358137483728573208230372,0.00860352679557484407990575,0.0185421886461508179932967,0.999778048206323766144976,0.0234942474882506788236292,0.140849979597258812002991,10.4716412643446012964432,-0.115408080106255028773887,-0.000759515991053707085339797,0.979045494009577077498818,9.08861148097750337626621,-3.6956469142809660333171,0.33239911793283799523735,1135.6291472661707757652,1163.1541350857078214176,1159.45814266757201949076,1170.37560179088950462756,780.441375492318229589728,100.196091081897890262553,419.031705570887027079152,229.061044048284912832969,159.673043068532649613189
0.182499999999999995559108,2.43983580456502346933689,-2.43708570310482963705567,0.996612855789221874225348,-0.0272400368385267814541617,0.10624815635271393776673,0.0308713409196173411974673,-0.00350376275584609502347644,0.00884184783999198559145682,0.0186180579799387034556357,0.999773891678650161729536,0.0225191307974390228507922,0.14163904031404192518373,10.4956329500154179612537,-0.115307413935874680799287,0.000119255121158740561015943,0.980596388927014506187163,9.08838497912537057743521,-3.69563097554527564270188,0.334834435283943410155416,1137.470789543304590552,1163.49974751180502607895,1160.29924628891899374139,1170.74837740017596843245,663.377684382930397077871,167.030895094285227742148,275.283724803875657016761,51.5277715500814821325548,159.668001605741096682323
0.184999999999999997779554,2.2712231415631762843077,-2.14632992222838892004688,0.800600248505379585850505,-0.0206724665417306226189442,0.101579569403502212310286,0.0347543829051033120736136,-0.0034173271631823911621828,0.0090758018176225682682734,0.0186915072126192620405316,0.999770288824718189601981,0.0210807878570594200984267,0.141494486125317703306692,10.5207511753800719844776,-0.11522783695725943853283,0.000990694451477901801700332,0.982235058071994071582367,9.08816020006023883581747,-3.69560987009587726959126,0.337277062173465924654892,1138.94603568808543059276,1163.98928956117924826685,1160.83456129159139891271,1170.63324064863991225138,551.605852568581667583203,230.815136163982771222436,231.667576462223024691411,-145.706749408691251801429,159.663031524965106200398
0.1875,1.98131239519328050668889,-1.79857766803783247766546,0.42708768539187935697754,-0.0140840167033965055209954,0.0972068196374102910795045,0.0388291088764972022739919,-0.00333093874095429171369731,0.00929702081669445297429366,0.0187564164221475440652576,0.999767618153191484076103,0.0194609648704774304550646,0.140311990784585116642802,10.5467805191159289535108,-0.11515176156864720402595,0.00183153600953794414712972,0.983961055177429155804703,9.08793511018629196485108,-3.69558569496783784202876,0.339731194972144712185269,1140.22881880614750116365,1164.65382319262494092982,1161.45758417123010985961,1170.0198436531325114629,390.138509840698702646478,249.414852490644761928706,268.811382492685652323416,-278.181910450939312795526,159.657155318784106157182
0.190000000000000002220446,1.72528281808940353592163,-1.52374237257653066812679,0.0273375549359906322433034,-0.010074106397040727758907,0.0940345784814792251538051,0.0406068682937750016770373,-0.00324889630816745014069147,0.00949517516837082575786866,0.0188057012331834041973799,0.999765805786511529973382,0.0179878502667545556170658,0.138093352131197777410421,10.5734966995319794591524,-0.11505454916501488271674,0.00262905736177601904654533,0.985772737490943851135228,9.08770512664382934531204,-3.69556141781034730442457,0.342200782375277179347961,1140.8967282372889258113,1165.23636382363247321337,1162.1786182040548283112,1169.24233109638521455054,196.382682484317967919196,238.746125302168167081618,359.718003364787023201643,-328.05191948291366088597,159.652334694178534846287
0.192500000000000004440892,1.52349524359745225332574,-1.26532603279276134600195,-0.40645157130736225825629,-0.00830318658971910920907344,0.0910059935235784656093472,0.0397717439802916447599834,-0.00317599537009938650070073,0.00966325489977897487958725,0.018837604163689677244653,0.999764615172446191593281,0.0169204437910909291642447,0.134837317162017578109356,10.6006710915968973552026,-0.114915630050124784045096,0.00337265197619216871433023,0.987667368621467978151429,9.08746735845988951041363,-3.6955394563123276086003,0.344685040743404003116268,1141.2107322185690918559,1165.84755381913578275999,1163.25617418805404668092,1168.37958405571794173738,80.6727561444858309869232,284.310721220890400218195,556.819102287090117897606,-361.048924878013735906279,159.64759562838673900842
0.195000000000000006661338,1.39742703383226585245325,-0.963822533665924519041823,-0.890660964835993995691865,-0.00767165848283986838429538,0.0876343778965673059211383,0.0361287621498665584285348,-0.00311715682471889413834853,0.00980884634960645616919006,0.0188544942538593184033768,0.999763690449115172143024,0.0162035622217125904742652,0.130548882719907721750019,10.6280725761988250610557,-0.114742009324695512506587,0.0040543468512279495774564,0.989640033102198724002108,9.0872208619603256352093,-3.6955208513543511550381,0.34718021632861706393669,1141.30009201801135532151,1166.65791742973692635132,1164.96271371549028117443,1167.4370864719951441657,5.47971938349291587400103,321.237901348831371706183,677.209411335297204459494,-315.424773466520207421127,159.642004527078313458333
0.197500000000000008881784,1.39237955190318718479148,-0.711390616206309278624076,-1.2216985264487303375347,-0.00656387737144701471914132,0.0851673704434248585171119,0.031842053486682106444583,-0.00307019241509312243443297,0.00994334139739128444746008,0.0188656579250674506786911,0.999762622838876846564915,0.0156946033617404237525683,0.125385534300442441635326,10.6554657457342241144715,-0.114548267210844267882663,0.0046827227049760378890797,0.99168724102850414059418,9.08696861013541479223932,-3.6955052588347925279777,0.349680336337651220812717,1141.23813081548655645747,1167.4537433258799410396,1166.64222124473053554539,1166.80246018838533927919,-28.967300755948574675358,360.914047971527566005534,693.615401987926247784344,-225.649648675607551240319,159.637425296624627435449
0.20000000000000001110223,1.45174044958456494036625,-0.453006927596151576231875,-1.45503009739024102842109,-0.00358737340117187787288944,0.0830188147419130412218991,0.0271841669310717987118053,-0.0030282453689687151114629,0.0100779512507852674757514,0.0188820624281903770569357,0.999761072799395189569793,0.0152426684746155647470767,0.119604353577657626650499,10.6826125045568964821996,-0.114350128313971469151689,0.00527629116597483870110263,0.993808199610136555612883,9.08671682026351490435445,-3.69549087939415699111123,0.352178119316168602992434,1141.15525551423161232378,1168.46248766959456588665,1168.43079072542991525552,1166.30883822861710541474,-21.0824773390413433560298,452.444306473762082987378,709.123787564930580629152,-190.170401134218820971,159.632928374764560430776
0.202500000000000013322676,1.51733230106338434772795,-0.193701518453608056979931,-1.6111707117337958905523,0.000997608020115184129447683,0.0812395714182198025454795,0.0226926241340437463700486,-0.00299389073496420790240768,0.0102245165346456015620369,0.0189072985993624688438874,0.999758879756007301509158,0.0146616542068046754737631,0.113262146733783222729564,10.7092771976954779233893,-0.114167378924136975193449,0.00583311625434504779641465,0.996004122873798136694745,9.08646897370978656738316,-3.69547664057083480315669,0.354670713170092966048941,1141.13271842879134965187,1169.71596485824875344406,1170.18784018255519185914,1165.85160818271424432169,19.3248105615111676058859,572.596802318048048618948,672.932231038839177017508,-202.31785261134956499518,159.628498649674270382093
0.205000000000000015543122,1.53821963787546467372636,0.0485065551375537043488073,-1.6961335695512027577081,0.00674475083783616403965144,0.080644833832884371682681,0.0188282695284623068088248,-0.00297712038332329387985142,0.0103937231992456517726264,0.0189379499381833876769932,0.999756076360611256603761,0.013770019851265144841812,0.106254146028877519136735,10.7352266936491744786508,-0.114020210085877704564439,0.00633435757513652053507514,0.998277365929999493943114,9.08622571042971571841917,-3.69546111887919437322125,0.357159745766238045927565,1141.25187956703916825063,1171.32547168118480840349,1171.79545188062411398278,1165.29724896556035673711,95.78356259489729040979,794.879884338842430224759,658.83176325009969787061,-298.969545098952664829994,159.624148708616786507264
0.207500000000000017763568,1.47635799115598942421457,0.282602285688434706756311,-1.75007350342521239561222,0.0131380731699168393916688,0.0819126492369668668391824,0.0150552930324836797826293,-0.00297626938798727222121321,0.0105888141857572969095624,0.0189681806576331678237946,0.999752923180568520145073,0.0125369633658234478496007,0.0987180000625599712860136,10.7602268028920153852823,-0.113915390900737739654502,0.00678291628925109003900307,1.00063123865645708931993,9.08598779529405575772216,-3.69544277199928483668145,0.359647842973749021222574,1141.61163624176583653025,1173.69036427994296900579,1173.48199899880569319066,1164.35676045721947957645,170.907232246555281562905,932.544933462126891754451,578.136684535732456424739,-402.140452576624795710813,159.619019755489262024639
0.209999999999999992228439,1.35368862534468736846804,0.405219491640758544548362,-1.77240493436471147070677,0.0172160425202892569673807,0.0841603074935181605376044,0.0121307720089122942491722,-0.00299199635621110815800194,0.0108014954391760457236282,0.0189866402994688862615469,0.999749943018928388660527,0.0111670878565189677505964,0.090733877807171278706555,10.7840494138366018717079,-0.11383791406073846819158,0.00717494543163446976685726,1.0030698054339730607154,9.08575354091693832003784,-3.6954206890763932058519,0.362139489993135887946352,1142.10641572827194067941,1175.98819634849542126176,1174.68613530330276262248,1163.28654670267724213772,237.19969507360585225797,968.401130297938834701199,446.835949628896116792021,-479.521667411565829297615,159.614820792926394688038
0.212499999999999994448885,1.17904874902708045603106,0.43995260844037042957666,-1.77300648689998663343204,0.0199261661715445133336022,0.0865586347904001296438281,0.00860193328039966960407714,-0.00302713871768594102243388,0.0110142729760547841699747,0.0189921522120156185953199,0.999747493805316134185546,0.0100581683872544933727733,0.08232340827496102686478,10.8064763763007043451125,-0.113754583327902600298209,0.00750367825872139820875262,1.00559667397934915378244,9.08552294141899174917398,-3.69539651092096654849684,0.364639284143323527676017,1142.79763471713386024931,1178.53236993143264044193,1175.71617874695016325859,1161.95915212016166151443,344.246713358688509742933,1146.22240770413463906152,418.975573946454062479461,-608.73359102160918610025,159.610699418443118702271
0.214999999999999996669331,0.939049452260958927851675,0.394758328222993060130364,-1.7298347178097106535688,0.022042098996736179256084,0.0886462655760727330500615,0.00369575464374568554357103,-0.00308447159867518980527756,0.0112134443704172831468568,0.018988152152246830922655,0.999745761824553325070042,0.00952052937961289126589381,0.0735042132738325665330947,10.8273036347299509429831,-0.113639528286917326771466,0.00776347039160074116337373,1.00821194458807639193765,9.08529713217237500089141,-3.69537098490272919448785,0.367150038822086188794458,1143.82764929506538464921,1181.71930838701609900454,1176.7810131730350349244,1160.24287874756919336505,405.585811340642635514087,1165.79357286986919461924,358.830924751282168472244,-614.503264904805632795615,159.605843424131421670609
0.217499999999999998889777,0.727823583935266582578549,0.310287029260536473262988,-1.6379850025938538227166,0.0232218714127133685209969,0.0894069571321144396236491,-0.000594311776655113087851345,-0.00315702658143937652315825,0.0113971738596075379545969,0.018978632696654076927878,0.999744520831402527782927,0.00960306941274357596383116,0.0645041175507537201117003,10.8463441514022900236114,-0.113489863947020527823462,0.00796896587936658101769538,1.01091071277724453558733,9.08507608839366120889736,-3.69534465946095913579938,0.369672947914346849973555,1144.82556377383707513218,1184.36133779578199209936,1177.51033337070657580625,1158.88663579563763050828,420.023920890525516824709,1021.79548684061865060357,244.425940397422664318583,-484.212184969600912154419,159.601871759667091055235
0.220000000000000001110223,0.508306713879292715319025,0.212984028461263907860967,-1.46663024959484422637956,0.0242186640550504928004472,0.0892272887982680645846401,-0.00493829702246340561389015,-0.00322968092050461390296601,0.0115784939895355581257474,0.0189709880094483702983599,0.99974332995335302154416,0.0100250798101614389118419,0.0557285781453627365733539,10.863433753005102389011,-0.113331580937042167289697,0.00815284385201997356673598,1.0136831396868479782114,9.08485911714144123152437,-3.69531699661641788168254,0.372207011615925120739945,1145.92776889951801422285,1186.82828582121919680503,1178.00314287502214938286,1157.82181782272118653054,498.102861758388371526962,1005.30586284412402164889,137.875712328150143548555,-362.532057524367360201722,159.597978672017376311487
0.222500000000000003330669,0.225656245786599679581386,0.113421341900308558781063,-1.15391160015694715923473,0.0254097545626419812903052,0.0884060269070454235462719,-0.00996981070657606237295223,-0.00328514068430649057439563,0.0117713702704773815616024,0.018980261982691960798153,0.99974167374609612668479,0.0104745685523433083169431,0.0476241033984198258721676,10.8784369088580774587172,-0.113191325683049015538018,0.00835421323820477977617482,1.01651841219275840266789,9.08464483721476412370066,-3.69528666997239563229982,0.374748646448127609165368,1147.31607808262901926355,1189.38786711000261675508,1178.19971193234732709243,1157.07397550801579200197,511.497524392097602685681,841.156190754690328503784,-8.52150022956265473794701,-169.952082583449595176717,159.593399013285846876897
0.225000000000000005551115,-0.0353364475184640078331277,0.0549241234104399997373314,-0.805081267201804506861151,0.0262003362229245619074991,0.0876844819937048630675847,-0.0135726180485671674841308,-0.00331458961195159372906116,0.0119799923503815051312182,0.019010828740319580393292,0.999739378179742566032928,0.0108324693382544443714943,0.0404463195161158112211908,10.8912520212910344241664,-0.113075159068674740980853,0.00859296321623795149313718,1.01940765640662389657223,9.08443085829557084309727,-3.69525418470404254378536,0.377296108891172432553418,1148.48525652147850451001,1191.03406677499265242659,1177.96053537387433607364,1156.97205740980393784412,460.527519870674552748824,519.400952628483992157271,-184.47723912204293128525,70.822211687436663396511,159.589660114304876969982
0.227500000000000007771561,-0.328458103165588322092105,0.0171312078895269198630658,-0.384887714896875454684277,0.0265362868846113521270613,0.0875311803802932830720351,-0.015775638503976244231275,-0.00332237235076905841613115,0.0121928683238749675787904,0.0190561534525450632093779,0.999736650519527425551303,0.011301241429386746709107,0.0341536337624249869415749,10.9018146702982665630088,-0.112956436520167499693024,0.0088598888615588396872047,1.02234531914034865174301,9.08421437777173146344012,-3.69522189882639562341637,0.379849715853653346897545,1149.61871568198239401681,1191.98487187314503898961,1177.27732573673711158335,1157.42808656645297560317,441.128105704501251693728,237.505375218961290784137,-338.287038060888960444572,267.232311425823127137846,159.586002195308481077518
0.230000000000000009992007,-0.644348060096778252336946,-0.0148336072789719466274994,0.0662676628075848789256597,0.0263547860584509296977274,0.0879374785518789447991139,-0.0163805895453363048464013,-0.00331380669564865833892631,0.0123907266420115839966609,0.0191091102270170565269325,0.999733833474643396321824,0.0122412781965682369161863,0.0286714805123472367409665,10.9100987874205639371894,-0.112791227308660965689135,0.00914375526774742312940969,1.02532703673357095119911,9.08399490217403204894708,-3.69519112092710821926289,0.382408632740232790059309,1150.690897050001012758,1192.22159365108745987527,1176.26910018356988985033,1158.30821896693305461667,407.785935592937335059105,-103.070752887697295818725,-456.482970286105739887716,435.751221987947758407245,159.582411559031783099272
0.232500000000000012212453,-0.969757170510238575289463,-0.0522799541008680257458963,0.513216880977428901999815,0.0252455162214864324565777,0.0885901756110829136092732,-0.0150365494288617861096125,-0.00329810491620880505761471,0.0125571905349783317917822,0.019163047317070656949678,0.999731238579246617170782,0.0139370119744463370065057,0.0238323766995911616450865,10.9161200555644519738507,-0.112540731243355007773488,0.00942568360886194417380679,1.02834696815310744355543,9.08377360729187444121635,-3.6951616651106804489757,0.38497260409197320285557,1151.65764535994708239741,1191.46951810870655208419,1174.99491088530658089439,1159.60684267639271638473,395.285052701364861604816,-570.857803177158984908601,-575.861511124594017019263,636.927364228949386415479,159.578901882459774697054
0.235000000000000014432899,-1.33069771890291566052156,-0.108103501145074040734606,0.996304123305502553620272,0.0225152863978235785735738,0.0891674849155486698437656,-0.0117651014331537941137729,-0.00328564214461162917152448,0.0126885174220520858395789,0.0192106472688337408250003,0.999729041474275548218031,0.0163851048342408059377284,0.0194398244178703612228265,10.9199381328814268954375,-0.112191978919126744695944,0.00968455504126766036909757,1.03139520140461327102344,9.08355094798425355406835,-3.69513286368878235421676,0.387542784486785640840623,1152.66732231350783877133,1189.36730463520166267699,1173.3897926279469174915,1161.49285578807780439092,343.939398383963350624981,-956.197904846702954273496,-563.344633796122707281029,721.473031074355503733386,159.574783239190793437956
0.237500000000000016653345,-1.56791351236607057195727,-0.157058823832841643053371,1.33002751191499224425741,0.0188529809481513960234267,0.0892725334634058703686676,-0.00844519541782817566299979,-0.00328151776278447302598318,0.0127848456414826564669918,0.0192423379658414883675022,0.999727437351862979753037,0.0194889764667818890520046,0.0154060644386567573149716,10.9216575202997638882607,-0.111740415548989224792109,0.00990943237656486536346634,1.03445933008912827055781,9.08332676954284501391612,-3.69510377163524106336467,0.390120265637215968279605,1153.37734235186690057162,1186.68852858447303333378,1172.17818771632596508425,1163.214207831764497314,260.457395000231656467804,-1215.36488160214162235206,-417.691905329094993248873,691.989206524116070795571,159.571427774267334598335
0.239999999999999991118216,-1.6907836682903867320249,-0.191477811594724184329763,1.57578173983902436461335,0.013542247775192505984676,0.0888674802193641227843202,-0.00495702868116234922346575,-0.00329168831888320117390334,0.012853498494838504900839,0.019250128343648351125772,0.999726498217876180518715,0.0229871890444224916127958,0.0116185921178883107274249,10.9214293121897014771093,-0.111197520371320038301555,0.0100877953754824993548578,1.03752367590706939814993,9.08310115950737539947113,-3.6950727405548886572717,0.392707435057687848090069,1153.96960928850899108511,1183.29048022719098298694,1171.30133310130145218864,1164.95280182069836882874,244.593731041505861867336,-1571.29418813102165586315,-276.970316365988253437536,742.738558650947879868909,159.568150774273817660287
0.242499999999999993338662,-1.66727000819796988828614,-0.191636880311639307139515,1.75599209918511323103019,0.00633636939318111928887145,0.087796418928742903098339,-3.49102089841938582198688e-05,-0.00331224303826732537764377,0.0129001115526264798633038,0.0192303679479454980860709,0.999726263550732352491934,0.0266555293777805193955466,0.00816951870992305498320185,10.9194495685584023192405,-0.110572544807024761293057,0.0102281375256391623973506,1.04057127918303882196938,9.08287571233933199721378,-3.6950386250528466369758,0.395308273968521028951528,1154.60031100707442419662,1178.83205764381796143425,1170.79333613449603035406,1166.92790062501921966032,229.128679993845963736021,-1620.74060399499876439222,-86.9385532772411551150071,691.571574622002458454517,159.564307587877749483596
0.244999999999999995559108,-1.50091221389873008540405,-0.142623075793497505747709,1.80177658302346554997087,0.00116849370806710911759041,0.0865618991582624147662628,0.00483483852296561107675377,-0.00333265258474601828303507,0.0129257247798560143819957,0.0191838316440966945297664,0.999726767639457114533741,0.0303730125881341364579846,0.00528270882436062197418103,10.9159575292596588980132,-0.109866877930365813842428,0.0103536443349673927538657,1.04358518894773788510122,9.08265312119169010429687,-3.69500100186018265446819,0.397924454417530104599621,1155.11525268847822189855,1175.18677720721598234377,1170.86664033491524605779,1168.41065969380838396319,217.136333058669862339229,-1355.72732330456233285076,125.754127882737407162494,549.063047545268545945873,159.561178642381293002472
0.247499999999999997779554,-1.20522862651877904482944,-0.0354057482766875972202136,1.73474276493342660643293,-0.00231997670693985394776981,0.0854397284788327437965449,0.00990552341913148240437614,-0.00334138303097754503501182,0.0129295913965420204011503,0.0191138380602540770836217,0.999728018851034128111621,0.0340619040756114724310955,0.00319214953312156254905396,10.9112322226392759461078,-0.109080142377614972004629,0.0104907442379888783678954,1.04654892966052548430866,9.08243569431643038569746,-3.69496035912232567710589,0.40055539684332314154247,1155.68599267236777450307,1172.05342102729514408566,1171.4221067739097179583,1169.67321586274556466378,274.795985721629904219299,-1186.574594260308685989,330.864340277321105077135,501.617831272096282191342,159.558126408892690051289
0.25,-0.744961549044943383002249,0.150715452672068983552833,1.53398408284932363798703,-0.00501644993532755767429165,0.0851338439456153506235125,0.0152891425767983923922344,-0.00333513226327512022142963,0.0129219899055782027480488,0.0190305149588319635900469,0.999729712813490434264452,0.0374090314697827289180943,0.00194355505548592447095935,10.9055880651726617713848,-0.108237043027020710117547,0.0106514038921112410424064,1.04944501199967255011813,9.08222324634183841851609,-3.69491796757324042488335,0.403198996541473786425769,1156.48923261708637255651,1169.25390423591443322948,1172.52096203630185300426,1170.91874885016886764788,316.692705236254994360934,-840.240681905606038526457,449.292348088192341037939,414.618466889669093689008,159.554553924146603094414
0.252500000000000002220446,-0.306990259665092801721897,0.33737782353769957266465,1.28375081006163882513249,-0.00624196146757107026697975,0.0859761383850192878464114,0.0187708692293109859206002,-0.00331652920593969360169018,0.0129116904714405966031476,0.0189451417522967964501834,0.999731518199387547696233,0.040143891454911435900943,0.0014413245135762066395646,10.8993658830157880146317,-0.107360961053041242818651,0.0108363326874030968527407,1.05225868116843312982667,9.08201566619485411990809,-3.69487541525491680616256,0.405853189342549713902741,1157.26945619854905089596,1167.85221761776710991398,1173.66856851435068165301,1171.74630819719391183753,330.549981059493518387171,-369.617340785407236580795,474.195216100178697615775,293.60696072812942247765,159.551653970918238201193
0.255000000000000004440892,0.149233966653621874520752,0.536545285807145222456427,0.973555772425415577586705,-0.00635195761835802025913056,0.0874457168153344871486254,0.0212150543903624616559611,-0.00329570010574209860260142,0.0128964813794824675885486,0.0188618967953092728229159,0.999733346496692432125997,0.0422469571734365237358766,0.00141425645366756794207852,10.8929223015964673493272,-0.106453803778132238821996,0.0110295901688119493688767,1.05498072097794937107551,9.08181292835756792669599,-3.69483568288231367660046,0.408519627326434209280137,1158.14198252238384156954,1167.40581753198739534128,1174.89193811680274848186,1172.38678365380951618135,355.622256464812039666867,-42.6766039221092441380279,480.944043776207308837911,229.292747468934777543836,159.548837421138046011038
0.257500000000000006661338,0.592892823227718857026503,0.735191298923054126213117,0.632506673430835886229318,-0.0053753449033365737277923,0.0891638598907745077992715,0.0229661445555636341275818,-0.003278467076655266522478,0.0128679275859476475313281,0.0187807638568930970746074,0.99973527632968739453645,0.0438535555438884019907597,0.00167468476512675282230624,10.8866180734022179876774,-0.105504835748665051764483,0.0112238630173037284842863,1.05760689403784979845113,9.08161588324641755320954,-3.69480017243958291928152,0.411199027603590505641762,1159.0475674808731127996,1167.63883459815656351566,1176.07328873323172047094,1172.89277193453858672001,354.623094183306989179982,212.828726218685716276013,447.815170003513742358336,172.541811022983750945059,159.546093318333930710651
0.260000000000000008881784,0.989469693471537792284209,0.924839921899504813218584,0.273894206111560511995862,-0.00279209693853148558859156,0.0911570703983845542772713,0.0239530577324531673832908,-0.00327054013725800460724025,0.0128283317913476264254813,0.0187045068457917622317677,0.99973718989367033049831,0.0448856012511788318719574,0.00203248420787357012007313,10.8808077060378582956446,-0.104526042258318602184985,0.0114130722214662999602908,1.06013528439927950941524,9.0814246786510519626745,-3.69476867364964522977289,0.413889566088892046913372,1159.91509799330037822074,1168.46996116308082491742,1177.13101396682031918317,1173.24949270892443564662,348.685633175409464001859,438.628552542604268182913,434.375240510780315617012,125.388377564331563007727,159.543441500305533509163
0.26250000000000001110223,1.37822638989132029152529,1.13310185432451127063302,-0.153836855306899888962135,0.00218318380699710976045047,0.0939365195684418174959518,0.0241375845106136070750136,-0.00327313088760814059618998,0.0127887094631738938710352,0.0186380016427029962522433,0.999738830261360789108949,0.0450992292025685984069305,0.00239148623847599064995428,10.875826166329124689014,-0.103547479303088815760781,0.0116007614893980596365575,1.06256755023049787034495,9.08123859498489593988779,-3.69474023522719274836845,0.416587125966410842803356,1160.79099564675016154069,1169.83197736086958684609,1178.24516493578562403854,1173.51971382236024510348,274.82853772708017459081,517.108562852353770722402,389.838573382985146054125,79.0857945564311393127355,159.54037350751883650446
0.265000000000000013322676,1.61966894179657683316975,1.28305391681395497549545,-0.491755581328853275113744,0.00730500566652398947847802,0.0965138872735270547664754,0.0234829595913461537659561,-0.00328267841713906181888571,0.0127612850015751799065411,0.0185848137439459208664072,0.999739966754601638854183,0.0442483459695952943691033,0.00275585387452511113015596,10.8719750663736025586559,-0.102601160796988388757001,0.0117992287452800739128156,1.06491094729068480617684,9.08105523539934544885455,-3.69471243777837266009101,0.419286867673119345578669,1161.28924068193578023056,1171.05550397734259604476,1179.08020683373524661874,1173.64492168170659169846,130.559235292184780519165,475.445552527707661738532,325.929381033483593910205,47.7103898606855665320836,159.537918132610116117576
0.267500000000000015543122,1.78778885423095257323212,1.39594806929059433997509,-0.790195237837941544256637,0.0122857309173050842365793,0.0992943245081852471356498,0.0220433181331669975078213,-0.0032957985333411255607361,0.0127568391580939917429038,0.018544466897100948116206,0.999740465643819797847414,0.0421393652441752822324084,0.00312539791971480976351394,10.8695102898056710216679,-0.101715482247964200679391,0.012018093849890309696149,1.06717876939672695613126,9.08087164351219655600289,-3.69468431971283806092288,0.421986338982904995997814,1161.44379182321108601172,1172.20920512350812714431,1179.87481184095304342918,1173.75826577166367314931,-27.4869001157185017802931,489.279427700875658047153,346.428983450368548346887,83.7499820556330831777814,159.535575860768432221448
0.270000000000000017763568,1.94475697709470241036911,1.46644550234908965791192,-1.07703546864819088568765,0.017281490483768795901609,0.103146800213899422771213,0.0193450566817663788254933,-0.00330758098650838416529552,0.0127782833593642185937567,0.0185160438754148615192463,0.999740311394008540624156,0.0387707007644575787908003,0.00353217000385988230681811,10.8686304323517717307368,-0.100901383723600746034066,0.0122681864126310269380582,1.06939086657844462102673,9.08068811236323902846834,-3.69465601599723347803206,0.424683446791374985540557,1161.15180618135718759731,1173.50190111584697660874,1180.81235175098709078156,1174.06367159198475746962,-188.746235349662867974985,480.070965180811526806792,336.672718322278967661987,172.113782469022993382168,159.532905972594846844004
0.272500000000000019984014,2.07159419279330414553897,1.45030323939170191493986,-1.23710570144494091948673,0.0207472224029746805940011,0.107006180979758835913884,0.0162328666539940311142054,-0.00330885184755125945008092,0.0128211864176308552865091,0.0185011382658728865124864,0.999739551860229225255239,0.0343210679475796434645396,0.00410284806163932133649119,10.8694683590664649130986,-0.1001533901060955022988,0.0125679180746377499450217,1.0715723048029428543515,9.08050629175016332794712,-3.69462693344684289797897,0.42737522508461206482977,1160.5000606464627708192,1174.60955994941218705208,1181.55817543256443968858,1174.61883468400878882676,-332.188017303178355632554,490.62007386301002043183,275.241553170462566413335,317.536434683188133476506,159.530806344270530416907
0.27500000000000002220446,2.220475739367356204923,1.33293277011228084028005,-1.29503809639503009165651,0.024051819445140398823213,0.111207220796181061039931,0.0122708907947894525769517,-0.00329900437134922125057002,0.0128872632110407052408174,0.0185054765664458831242456,0.999738053419526262466377,0.0288495162315440326072924,0.00478859454608912896156347,10.8720877743713693064365,-0.0994790503324061436973835,0.0129165787048366731415427,1.07374942461971545348831,9.08032689653123448181304,-3.6945956371275103791163,0.430059619901735357139216,1159.49086609484129439807,1175.95500148516202898463,1182.1885595168394047505,1175.65135376540069955809,-488.342107561902139423182,693.091832738081734532898,225.425959407720966964916,582.954064172690209488792,159.528846866782373581373
0.277500000000000024424907,2.42186165895867366870675,1.06098309802411305824421,-1.23673471767057430170667,0.0286163045521018732930685,0.115757331725855200366126,0.00719979926365510881219878,-0.00327145510436565234088646,0.0129792490075076490108064,0.018530588880379041116786,0.999735783405770739307172,0.022409421481052328728456,0.00568550253084478332543661,10.8764794074424742120755,-0.0988877298081730499168529,0.0133239501192476943874921,1.0759487751927676590924,9.08014959159694612367275,-3.69456105098990583712748,0.432736109015845027414571,1158.05835010865325784835,1178.07501911310259856691,1182.68530522960304551816,1177.53360500487224271637,-519.922029503276917239418,881.032189444248729159881,121.484073017017976781062,791.135276181466224443284,159.526670118150690313996
0.280000000000000026645353,2.581443062219156203696,0.72746404579747192542527,-1.08949475239865622988589,0.0335813176222214126998011,0.118632630602785171802793,0.00351570543420325759553791,-0.00321900056543453130103449,0.013101541326483985214213,0.018577176398258416628595,0.999732719141101955351303,0.0150301929697580025774295,0.00692002665308940126398518,10.8825624841410331100633,-0.0983920695715394116875885,0.0137998027911437302905906,1.07819510422090214518676,9.07997454150748595225195,-3.69452248462912846704853,0.435406564136173568346777,1156.89125594732490753813,1180.36016243238327660947,1182.79597988192449520284,1179.60703014630803409091,-400.06482149124133229634,1019.40453822594372468302,-32.8594908279683011187444,901.429837412978599786584,159.525011448039208517002
0.282500000000000028865799,2.67737532509923648049721,0.299292736306857043437901,-0.866651790960761614357466,0.0402894045841253878315058,0.120225869206534052846536,0.000909815255560937228770935,-0.00313552292350356785061161,0.0132567425629257773511682,0.018645453770597016085464,0.999728840805408358605177,0.0067889259715681413848154,0.00861235634198117758209001,10.8901891794255512024847,-0.0980005122705335934840676,0.0143505908172571368386361,1.08051017738374621757202,9.07980413527294416553559,-3.69447879641851795184948,0.438074177749568083317655,1156.05802600119704948156,1183.1720418042323217378,1182.52100777546320387046,1182.04075419193713969435,-231.834700378112557928034,1191.06732369609630950436,-178.075860080616450886737,993.212023557770407933276,159.523526131888388590596
0.285000000000000031086245,2.67480005280949262314039,-0.188115024463785834862861,-0.608914983127164077814086,0.0482590757164013742230857,0.12066714324382032952343,-0.000792237034881707762913605,-0.0030181564481858232269762,0.0134404195710848047701225,0.0187330388757736138183319,0.999724295420525876920692,-0.00207956446867154330637728,0.0108285437943309338637565,10.8991525150436334712367,-0.0977057976275655798437114,0.0149747341399148435614475,1.08291233144253484788067,9.07963907468725217597694,-3.69443005365538201800746,0.440744470371791985385812,1155.73208244543434375373,1186.31549905086376384133,1181.90560058152141209575,1184.57309026409689067805,34.369326664454973752072,1294.38088685719662862539,-325.387748265711422845925,980.556944455201119126286,159.522193402033735765144
0.287500000000000033306691,2.51333694501940563270637,-0.718737600861705350219211,-0.34428956266567151134339,0.0567327495489166264142078,0.119607799758928143307735,-0.0015230078403317484636581,-0.00287062427077681980858159,0.0136500214044580018418751,0.0188350700627981891555063,0.999719296590148354120231,-0.0113813506270178301654772,0.0135105265754974189496007,10.9091973549185912162329,-0.0975038320758252752273876,0.0156563100746202298052534,1.08541392420031468368791,9.07947738585285968326843,-3.69437627741097385225544,0.443421188958494527643239,1156.22987263451932449243,1189.64394623851831056527,1180.89406903413464533514,1186.94353891421314983745,430.10466779106064905136,1442.00369448377955450269,-523.62175255930731054832,942.078472647299918207864,159.521054203694802708924
0.289999999999999980015986,2.12283060428764258631418,-1.36628053944182847878608,-0.0591369554364543914548591,0.065828077138592219763602,0.116402175075022429329152,-0.00133121430412307464874466,-0.00270841132702385935931977,0.0138787050029180580174026,0.0189426175084437715956387,0.999714226902109537320484,-0.0208346468100674628298741,0.016358730341304954930548,10.9200330176857605124496,-0.0973802151205885452300848,0.0163537121768840831848024,1.08802249878905921143257,9.07931647781882666947695,-3.69431908848445145210349,0.446107510554862085605521,1157.88260578438962511427,1193.5255175232825877174,1179.28749181872490225942,1189.28348262733334195218,765.907213792578318134474,1358.66393010557226261881,-638.658778286123492762272,745.165942516685731789039,159.519921599854342275648
0.292499999999999982236432,1.65440565297414177159396,-1.88720537922030584532251,0.129199633709319861019083,0.071514719519452166207607,0.112059954599004016340125,-0.000343929457130887864402952,-0.00254978832845629719769387,0.0141183602964507562416152,0.0190468018972194709503842,0.999709469651244742038898,-0.0301348278451056203475211,0.0190242171495296243100004,10.9313459151963776605498,-0.0973161464999098835271241,0.0170202029890524283994857,1.09074027599602829674552,9.07915499892482458221821,-3.69426027828469427660707,0.448806257084853388317214,1160.05940870348217686114,1196.43726588904610252939,1177.70077514270406027208,1190.66936862679654041131,982.578224960569968970958,1055.16014651952809799695,-660.092991369946844315564,431.045787672564586046065,159.519179766136375064889
0.294999999999999984456878,1.08881062936625849779659,-2.36171504958340650048854,0.252830185539531682170633,0.0746544928796177148511148,0.106336336117165031200926,0.00102855810352009153368913,-0.00240922642314170265542828,0.0143598536375902727929565,0.0191430015990031489325762,0.999705092285028018572746,-0.0389596690053881852811024,0.0212481556915018084119584,10.9428120820980208094397,-0.0972886944628231220555392,0.0176191703050785145046042,1.09356458515965937472458,9.0789917006087978990081,-3.69420011976806650366711,0.451518317203945918070218,1162.7954969091924795066,1198.80131825588023275486,1175.98702686187516519567,1191.43871156569616687193,1240.21335718898512823216,888.434591843132807298389,-745.511861311251095685293,220.216610930674306700894,159.518654157182083963562
0.297499999999999986677324,0.36815217793910870458518,-2.85797198301121468944075,0.329783079247993826665919,0.0757268609484024191047524,0.0985501566557520636280287,0.00250128984841967768465443,-0.00228356555838271375186155,0.0145916179157075682343292,0.0192282004876477737032037,0.999701181376618563945158,-0.046935799570953597170675,0.0231617845541236162809628,10.9541082074111546518225,-0.0972675591221178470480169,0.0181541870136029542814882,1.09648854072091994638072,9.0788267630748116232553,-3.69413829999696963213296,0.454243260820861582960362,1166.26047548942710818665,1200.87943884826177054492,1173.97321583614780138305,1191.77045168144991293957,1226.46250026541451916273,635.019427688484370264632,-700.481342509055480149982,52.8726292750433870537563,159.518279273471250689909
0.29999999999999998889777,-0.222670681613022392042467,-3.2023784970154749451865,0.34685069410605806616843,0.0750870058305894566563765,0.091451545857204427636411,0.00345398661847775255429038,-0.00216349502024252692694573,0.0148068567058216374321411,0.0192974172477195018982066,0.99969780634773763861034,-0.053804338969442179474445,0.0250366071614658326771607,10.9649231414810159890294,-0.0972319145419943825503495,0.0186440959255635349545166,1.0995008442624270017518,9.07866131558693112424407,-3.69407513918114283058003,0.456982555804745727012772,1168.92780941051955778676,1201.97641539432265744836,1172.48462014932988495275,1191.70307471207138405589,941.751227861913434935559,323.341187211462681716512,-519.353887462284092180198,-60.4896271820506967742404,159.518183216982066596756
0.302499999999999991118216,-0.764772985863076293355789,-3.46668775900741321649434,0.335335223624584122248393,0.0736332772791525452804606,0.0835253471575558847916909,0.00403688177774029054861726,-0.00203593490322997745095579,0.0150015457837671100510546,0.0193523315124419573174386,0.999694923002561464109306,-0.0593795484919417762559313,0.0272257666060925392070846,10.9749675018582717456184,-0.0971662611992187286169553,0.0191193960086085967819969,1.10258719185134523854686,9.0784971966916465646591,-3.69401118103252201763098,0.459735049708983545269092,1170.96923162873667934036,1202.49614478431908537459,1171.37644639883637864841,1191.46800354553965917148,689.867531189428859761392,123.370239474070217511326,-363.078068303775239655806,-107.300085042606852425706,159.518314153941219046828
0.304999999999999993338662,-1.32556245242191250710562,-3.68026555799104038158021,0.31097769739082892215265,0.0711303419859394547852816,0.0728211019467043807473772,0.00439482115762117146740007,-0.00190196913860069330426406,0.0151676402520136716783883,0.0193928155290597134530195,0.999692598745681171301669,-0.0634106255852928124561174,0.0297653808502920842748996,10.983983922976621627754,-0.0970468024097424497576014,0.0195810639296639353579277,1.10573316094314244573127,9.07833454583368038015578,-3.69394819250002415245149,0.462501715159347015493552,1172.37714706646670492773,1202.59326659169300910435,1170.66922980781100704917,1191.16657428685834929638,322.428188591811419883015,-35.0628378136206890758331,-137.496668263565766210377,-98.301703863171411512667,159.518735104048289485945
0.307499999999999995559108,-1.69218931042253095675676,-3.76627336417857705441747,0.293212174608216413762563,0.0681564447767097902897149,0.0632767348706071708352994,0.00484471653766331555868163,-0.00177048657995805612357099,0.015299265188463653797335,0.0194188154625248750317912,0.999690891786145563457922,-0.0657158301755100399121901,0.0325111438932219470876461,10.9917515424586884620339,-0.096854771658157534641731,0.0200146977224813019113903,1.10892376018950744587244,9.07817325222305804288681,-3.69388745976864463216316,0.465282157205986479642235,1172.58137257169573786086,1202.3208305952509817871,1170.68896305751854924893,1190.97649502622380168759,-108.857774885291192390468,-173.725434306333994527449,140.414217936904492489703,-55.6043954935830200270175,159.519305974053821728376
0.309999999999999997779554,-1.91478194635491494324242,-3.75893206259930412471704,0.285237660948804483407315,0.0638005290318657686254866,0.0538929861259799455885933,0.00576231828790001003592902,-0.00166104514439763218877633,0.0154033332032619835888498,0.0194334431252933710621011,0.999689600793828958558151,-0.0664177691072136006100735,0.0350754322687477221309749,10.9980886246295277430818,-0.0966001511950693725339079,0.0203845131591147074590076,1.11214243272629653702666,9.07801403700698195109453,-3.69383101274551650661238,0.468076390362459737737311,1171.8328581920402484684,1201.72463942016133842117,1171.37130089749553008005,1190.88855230939043394756,-424.852410370794643768022,-294.83469114829830459712,373.485041186176772498584,-16.797347902138412223394,159.520104624150008021388
0.3125,-1.98426745392789904975928,-3.682672116711177778825,0.290109221959305219051828,0.0581402949882115216428957,0.0449265318041849881502969,0.00682690207231425195272267,-0.00158685985475886040529936,0.015482424384832760982933,0.0194364618333281967410553,0.999688680837661935996152,-0.0655612761564313140105753,0.0371929754432865217195214,11.002854272003537161595,-0.0962834590943786872152543,0.0206686328888979337081722,1.11537466250117711652479,9.07785600963286221087856,-3.6937795261576318317509,0.470882863045600730256268,1170.4571105198417626525,1200.84665713950948884303,1172.55638826344943481672,1190.89250828671310955542,-638.874013385020020905358,-427.381669359237605476665,566.828481582751464884495,24.9330087761791006073508,159.521090984479087637737
0.315000000000000002220446,-1.83633340780975973238753,-3.53731894515872102857657,0.320482699051716168892057,0.0513256752288398371275591,0.0364602447286381595170646,0.00730316224985063430080734,-0.00155161496559349967698516,0.0155409684057917236305046,0.01943290608277578601637,0.999687984055729450538763,-0.0632459645925394220444815,0.0387911179194068145292817,11.0059470403597554621911,-0.0959089552328680067239119,0.0208673198051054289980932,1.11860735585363757493838,9.07769926153273587488002,-3.69373241958812315033356,0.473698677684819824396101,1168.6384881251151455217,1199.58773107336514840426,1174.20544330540928967821,1191.01321735327132955717,-805.838572606170828294125,-647.717484566691723557597,778.371714661170017279801,82.3374819461604801063004,159.522301432145297894749
0.317500000000000004440892,-1.39846575688296459460958,-3.30025055001486400385602,0.399770282910605179171881,0.0430642916281411686219016,0.0271633750890467803862371,0.00694914393169623195722906,-0.00154936591484653536296423,0.0155741094605373660980652,0.0194270019760677987996633,0.999687544739284117412126,-0.0593810964485304917936936,0.0399886974000954187324908,11.0073044531399784062842,-0.0954600616088507047951595,0.0210012908255241721733331,1.12183134968901909722661,9.07754284726910221081653,-3.69368842528123453305966,0.476520891486925779467754,1166.42791765681090510043,1197.60806971667602738307,1176.44824683675528831373,1191.30419569644391231122,-744.849519341732275279355,-798.807200431974024468218,819.5589606000332878466,130.566705690671255979396,159.524009029134163029084
0.320000000000000006661338,-0.847043044180066928561246,-3.05924373967396334705882,0.501246791999144236662289,0.0373543395630894434211733,0.0202476095792268814821391,0.00675070350198749436626544,-0.00156700448371646389872369,0.0155816870311757428579913,0.0194191532119035031866972,0.999687421660496844388888,-0.0539935488300671631578531,0.041049263861529031172104,11.0068987498660320056842,-0.0949309098368148751578843,0.0211059969083299096836992,1.12503877679904218389595,9.07738617370652889349003,-3.69364623758551946508533,0.479348686567964088478533,1164.9142405284064807347,1195.59369507120527487132,1178.30323810840945952805,1191.66605088172468640551,-468.364663213287315102207,-862.285713707523541415867,685.223805684653939351847,160.760019153440083528039,159.525640874623832132784
0.322500000000000008881784,-0.188038883944182333429751,-2.77430904341845030458558,0.618899204071431396911862,0.0344956503357456284453164,0.0138625922701555801680451,0.00778370705125494034837264,-0.00158879330417501202048214,0.0155684498764382586027955,0.0194102734833581438977923,0.999687608097632796066989,-0.0472322683303615306615875,0.0422817209624791884303718,11.004734270390883921209,-0.0943272342976121946911405,0.0212218855058031730109747,1.12822291269232977128922,9.0772280134904246295946,-3.69360352779645007004206,0.482180181553245434944444,1164.0860943407444665354,1193.29664114813840569695,1179.87436586517856085266,1192.10799579221111343941,-158.539488670930808211779,-1042.73668333848854672397,578.643865390631049194781,188.127144721056367870915,159.527484207407837857318
0.32500000000000001110223,0.578869718074587202849557,-2.37008714833092248852608,0.738715045106656864604133,0.0356662239984539344850312,0.00642955324013583413844675,0.0107071243359356683272354,-0.00159956593115146133293747,0.01553674445855081527601,0.0194057356136507590249618,0.999688063519183600647011,-0.0392060497719319486775724,0.0439675210703639463005743,11.0008451240574007812256,-0.0936503032402734997274862,0.0213873432768275847926098,1.13137917422990041949049,9.0770694667843567771115,-3.69355965652144746513841,0.485014245362198281874555,1164.1215430850518259831,1190.38001165451282759022,1181.19645743536261761619,1192.60668660532996909751,193.756178077319248131971,-1069.75749630337213602616,372.133303407235530357866,152.151993132019782706266,159.529934293478504514496
0.327500000000000013322676,1.08161003118601706241009,-1.96952303088427771449176,0.795150219264798452378784,0.0402302138938661554834475,0.000603020981381115921994562,0.013907107356848920354242,-0.00159438242611098426187999,0.0154899086264205475271805,0.0194062578523000982266833,0.99968882111122114864088,-0.0300617811711795732132479,0.0461545227458340229231837,10.9952925925655620176258,-0.092905731933953253354197,0.0216155113738607899953603,1.13450412816518819703049,9.07691214325197748280516,-3.69351532419577921473319,0.487852393862833078053143,1165.05487523113106362871,1187.94785366662154046935,1181.73503238221474020975,1192.86875575787121306348,544.0484429614111832052,-943.507103748742451898579,94.2350913926019586597249,43.9552670496140862610446,159.53217046464354211821
0.330000000000000015543122,1.33046287387072759145212,-1.49441134660000374267952,0.794478411536000850290407,0.0468839277599889941994249,-0.00452280988762006341818989,0.0168002324947555403689137,-0.00157261443725062845591656,0.0154326995110544290534804,0.019414014654233164441921,0.999689876053263093425016,-0.0199880866874883530992513,0.0487890496462510120379008,10.9881610664817781497504,-0.0921041158885267940981123,0.0219084362291685035006861,1.1375945447843869295923,9.07675846167975031164588,-3.69347012593737300534258,0.490697198987903038247538,1166.84178529985888417286,1185.66247613576911135169,1181.66763289232562783582,1192.82646294057803970645,937.044394651456173050974,-939.766791530109117047687,-158.904452275373699876582,-106.223900710483476927948,159.534604858819477612997
0.332500000000000017763568,1.27230723237680942716565,-0.845831488582793999952969,0.738461282721639467041541,0.0552225010188878498440523,-0.00948634092623284845557929,0.0192852727656110459197869,-0.00152958313571987364852534,0.0153660563902056727936252,0.0194298038195610256462231,0.999691247748688782692739,-0.00909522612036486009789993,0.0519015325097260532549726,10.9795538808057280277808,-0.0912487688825916326562648,0.0222753953876910562592606,1.14064768064971056027446,9.07661050763694632337319,-3.69342257420719510818685,0.49355073236038837780626,1169.740097204388348473,1183.24901970897099090507,1180.94051012083787099982,1192.33763625431879518146,1143.68880243628063908545,-807.277477957767814586987,-360.964480674465107767901,-248.228260619725688229664,159.537752571379314758815
0.335000000000000019984014,0.933355902187336661235406,-0.262507203878515504857916,0.662325471498581563878361,0.0611524829374134881732061,-0.0120372741354655057172129,0.0205249873292354667597692,-0.00147069664416691345612542,0.0153034907898176499724263,0.0194537832681241258658833,0.999692439472728122673573,0.00222046189152192742499725,0.0553059849702343536703708,10.9695924545967624652576,-0.090373269358380678428766,0.022701641609988477965576,1.14365885366904529441001,9.07646996426442420613512,-3.6933710018379390938037,0.496414335707049958479331,1172.56022931204029191576,1181.62608874598026886815,1179.86281048895330059167,1191.58532163747941012844,1154.37407000494999920193,-541.255517819763099396368,-508.683008779234569374239,-349.211873347576045034657,159.540563321558721554538
0.33750000000000002220446,0.359758167771617287655772,0.317466707056104469053537,0.573571680218814661245119,0.0644329048640178980722482,-0.0121785302895401591205538,0.0213028498853202880036761,-0.00140183288824099181769933,0.0152613020053031702566448,0.0194858787838886743370992,0.999692915002659665546503,0.0134975612333647996404773,0.0588102454584266548520688,10.958413381943156394982,-0.0895182311982878342604408,0.0231701714127521517239128,1.14662322805548910764628,9.07633759471942624941221,-3.69331306659433655781299,0.49928731376222207360982,1175.51196755441310415335,1180.54274211987217313435,1178.39709507694169587921,1190.5915768875809135352,1160.65329991347311988648,-324.928011992960534826125,-630.900364518583387507533,-411.205809146985870938806,159.543568719614569317855
0.340000000000000024424907,-0.325980433623377030549761,0.849271725960059953308701,0.480864443068807601022741,0.0647432944779822300285232,-0.0102155921347420255984595,0.0220462362951001113187122,-0.0013286839490192295116372,0.0152523574313121242779223,0.0195235593822128267182947,0.99969254137581597952078,0.0243465099254357511537883,0.0622309636699307916485324,10.9461657822603033451969,-0.0887162720948860977765449,0.0236632493824530318327071,1.14953725984788390768188,9.07621196833461141295629,-3.69324962141657442415976,0.502167190306493593787707,1178.36349581160766319954,1180.00144868601546477294,1176.70830866636038081197,1189.52929259174447906844,1070.88993016295626148349,-70.0059924184187707396632,-698.354696637488245869463,-407.740059103889166181034,159.546736253107638958681
0.342500000000000026645353,-1.03270269046150753311508,1.27074885954486704875421,0.382167301499329870040356,0.0614222901677096769224029,-0.00632606675559166647254683,0.0230111500552972643440786,-0.00125848092504664494165056,0.015275215747449038400374,0.019558381276483492033913,0.999691579653034678720758,0.0346852988591752967040271,0.0653545249896436974967884,10.9330079237662989299906,-0.0879662952043135104585048,0.0241581878254651383208795,1.1524008045216111995046,9.0760897231953148178718,-3.69318238270009224777368,0.50505280404881292000141,1180.86641720522789000825,1180.19271215778007899644,1174.9053215937542518077,1188.552876592061465999,970.186448589992323832121,255.879088830761020290083,-773.60478494465428411786,-375.095008867719684531039,159.550101085946920420611
0.345000000000000028865799,-1.77420292606469898188948,1.60126472396062569103492,0.250175179540232606179018,0.0545497688582421702552239,-0.000364562535037638783645686,0.0244315807335693906121588,-0.00119508871427992835641263,0.0153199387475072539704923,0.0195905673309144656712988,0.999690240036828270397962,0.0446151115281988100425004,0.068041953669443711039122,10.9191031395197111208972,-0.0872450812443058276723917,0.0246415365740377534375938,1.15521565880192023101358,9.07596858606720857665096,-3.69311298158058187723896,0.507941920031948046521109,1183.21442805455762936617,1181.28084413016927101125,1172.84028474163710598077,1187.65381754740587894048,721.901511671966773064923,526.738741629150808876147,-707.780259259379135983181,-270.751949750001358552254,159.554369419006008001816
0.347500000000000031086245,-2.23625610890936288299713,1.71570747030944481537063,0.126712312743860217034708,0.0475505185047582212831685,0.00507778526817294958289883,0.0255828048153600405567598,-0.00113770543353047619804241,0.0153700807768187338447907,0.0196223680967806263231168,0.999688785380039357519877,0.0543741753138039865533848,0.0702600107423197867140274,10.9046168864360879524611,-0.0865118556342530792280243,0.0251116267347983798674527,1.15798468898592843423501,9.07584653872756419445977,-3.69304248135550627907264,0.510833578001900434628624,1184.47592476358772728418,1182.82640586592583531456,1171.36642029745735271717,1187.19911684331145806937,336.299856989171246368642,712.098534847336168240872,-507.457821738034454028821,-120.679863250052108014643,159.558119325799566468049
0.350000000000000033306691,-2.49557756027044552737948,1.67037012872168810773132,-0.00393991335682839644016795,0.0401377113367663504450711,0.0102873714825941937889286,0.0262239488629660184859649,-0.00109372151440959627238803,0.0154028904501493889289687,0.0196472394632437458161789,0.999687714364562718394325,0.0643238531812298369727543,0.0718053328976887839107945,10.8897169912747244779894,-0.0857100473668682971695176,0.0255474786795627933910779,1.16071174019897971341209,9.07572201140834344812447,-3.69297162834501069283988,0.51372855778588155661879,1184.8959273395034870191,1184.84133680440595526306,1170.30299563294693143689,1187.05041823115561783197,-16.6767042343055322817236,930.714396949961610516766,-355.498238589692846289836,-8.64690812031776445678588,159.562069050489867549913
0.352499999999999980015986,-2.56707236813703421063337,1.46754333470417619444959,-0.148662413528556469621833,0.0316317384105839413677153,0.0153941966241256718989083,0.0259928892034682404443835,-0.00107440046634365194040683,0.0154103569472105756538172,0.0196622782995101753888978,0.999687203103867272346861,0.0744944922320646268909528,0.0724027898580671264161523,10.8745740638992156590348,-0.0848158449112979551109959,0.0259213332045717531615381,1.16339722591303895704584,9.07559540615836191079779,-3.69290198453007567636064,0.516629529099293827165695,1184.39254124241620047542,1187.47997785067559561867,1169.58892910450890667562,1187.15588230270986969117,-340.008315727576530207443,951.739207535875493704225,-169.263124748296746702181,74.47949379438873052095,159.56703727201781362055
0.354999999999999982236432,-2.44231945265638339392922,1.21290805769813947456726,-0.240829440159879171190482,0.0251038129479213799333248,0.0183367385570818823559147,0.0250501095641932521040918,-0.00109055542077700546622909,0.0153929462744730165962848,0.0196670853657749770959651,0.999687243396394809025196,0.0847263280675819990817033,0.0717969208754937054939305,10.8593593869381432881482,-0.0838245484082990044427675,0.0262080044273851793523722,1.16603875937458578704309,9.07546662831694206374777,-3.69283470020887172324819,0.519539495267004713952019,1183.19588576086562170531,1189.60003284208528384625,1169.456680009205456372,1187.42281570012755764765,-603.540924345588223332015,772.578344755583430014667,27.6923271417217371492825,137.065344804568553627178,159.571364846385137070683
0.357499999999999984456878,-2.15734190266952197134742,0.916317566983902098698422,-0.285669636574595098288398,0.0191627328553215202366911,0.0200093870312817861956134,0.023851757077735957768283,-0.00114352427119678696186555,0.0153512882595931137580392,0.0196633445871349198108557,0.99968779116415529273354,0.0948569280720386182048642,0.0699434366636045440346336,10.8442404297083765385423,-0.082731694404989106206294,0.0264051804121786318213516,1.16863225053015939991496,9.07533590557675751142597,-3.69277005289124460318817,0.522460664566159582733462,1181.37483662068825651659,1191.34286957445351617935,1169.72739074021751548571,1187.84120902673271302774,-881.969372955699441263278,627.358914141404397923907,183.389082623125261761743,221.870709445283665672832,159.575881730271930791787
0.359999999999999986677324,-1.67681952889047991561711,0.554311385727179417592936,-0.274984099660657732577818,0.0129331441795694536411876,0.0209830954778924688719499,0.0226311462170888585965223,-0.00122329621877123291898148,0.0152847451724009708584617,0.0196503464717228924774073,0.999688878912655232156226,0.104755129106723868237516,0.0670497257925243422826966,10.8293780472747656062893,-0.0815306162617730756370094,0.0265369167204935856030357,1.17117254767331813170017,9.07520297258911412541238,-3.69270811001239041004851,0.525395911986299091189778,1178.78603889608712051995,1192.73682741279230867804,1170.37362542232108353346,1188.53216924735397697077,-963.9339937108152298606,372.618854659367229942291,267.670457045642024240806,290.407563316602761460672,159.581512863188152095972
0.36249999999999998889777,-1.20246232244671524824753,0.265831996813039428406711,-0.211469303096573968403504,0.00892416886598528316665302,0.0212549355823625774064567,0.0218057454770977827973599,-0.00131688346687840228746436,0.0151973523395380061273841,0.0196282752461821238809669,0.999690456136506422346599,0.11419354805872601599237,0.063393139493544303775252,10.8149269220990582596187,-0.0802273527585244672355458,0.0266344330067518030025209,1.17365380199205371347659,9.07506868795890575540852,-3.69264915841620000591661,0.528345584296608383745308,1176.55516665213417581981,1193.20596384775035403436,1171.06574302544572674378,1189.29324684331572825613,-849.47600089085347008222,36.7374799484423064654948,284.850653517241653389647,347.31402914480867138991,159.586374152186323271962
0.364999999999999991118216,-0.710038410587122914563452,-0.00134835545193999484236969,-0.0949822349669226795310095,0.0069355254357578582924404,0.0212316906889117792966992,0.021092155552000179524752,-0.00140804349071370479493104,0.0151018981114086313366496,0.0196016744738352483024002,0.999692259483693668187243,0.122766771066522270561272,0.0593266833854386027580219,10.8010336874864698586407,-0.07885089651104074115473,0.0267368822401558327295223,1.17607004693441208331706,9.0749348197137837956916,-3.6925919447556276864475,0.531307633455960548474195,1174.5386588916328491905,1192.920514812534520388,1171.79787868990729293728,1190.26873939307802174881,-738.033437414332411208306,-232.915379277755874909417,286.188537248199054374709,423.196606144710642638529,159.591401589462435595124
0.367499999999999993338662,-0.248642276286951874331166,-0.252123519302324072821619,0.0590480550852321775523457,0.00680308421836615939692905,0.0210406238304891753110315,0.0206328581641750385955447,-0.00147954379357346978846044,0.0150215077457121412574104,0.0195792983425290972876454,0.999693779901870915871598,0.129862502478421376617135,0.0552310217908404399445033,10.787834333329675118307,-0.0774577735907771292023227,0.0268856095552946691706886,1.17841626071031080336127,9.07480525443052243872444,-3.69253329577035360742343,0.534277151223550461622835,1172.86499946506251035316,1192.04138695136157366505,1172.49668571168672315252,1191.40922987403928345884,-564.767274033828925894341,-477.377038605117888891982,260.582256783891125451191,481.736412326017216400942,159.596560590833860260318
0.369999999999999995559108,0.129645824764312661558918,-0.486328554724530515152026,0.245015959320507070717809,0.00828429796523388536910737,0.0205916661672667193616615,0.0207151315107331548959202,-0.00151669334744902197485705,0.0149697215852189376150694,0.0195639475496847542457246,0.99969475573259414247218,0.135093846311713033925272,0.0514369540450062279202115,10.7754448118793106914381,-0.0760860706196404834589231,0.0271134814986750023735329,1.180692356106836093943,9.07468306880880071219053,-3.69247063350141413451411,0.537251563063757209270932,1171.71482252146370228729,1190.53362961950892895402,1173.1007899738267497014,1192.67742145470811010455,-380.461458989247716999671,-778.436353840606216181186,233.075252157641244821207,553.281086720243820309406,159.601871542773722012498
0.372499999999999997779554,0.454798460433574469607976,-0.746517913410222444525743,0.481329356740349545429325,0.0106277186410345444306236,0.0195312209151595889133901,0.0216330946923019920569153,-0.00151233743934616610138377,0.0149606289310649370749573,0.019563481606872476503689,0.999694804793715530166764,0.13808485691127994621219,0.0481172569729290677820188,10.7639585312502230607379,-0.0747783811363792738635681,0.0274350218715069329999956,1.18290190689335394935711,9.07456961254187000065485,-3.69240277293730878582778,0.540229270668615924044786,1170.96269217011627006286,1188.14920518215853917354,1173.66206197247493037139,1194.17563530764050483413,-183.121089628911988711479,-945.412756173026650685642,170.971419605893828475018,510.745688995757063821657,159.608412721829324709688
0.375,0.614325771756843219684185,-0.937263212078144114514089,0.669110223759685873723413,0.012638013283831786223721,0.0179950821658754998855212,0.0231251422794676829430838,-0.00146674585988858653499978,0.0149997338888067446860397,0.0195864321452639301990306,0.999693651576869735109199,0.138670239200499062492966,0.0452893934886646615245454,10.753438213313113891445,-0.0735596504510787480013434,0.0278460505294308401091907,1.18505329448725715835167,9.07446497916065375477501,-3.69232859313363226405613,0.543208496032823617838403,1170.79921707331914149108,1185.80656583864379172155,1173.95564707185621955432,1195.23114989968689769739,2.36983693112051474471969,-982.388629053047225170303,72.6100121871240133941683,335.036698306839468841645,159.613998884036703884703
0.377500000000000002220446,0.669836104461789316744103,-1.0817693535077559374713,0.823797564963896444822922,0.0147323521762293459941295,0.0155895868633060541430524,0.0252068041461317136897602,-0.00138551761057744706427675,0.0150847046930604744563453,0.0196413870311603032392522,0.999691136205587138618966,0.136882116261700548243141,0.042862109671396225740736,10.7439112113079531241056,-0.0724378309351788735037658,0.0283291821962908321741459,1.18715892719116178355421,9.07436870680968787894471,-3.69224797688824368790961,0.546186471857984301436773,1170.97454135477187264769,1183.23726203689329850022,1174.02511203341055079363,1195.85081879917470359942,111.540811328086320486364,-1153.23644618174398601695,-27.8715188337173209731645,121.6466617489003283481,159.619720398206311529066
0.380000000000000004440892,0.643419574331694055224773,-1.17449784133828849519432,0.948185424654596875626567,0.0170917954597968359264915,0.0117862497211117626949584,0.0279592701522921281698242,-0.00127726679657384593891134,0.0152018182098276801589298,0.0197321995622649556945127,0.999687364631079766752464,0.133027592786105736122337,0.0406862533267758896826649,10.7353655470813365013782,-0.0713945981057972911543175,0.0288593626902873198747379,1.18923476396827432211012,9.07427983340272170664775,-3.69216191685955630319427,0.549160807490912228345792,1171.3569211299595735909,1180.04038360773506610713,1173.81628947768763282511,1195.83938320843139990757,134.570472329141807676933,-1170.39299979060047007806,-124.774559538263815738901,-153.821436582893369404701,159.626737951554758865313
