t,ang acc x,ang acc y,ang acc z,ang vel x,ang vel y,ang vel z,quat x,quat y,quat z,quat w,acc x,acc y,acc z,vel x,vel y,vel z,pos x,pos y,pos z,mot 1,mot 2,mot 3,mot 4,dmot 1,dmot 2,dmot 3,dmot 4,vbat
2.66999999999999992894573,0.274977417788307088031274,0.471629816564298587344695,1.21780177113089882467989,0.0465184470178472142531945,-0.000511795395989185887899997,-0.00609217314001670937062549,0.0169246835493409540640553,0.00650893439205769801236823,-0.997995499745499614618893,-0.0606293129140599990067884,-0.0718090507040156783569174,-0.0410884906723728363098225,9.78103942560703032427227,0.0120859877150461206968268,0.0382502719812367331098102,0.00484438041265075874236556,3.71012258257628202429146,4.90502585988015304963028,1.20145737702346488973149,1163.47061334513341535057,1103.54729165726871542574,1116.07598332654697514954,1145.92224550897321933007,-119.71084214769945219814,-517.197344080761581608385,-821.481706057847304691677,62.9421222200121306400433,153.773945333306443217225
2.67249999999999987565502,0.305842886405293890028645,0.407183752333353077279554,1.35038451445169993547779,0.0478683980373848377842805,-7.86630296699085136257618e-05,-0.00157677683046451291501433,0.0169413416646030691448122,0.00644911418552132371245778,-0.997995495960710243821268,-0.0606309973405928098744155,-0.073510624811027894254245,-0.0428091384865430107931061,9.78226684683944647247245,0.0125202620894872204693193,0.038678459860413835769144,0.00483176611371265597033586,3.71007636171531540725255,4.90493255660517935012876,1.20145911273407279828973,1163.08709773682880950219,1102.19675595700073245098,1113.72037742390011771931,1146.12033011655807968054,-133.593592756406081889509,-476.983531029340724671783,-895.242534272286775376415,75.7261707503351999548613,153.77305424600726269091
2.67500000000000026645353,0.289966978775842931792539,0.382562918615735159111324,1.38772736280811304077076,0.0489053523707942625065037,5.49016676538683910430323e-05,0.00267410999757347654995354,0.016974822704011734847418,0.00639091511713335558297899,-0.997995971843733009620792,-0.0606198348060571282069908,-0.075633707233343797082803,-0.0448186484937706935971491,9.782995065378759846908,0.0129468202610928395657197,0.0390956261615165723277698,0.00483306288118420974975198,3.71003066740670561785009,4.90483739858434297786971,1.20146178078624732421531,1162.80264538135133989272,1101.16237400212185093551,1111.59977065518523886567,1146.30087636272492090939,-72.5554914478785661913207,-399.385851945517401873076,-872.467687353660267035593,62.5985046121016708298157,153.772258373243715823264
2.67750000000000021316282,0.228046794612356856779556,0.391260910258757976798449,1.34580001136382065851649,0.0496599860686194882752886,0.000232258851735122939840064,0.0067394510161266837910965,0.0170212840318268894546083,0.00633381362678232459617611,-0.997996959507166492286956,-0.0605964797495497711765644,-0.0780852190204637391923725,-0.0470782747322481126550642,9.78319068851000572806242,0.0133687629861737617559259,0.0395011360950810533343436,0.00484512953412930425650673,3.70998567980838611646277,4.9047409453511887633681,1.20146632611803427792552,1162.7243202795893921575,1100.19982669727301072271,1109.35803898713152193523,1146.43332263961860917334,44.4578977776482489048249,-403.226902160085444393189,-1001.26434487876713319565,30.3760562054782994323432,153.771405638556132089434
2.68000000000000015987212,0.102024531858340983259126,0.427512063980221901360323,1.21857211714665747415154,0.0501991569035280318922254,0.000808254376637361276677907,0.0104530350652954889117963,0.0170704957380805114053324,0.00627739210136787906257894,-0.99799823227463557717698,-0.0605675929892162123735488,-0.0806537598702751351575913,-0.0495429988117515041068373,9.7828317114900968931579,0.0137889040392850086708121,0.0398949511422026364959592,0.00486370069481042045095309,3.70994125805192487277395,4.90464337305561581814572,1.20147304438036983675886,1163.02493487023957641213,1099.14623949132146663032,1106.59344893079151006532,1146.45275664375230917358,188.501521372294888578836,-358.086159725697484645934,-1008.90020319495636158535,-26.7780647321166078711485,153.770315103514519705641
2.68250000000000010658141,-0.0437128282727332964641143,0.461263868291149126132922,1.06504623720623103899641,0.0503533376224781434316036,0.0017847506586652090582179,0.0123903034262488331851415,0.0171126970317479858152421,0.00622213434958767547255931,-0.997999574622745244667499,-0.0605394299739767105528188,-0.0831414536722652336431238,-0.0521860252674063301858709,9.78190694506453795042944,0.014209906246132740503807,0.0402774752289822637885131,0.00488395946815978632821187,3.70989763360313151707714,4.90454481818834686635,1.20148233802716042362135,1163.66682788645084656309,1098.40939589864456138457,1104.31353797115684756136,1146.29943231595802899392,337.431752173195434352237,-244.206862059587109570202,-874.918992495914153550984,-103.610167351055153517336,153.769349676977668650579
2.68500000000000005329071,-0.22800816147593364058288,0.472580831265576373212411,0.875544952649145669099084,0.050195255000653207777539,0.00339421469015021865650583,0.0139752756340895054054663,0.0171438752173769144715454,0.0061710133941283553185575,-0.998000975358696917894008,-0.0605129909669737814370549,-0.0854640195717579903567085,-0.0550365573366085117368307,9.7804152299428199768272,0.0146343282747437852808758,0.0406493696167916640504814,0.00490121253660910551758212,3.70985479142656071616102,4.90444638381383057890162,1.20149431929533245799746,1164.71209363110551748832,1097.92520518102355708834,1102.21885396831203252077,1145.9347058069970444194,533.005375394770908314968,-129.608941838435413274055,-830.985139857984449918149,-205.379866874686570099584,153.768325657226910152531
2.6875,-0.486862715026241676952168,0.434466198833099226384036,0.606455209957229013362223,0.049588967595398700249909,0.00586954266130038267157421,0.0163354921634597041735226,0.0171680184170859527481579,0.00612836283181177401968576,-0.998002329501033291769829,-0.0604884055854401012086718,-0.087695969876218346494845,-0.0581604096995215133492074,9.77836474153412638088412,0.0150639718088140858037738,0.0410115680724157868897173,0.00491129095742776772270943,3.70981167251278565188954,4.90434844919089485415498,1.20150824181363646836473,1166.33185476342464426125,1097.76135118945239810273,1100.1586122718670139875,1145.27253298158461802814,629.69431676844101275492,20.717509592896462322642,-644.22864245335870236886,-267.115731104337328360998,153.767030556968336441059
2.68999999999999994670929,-0.72534370432185346633247,0.351238339152855350011606,0.343900626766045991455911,0.0486824363534936396802344,0.00796075630940965700554912,0.0183579058349132330507647,0.0171901431459580769645079,0.00609691764425641675312351,-0.998003434491259833194476,-0.0604672995618990155586303,-0.0899369192921704446730402,-0.0615939267902967171885997,9.77577459134983151045617,0.0154995494185726015445859,0.0413651929498206546997885,0.004910443077743720761974,3.70976774310593171435357,4.90425097729087156039895,1.20152372816329600091478,1167.86056521494765547686,1098.02879272898803719727,1098.99771075604530778946,1144.59912715147538619931,611.616143909636207354197,190.364244142715023144774,-315.050189444361762980407,-268.195746759880705667456,153.765897957845055543658
2.69249999999999989341859,-0.970047421843067358970814,0.222359379034356152704532,0.0462138561325219007769327,0.0472554593307349043995735,0.00947727722388310572787518,0.0197561568170217666251531,0.0172122019012922733427473,0.00607734705753016583168469,-0.998004062670686309388657,-0.060452806697941612046332,-0.092230610218713163228621,-0.0653299443925918904563233,9.7726754247604894487722,0.0159406263031446580880068,0.0417113664356769178742645,0.00489541949971015761394755,3.70972250740670483892814,4.90415388204920077441784,1.20154033417113326187575,1169.38993548297275992809,1098.71317241016595289693,1098.58336132464523871022,1143.93155424778524320573,583.349538428150140134676,331.599319978347693904652,-28.6015716770640864297093,-241.743445434854635323063,153.764713197957348711498
2.69499999999999984012788,-1.19993586194854451321135,0.0741003446302023333069897,-0.265882482203641190565691,0.0450677152853211984706583,0.0101905998279422909530423,0.0202647208675060565286064,0.0172331946335011546023175,0.00606808866790647678107762,-0.998004255298265641194178,-0.0604446875711434072897532,-0.0945650360858659860818776,-0.0693145167772937359496055,9.7691084685376168295079,0.0163860295202859530816486,0.0420508690760571096634024,0.00486365361203872428874639,3.70967488446887916353489,4.90405747158952198816451,1.20155691931410335548946,1170.77731290708834421821,1099.68678932887974042387,1098.85470289765999041265,1143.39040992430113874434,490.115164910742919346376,435.808921536697766896395,271.679063062110628834489,-157.699092482551606053676,153.76348829266692064266
2.69750000000000023092639,-1.3805649179012320360016,-0.0663834755247153796009485,-0.564783217072471477315787,0.0415290049708065267530799,0.00963400115695982675600995,0.0193909312478247955469079,0.0172509288309798322624822,0.00606400146665961401609701,-0.998004134270711329435244,-0.060442079295657355486604,-0.0969073551897528667753434,-0.0734222739956456732501877,9.76512380029098281397637,0.0168337355220991718995904,0.042384049380059414524613,0.00481328838979019641569623,3.70962405085852608976893,4.9039613229716358944188,1.20157246494120450996945,1171.84051130752663993917,1100.89221701784958895587,1099.94175663995588365651,1143.14305878537243188475,361.610369280400107072637,549.533054247248628598754,640.903452881459429590905,-15.9499686816150791912605,153.76221956082019914902
2.70000000000000017763568,-1.5015907818415916707977,-0.18900921620391966659902,-0.860904061420046495811675,0.035949273256788025210362,0.00763252216652487817938333,0.0166825296814622353602786,0.0172636709143181611703088,0.00605702983246267194494816,-0.998003832255089706748663,-0.0604441082829510131779749,-0.0992341242008646512440251,-0.0774709055491758086242626,9.76077854751151186007974,0.0172810575828237049378355,0.0427106910951044541069344,0.00474322952233853685488629,3.70957012910550743001181,4.90386471457812334051596,1.20158623502442973851601,1172.58536475349046668271,1102.43445460011616887641,1102.05922016206750413403,1143.31066008089305796602,168.71139948403103403507,558.693068190235067049798,878.273306035426344351436,142.838648764476005226243,153.760653317752769453364
2.70250000000000012434498,-1.50604698610756426724322,-0.239520931201123582487966,-1.02381838662519752958246,0.0310420049428272171176957,0.00573273502972075372358107,0.0132056429541226871826609,0.0172710073622680225502446,0.00604293760025431756638392,-0.998003341532405552349871,-0.0604514549889374405711173,-0.101539315432081181378443,-0.0813529544133557158680503,9.75613517533517615731853,0.0177248087392654005145509,0.0430299542030177090135012,0.00465356404020766424578515,3.70951277184540417763969,4.90376702920944573804718,1.20159796265537233139753,1172.68406830494677706156,1103.68568235880070460553,1104.33312317013292158663,1143.85725202919479670527,-78.1877685569287024236473,473.608082136444068055425,961.009329170449291268596,288.496861237178336523357,153.759316977959912264851
2.70500000000000007105427,-1.41183269111922715666196,-0.243548545546900613301133,-1.076896648612775564402,0.0267469313568148431281557,0.00457600688510647994611258,0.0090886756172452974611442,0.017270959864599241817551,0.00602290590156458107568005,-0.998002668173902818260501,-0.0604644622372644130470221,-0.103775429164694912853584,-0.0850629093338466230056483,9.7512609773405056756701,0.0181618170923526604798592,0.0433403618477914420736852,0.00454534662244952727266911,3.70945165616364214145051,4.90366743534326232634157,1.20160706305298248253166,1172.19442591070583148394,1104.80249501079833862605,1106.86426680791964827222,1144.75314438707891895319,-347.190465627507478529878,447.803128286987430328736,1098.25973844488157737942,439.220583961705699493905,153.757954498014498767589
2.70750000000000001776357,-1.20877169938767781154354,-0.223461657613105518782604,-1.01694989955839965034556,0.0225408644814560112090707,0.00431259817879466912649011,0.00466330601260185780010392,0.0172632571530046373398104,0.00599751567158574808852345,-0.998001995675354525161538,-0.060480113541690458389688,-0.105923989302620938368626,-0.0885833557211629929462049,9.74622593991270136370986,0.0185895222731909150193363,0.0436399192628184398601299,0.00441993554349657397084528,3.70938743690374472805615,4.90356508973572946530339,1.20161352058003112475149,1170.94811597680927661713,1105.9246980002355940087,1109.82442186235721237608,1146.05335494900327830692,-552.557297146097880613524,371.691784679122690704389,1016.96010950370134651166,482.35484716752699796416,153.756296132209598681584
2.70999999999999996447286,-0.990523377536774662921459,-0.208612682242364622098307,-0.885895931375731415791108,0.0199057512292540143838959,0.00469647692044184838361387,0.00198799360046003669236225,0.0172493116845071313425475,0.00596807096472146917515156,-0.9980014758595682211606,-0.0604953725911761344691264,-0.107994157391786901878383,-0.0919106618155225707500477,9.74110190657096097766043,0.0190060056435377121297758,0.0439265139328573334109862,0.00427876720647350078374771,3.70932120840528556371396,4.90346002488765275728611,1.20161737231918208657078,1169.43163942497540119803,1106.66095393419391257339,1111.94906735543804643385,1147.16491862291650249972,-676.962565110821628877602,253.089975953258488061692,723.465890840104293602053,412.657610711548556992057,153.754899432770201883613
2.71249999999999991118216,-0.75527269763106774647099,-0.212295956167760618837903,-0.709816012905753579431689,0.0181287131218754241079871,0.00497264318581508522193468,0.000429743855559517880064735,0.0172304019388756259056894,0.00593806421136566526391976,-0.998000980556731476234233,-0.0605116436936353405129374,-0.109986578089588185602743,-0.0950816749585336878913822,9.73596258579742368510779,0.0194097973790874483990265,0.0441984298387678581354621,0.00412306844271007836427723,3.70925398599112909892028,4.90335241148064948646379,1.20161911737435112002004,1167.56330315125524066389,1107.19014788000185944838,1113.44175131655765653704,1148.11664300256097703823,-859.641242164589243657247,186.716639414184442102851,475.084666088297240094107,344.892488704052141201828,153.753492875063614064857
2.71499999999999985789145,-0.48950069373777549408544,-0.239799197977084377342294,-0.492515040766027589747011,0.0169211966136533498161754,0.00481591390063884974837016,-0.000451870513675248707766846,0.0172072182826166382441091,0.00590892253552223207374583,-0.9980003602564816445053,-0.0605310657667294180206419,-0.111890112841636149565439,-0.0980910482427046481745947,9.73088356795540398991307,0.0198002416553389633258053,0.0444545776419591615047366,0.00395319719076373237570676,3.70918632906589840203537,4.90324278394059742680611,1.20162045078203671977235,1165.13343321415254649764,1107.59453713126481488871,1114.32449068587948204367,1148.88938106643672654172,-887.993136644794617495791,111.267629596242599632205,171.723829999916461019893,202.956659653623262329347,153.7517995932973917661
2.71750000000000024868996,-0.302917693549513644679649,-0.274851569929966010885636,-0.332759805094420157978163,0.0166391901746560377794992,0.00412582006572625309415159,-0.000638488930068807983286838,0.0171817130547544660856829,0.00588142403138085332475749,-0.997999623720057349451906,-0.0605528786868242893670633,-0.113716971514581696722779,-0.100921830823033714663595,9.725941444610144870353,0.020177726261333107926621,0.044694583450808365865381,0.00376873358440603855798456,3.70911900118680115667757,4.90313260635404191134512,1.20162320812268186287497,1163.12333746803096801159,1107.74648602798311003426,1114.30037046655729682243,1149.1314263008291618462,-763.682332241836206776497,24.6490393806636092222107,-137.066857391928181186813,4.48842319560723534976887,153.750388178746931089336
2.72000000000000019539925,-0.168068494215110997291873,-0.31128775128125241167254,-0.213795812819062708287632,0.0168686813023488126062066,0.00296537409020041636820153,-0.000537847345225767829030028,0.0171550788417495214677189,0.00584967568583916533442313,-0.997998910561932350837822,-0.0605749983263857774695715,-0.115471765781361215830181,-0.103427303597513453592427,9.72121463520525708190689,0.0205434065394242311441975,0.0449189720301862438489593,0.00356800000353617958667729,3.70905208601028046899728,4.90302316309523611437271,1.20162847445950449198904,1161.31502155294310796307,1107.71778232816814124817,1113.63915639891979481035,1148.91182318241476423282,-717.090287511625092520262,-49.4079970540052784144791,-372.953725625901597595657,-192.736259767347775095914,153.748981139358335212819
2.72250000000000014210855,-0.0687665768133115390403631,-0.349237735605334387312126,-0.123452027673353087466879,0.0173818486289330706440204,0.00156410525829802954551895,-0.000312345484213008995483252,0.0171302523825930634593373,0.00581073234152225479715037,-0.997998299744844996617132,-0.0605955443636458437883796,-0.117189910443132913608899,-0.105522033508428286774361,9.71678155473311555567761,0.0208988335673637726230822,0.0451290477890332400456863,0.00334935473982069095363889,3.70898587142707159003407,4.90291494275555006510103,1.20163621514198037942833,1159.53788603047291871917,1107.4994460427130889002,1112.43560183842782862484,1148.16774500199244357646,-572.780384782402848031779,-105.114112588446431573175,-452.934451882366033714789,-330.633410316075014634407,153.74730295620918241184
2.72500000000000008881784,-0.0297033193677289468481728,-0.376561202597267496994249,-0.086399542637642670617204,0.0176333569469849238409154,0.000558602435819910273819,-0.000144600693134399043305455,0.0171113600607752276705487,0.00576400101277932397358938,-0.997997856110410808128108,-0.0606123330938584184424123,-0.118928314268683402166182,-0.107170584833923138168288,9.71271999895887283571483,0.0212457879342945257783448,0.0453266524921681485116309,0.00311156210053920630892454,3.70891988383407333884634,4.90280744586023420339416,1.20164552925051748566432,1158.45111962903115454537,1107.19221176522592031688,1111.37448413950801295869,1147.25865613083442440256,-348.844843052673411420983,-141.843461211240821739921,-373.42193953268974837556,-382.457296537276249637216,153.745916637384880232275
2.72750000000000003552714,-0.0170571231182259572256577,-0.404459800844458705615381,-0.0742085141985719121127119,0.0174736488108284404585646,-0.000300267828422833970170719,-8.13837956158339334220009e-05,0.0171019473662706138206158,0.0057098745618517372096834,-0.997997622196119871240683,-0.0606236545456147885024833,-0.120733319164776989329546,-0.108359808478272243159601,9.70910676195480704109286,0.0215860239502919902532252,0.0455139777371943374251195,0.00285397787674357156922911,3.70885404063361967530454,4.90270026849438966820571,1.20165555505730448082602,1157.7936618152095888945,1106.79022873665689985501,1110.56849214076441967336,1146.25545851930610297131,-196.274368421568027542889,-173.197807349473862359446,-246.011436836902959157669,-379.653757936156466712418,153.744547046807667811663
2.72999999999999998223643,-0.0102226990798192276382883,-0.437243125913207741906064,-0.0672448940765990876844427,0.0170475133601168150898619,-0.00112006111820958632017964,-0.00014960949420603439634532,0.0171043933966310568450808,0.00565519177184207414571526,-0.997997569049689503550837,-0.0606287048086891003362275,-0.122623430343008862908327,-0.109204697464917302451859,9.70601609188729419486208,0.0219210593613548485047993,0.0456933914811556915469559,0.00257726422069615504484297,3.70878829646180330215088,4.90259361178502750533426,1.20166498081566452960089,1157.46974778692333529762,1106.32622272847856947919,1110.14442695532352445298,1145.36038734115368242783,-60.3309855182955416807999,-199.675437399268673743791,-60.9509001246364547910161,-287.220827372818121148157,153.743194235213053389089
2.73249999999999992894573,0.00534467377049185638632212,-0.479373275363995654529958,-0.045344741548126510366501,0.0166881977153995747498172,-0.00195760011970873715886343,-0.000417674982364170735427145,0.0171224429598798057183817,0.00560684354463046336763954,-0.997997543524914321189101,-0.0606283617738006888608915,-0.124646248028538061958237,-0.109827882428242706858157,9.70351754736785210297967,0.0222519587616389485917878,0.0458673749891888443697141,0.00228306155428493681713853,3.70872211000394491620114,4.90248734753509562978024,1.20167316723085870755483,1157.49200688761811761651,1105.79185154966057780257,1110.26373764014124390087,1144.81935438244204306102,72.7198419175708323791696,-249.537251447287275141207,164.586766609867339639095,-108.485640698702397344277,153.741864991852764887881
2.73499999999999987565502,0.0471896728775833551594587,-0.540854029369505551194663,0.0249247043004942950283898,0.0167278470332307069301514,-0.00307104404898743020210783,-0.000992155963402893475641675,0.0171565205301946084592846,0.00556651511531969494378513,-0.997997618218243842669324,-0.0606212136206414758943239,-0.126793869981892126652667,-0.110252398580089089330514,9.70167644101782755683416,0.0225796359355704273630394,0.0460382331481826723162953,0.00197327387378753689797795,3.70865529560817197562983,4.90238178355446052592015,1.2016803150393553512032,1157.8333469965111817146,1105.07853647124215967779,1110.96736078837284367182,1144.81795913766018202296,165.32545087951595519371,-267.24483930745935822415,319.31433374172803496549,130.571691362629564991948,153.740301230970004553456
2.73750000000000026645353,0.10831541821521195601008,-0.597430223459396336771476,0.135539739163867772875349,0.0168869454822720421738325,-0.00438446854936665880719815,-0.00164372594885298160642673,0.0171964088383647802082965,0.00553047481910184761388916,-0.997997926141072744243843,-0.060608279133680616201918,-0.128861634967840921195403,-0.110389417972191386518865,9.7005550259323261030886,0.0229044066239616796176737,0.0462081536452720736951605,0.00164958732716359796413585,3.70858702442220700135067,4.90227667254643062477726,1.20168580904434851852614,1158.31863414201575324114,1104.45562735312319091463,1111.86030930884999179398,1145.47221283925523493963,221.798941475784459953502,-238.84206162272883489095,366.065162851212164696335,407.652999053261510198354,153.73902702891348326375
2.74000000000000021316282,0.204671382615355862411022,-0.652416118331096472893194,0.307844103208888220102324,0.0168541090793868225672369,-0.00634070224317559959226198,-0.00229792852166421516027506,0.0172348724904390557255418,0.00549294572864502186892999,-0.997998626800703281247706,-0.0605894675954716174781645,-0.130707956868512165105045,-0.110119272358969760849945,9.70020531645699790601611,0.0232263016373236326483909,0.0463789025271449315002137,0.00131434558945953757110037,3.70851649241280467705906,4.9021710245238372394283,1.20168890068020028927265,1158.94234170389017890557,1103.88432616312843492778,1112.79768660262902812974,1146.85622413292662713502,288.704765772132986967335,-212.650748450555482804702,356.12172166230118364183,763.671229765412022061355,153.737786045254978262165
2.74250000000000015987212,0.365592857301730855823507,-0.712872193540552645529829,0.573422001167629979967444,0.0167267288921294290937603,-0.009037588123854018232195,-0.00260162910262765750823988,0.0172696954019787990430856,0.00545259493651610235853688,-0.997999957906191226264525,-0.0605615762207558916419003,-0.132286018073865418998025,-0.109418987820746591022036,9.70066611843840753692803,0.0235454178113483590661925,0.0465516899774983880511137,0.000971074864578901466097283,3.7084431913673103764495,4.90206453716407608567351,1.20168928730198087961867,1159.76215797087638748053,1103.39237361087043609587,1113.6409179171614596271,1149.29056898808221376385,296.472483481063079580053,-128.83496184486196511898,223.735366786745771605638,993.74079502633617266838,153.736338746416663525451
2.74500000000000010658141,0.532374639023072249166546,-0.763683444857686577478262,0.817058442256121453262097,0.0170010337078511201969189,-0.0110176602134108223007836,-0.00184578546129900936817458,0.0172965399676157614849981,0.00540971051502806953709124,-0.998001939194848475267463,-0.0605254575117825516228365,-0.133509081020177222676182,-0.108299190443518655868615,9.70196464766351951425349,0.0238615302569419249212324,0.0467275966578793514050183,0.000623626744003190282457372,3.70836742383411355206135,4.90195748161091149341928,1.20168765697278057125175,1160.42470412129546275537,1103.24015135390413888672,1113.91636343656273311353,1151.8249281080582022696,236.973393301973885627376,7.09673502019556146080959,-2.23699106650206180901819,1066.38312782336015516194,153.735169961575707020529
2.74750000000000005329071,0.714158000946513826789896,-0.828159078112190472076293,1.03407060412356055500993,0.0184342028773802728280895,-0.0125008567328211122465786,0.000802313714611065011833579,0.0173114228937970120181244,0.005363277426179892219682,-0.998004513816326710440308,-0.0604832645504559396343325,-0.134301980103062490456978,-0.106749737061396746118369,9.70411468354303430317032,0.0241745997657620594056826,0.0469075435472952120830037,0.000275843107348091416079067,3.70829043121451329412253,4.90184999024120493515966,1.20168511021301971375408,1160.94702493738623161335,1103.42785728597141314822,1113.62973296182894955564,1154.62248462719890085282,167.781997737851213514659,160.608294962961508645094,-251.858744828819823169397,1213.0092862130172761681,153.734042587624514908384
2.75,0.919092733927897920231942,-0.934827765206214911231086,1.20157967153290368145235,0.021581291451963691141458,-0.0144483403496034161495043,0.00611852227094310946453604,0.0173152125310322944906627,0.00531554303497292369301563,-0.998007312476559493852335,-0.0604406079085310632414973,-0.134683298005862983615089,-0.104833107670504660502431,9.70711367668378777295857,0.0244847153651628103576687,0.0470924493585957795738217,-6.78720316284628187716507e-05,3.70821331899386885666559,4.90174206523986288885908,1.20168219374940932198115,1161.26361410998470091727,1104.04319282871892937692,1112.6570697124186608562,1157.88997453912315904745,47.6314614419162509761918,278.99340478020945965909,-440.500741805372229009663,1121.4858560406594278902,153.732740545070328153088
2.75249999999999994670929,1.06102630639046990879137,-1.05175769413709740973673,1.23389447854318690112052,0.0246327288044390461940747,-0.0165554387676547197505439,0.0111314969982995361913458,0.0173104629659396047625108,0.0052675410333757680114708,-0.998010179782657047553585,-0.0603991793284355815707443,-0.13470946037337067080486,-0.102592981130480528917381,9.7109439106888864046141,0.0247927966359376625304911,0.0472828925372295941209622,-0.000403076959267188023299661,3.70813648327519329583879,4.90163376682661944272468,1.20167926946162362256132,1161.18518224459580778785,1104.82282430987243060372,1111.42722925280213530641,1160.22991390740207862109,-107.66935453207454997937,345.090928005955049684417,-540.650182653792057863029,791.150436089963932317914,153.731699860011389091596
2.75499999999999989341859,1.16347858924890523724116,-1.19613330146178120649836,1.15173529900378257551097,0.0274467401752061350428402,-0.0189913452429020662703962,0.015251290968632516889536,0.0172953600335643484231518,0.00521869736062977734869506,-0.998013102054592260437005,-0.0603597267140247167871436,-0.134358224652693869494158,-0.100039216348988657667718,9.71557487529998731190517,0.0251001952028901270663752,0.0474792435273506466253401,-0.000725585034973023554338845,3.70805947548956904569195,4.9015244883996524905001,1.20167521058649451326517,1160.72526733732433967816,1105.76864746874866796134,1109.95381879914975797874,1161.84572671957289458078,-236.290168325654605041564,387.148315604062247530237,-596.966780088463565334678,493.337637790874907750549,153.730707464717795573961
2.75749999999999984012788,1.23181813254202698892925,-1.35891101429379257403696,0.994065238419383212509217,0.0300639410302949820763541,-0.0216923092664370285864717,0.0182034186798665960360655,0.0172682012554264928405612,0.00516945846390054475349984,-0.998016116190367452709609,-0.0603220562641942625869973,-0.133612507435807770228564,-0.0972036710740283582676824,9.72096156035130398720412,0.0254085566494849056373706,0.0476816953192306658415589,-0.00103096876085416000283501,3.70798244711516833405085,4.90141417915234089974774,1.20166863065438822566477,1160.00373140296755991585,1106.75856588789270062989,1108.44239535235988114437,1162.69660209635640057968,-321.471126486654725340486,384.912840537318913902709,-575.592126635235445064609,144.747901943937222313252,153.72975669346695326567
2.76000000000000023092639,1.25690604611771039600399,-1.53427923270940169686583,0.781354716458138032209035,0.0327607851071303191048401,-0.0248191621647074339707117,0.0198347527682853595754064,0.0172287298742946279328514,0.00511903847701376639445225,-0.998019292159139648212829,-0.0602851361042316125082863,-0.132488900763140515781657,-0.0940977588106942652856901,9.7270446769549767651597,0.0257197015395116447555868,0.0478903332482029098216003,-0.00131484244344832134319956,3.70790561924042760821862,4.9013030589005257553481,1.20165902263490798063117,1159.11791170489095748053,1107.69321167143539241806,1107.07585816597338634892,1162.56946622929262957769,-376.042106219458275973011,374.36195784505088113292,-526.458268479664980077359,-258.800042805051646155334,153.728857888830646061251
2.76250000000000017763568,1.22933506324801111730949,-1.74047098150706314179104,0.50687608275753748277026,0.0364530894195723154105337,-0.0290278165516935152123956,0.020671557095232686446229,0.0171779393086510280552748,0.00506872108303533467493773,-0.998022628118657384455048,-0.0602486002869802583781222,-0.131029950992485266780818,-0.0907761861943713610489937,9.7337516549132594434468,0.0260353483092770170148622,0.0481052887664789596833259,-0.00157286372900734675896184,3.70782885575201870409501,4.90119101045978666775227,1.20164645370836686844029,1158.12352087187014149094,1108.63037567711808151216,1105.81010400996137832408,1161.40260188233105509426,-314.92394719530909696914,299.146074772995234525297,-379.415269266709287876438,-559.580914790888641618949,153.727841345534073980161
2.76500000000000012434498,1.1515198372109349822523,-1.88993992671120669690765,0.285269627213619425543101,0.039856515821175754477057,-0.0328852947706362794266788,0.0207573590696171102198964,0.017117251216234051491849,0.00501976823350870106354993,-0.998026154735149551022744,-0.060211438389394043857461,-0.129290238582096927988374,-0.0872951953194868734975387,9.74099856926546614488416,0.0263571089435249532317851,0.0483267231009489803272849,-0.00180131274472221684576634,3.70775178889794920777945,4.90107839141603385257895,1.20163145081379640899399,1157.5432919689144455333,1109.18894204530033675837,1105.17878181963988026837,1159.77156165533824605518,-145.537385176206413461841,165.852658032876092875085,-147.471340154291709723111,-734.442204749045458811452,153.727046918563445387917
2.76750000000000007105427,1.01421271961925141269489,-1.98676938397981306394513,0.0841156680915527699138323,0.043144738356302766990602,-0.0373251241822111362589354,0.0205169361666948588118764,0.017046876010140599166931,0.00497186367412911361940431,-0.998029986565442950308125,-0.0601717369807269961134999,-0.12730569145706532863116,-0.0836802270619613625113331,9.74869263685351938875101,0.0266864070323934964024115,0.0485548349810614524035834,-0.00199763730429988045633749,3.70767442696480964414718,4.90096554535415851461266,1.20161545945594339102058,1157.39583394598912491347,1109.45963896728244435508,1105.07274730918993554951,1157.73039085858590624412,51.4379694765022605906779,46.1376568379374276673843,83.1612704301296190578796,-934.133525585886559383653,153.726307847138798479136
2.77000000000000001776357,0.790993881015650601717937,-2.00147392452507721927191,-0.134757042713987112980689,0.0464580275550825344543782,-0.0437616034766485847984363,0.0200909567804684503766754,0.0169690813946906521314517,0.00492748550285818098792845,-0.998034079599625978396205,-0.0601293887081617989265325,-0.125151455966774405315078,-0.0800148983538732649911651,9.7567329120989612079029,0.0270241439975655133032273,0.0487900058324867366699173,-0.00216002207034298550000773,3.70759628692978360220422,4.90085286817845844353769,1.20160005252456025814922,1157.80048181629695136508,1109.41963032949001899397,1105.59458817179051948187,1155.10089402740891273424,237.762073124627534070896,-74.2486729431691259151194,297.343975557857447711285,-962.309687468425636325264,153.725485048037540991572
2.77249999999999996447286,0.573097710695308903972034,-1.90239674197813712908101,-0.305928167497376779504492,0.0484025918807215391193033,-0.0497980099747804758059111,0.0197418082499252849071336,0.0168891796311761641091742,0.00488700707379132424923451,-0.99803831165354861543193,-0.0600848915224343402274876,-0.1229660886502633027062,-0.0763466801978359560498788,9.76501230897378036388545,0.0273707879917174587425244,0.0490326506192459501964898,-0.00228773785345492584528126,3.70751712945183253822279,4.90074003092813281767803,1.2015862358177527013936,1158.5846443116122372885,1109.08839560256660661253,1106.55946718697919095575,1152.91884242124388038064,376.745745157867361285753,-183.59451755623405233564,481.909583315210795717576,-847.959456658208978296898,153.724852407774136509033
2.77499999999999991118216,0.349672237625120840842641,-1.67233886278989940521456,-0.475451551312169151675135,0.049364963942799981733156,-0.0556147845186666031636058,0.0195100099339882426807691,0.0168106068752332041271735,0.00485088372558560316366583,-0.998042523733404851604689,-0.0600398740171577127711089,-0.120852280287433763716898,-0.0727235335915835945375107,9.77342167137667594545292,0.027726289966239454215513,0.049283178434005925350192,-0.00238101688487453097553548,3.70743691482296577888178,4.9006273969332037054869,1.20157384028515767937506,1159.68421054208624809689,1108.50165774170886834327,1108.00413608836652201717,1150.8610967441179582238,507.010521036374370851263,-293.470340152322819449182,714.608897902887065356481,-863.429703725996887442307,153.7242738282963898655
2.77749999999999985789145,0.109015956805650418570686,-1.25777582899079365397199,-0.679216667948006280752793,0.0495110092170312279802324,-0.0613609319976911038452272,0.0191478326184028636858248,0.0167311865360616068842958,0.00481488599444262945631356,-0.998046653064894040419119,-0.0599962935004950403961033,-0.118808186348775282614731,-0.0690962281426486663038489,9.78185319358686555801796,0.0280901671509087777489633,0.0495418418223702305969169,-0.00244147534508600168312586,3.70735522182709642535769,4.90051456631336446179148,1.20156246979006220421127,1161.11969691679405514151,1107.62104390180502377916,1110.13251167649355011235,1148.60169390261398802977,509.63464946172479130837,-331.334369113506397752644,813.163844681220894017315,-787.4939324366473556438,153.723640237687192211524
2.78000000000000024868996,-0.0476990323653962086658531,-0.826375461436237301882102,-0.838188898438035678850611,0.0489669092736481278982374,-0.0645306479106483726893018,0.0182252424779246226249629,0.0166504568571358563255913,0.00477484873833727407194116,-0.998050620077416406061843,-0.0599559060277676178496442,-0.116863479560486718811241,-0.0654192043191383909572778,9.79019950272330063967274,0.0284616270945155167004792,0.0498086768593736586852039,-0.00247100279805262390553366,3.70727230290519882416334,4.90040031765914285699637,1.20155154129439623034159,1162.23238378939504400478,1106.84498589614122465719,1112.06995531177290104097,1146.92362708193445541838,396.714412636511553955643,-297.350051266610478251096,762.114951793995146545058,-621.730074991868491451896,153.723161096540565040414
2.78250000000000019539925,-0.142746403525936177425493,-0.356870146424216716507516,-0.956317060499208171364671,0.0480168143694725962911107,-0.0657353450792918792000563,0.016173733520725992740541,0.0165684948379512982097328,0.00472880408949944482793759,-0.9980543163812223284026,-0.0599206411699726784747533,-0.115052954641009633207638,-0.0616908017118370094467039,9.79835593218722777919538,0.028839566955159923883345,0.0500835856337679963257159,-0.00247148535298398908804929,3.7071880517072668403955,4.90028429137201460008555,1.20154042724961840349351,1163.10326897997674677754,1106.13429364547187105927,1113.94308643546378334577,1145.4930435276544358203,298.946884869616951618809,-263.860132251426136917871,703.64105172313111324911,-525.077465372771484908299,153.722730280949235748267
2.78500000000000014210855,-0.182883048391194180659625,0.10254252079844043687995,-1.01177767427175857584132,0.0470467121723230977115016,-0.0656031062906762968411911,0.0132104720925226206545977,0.0164851322069435070327703,0.00467781362425306532215608,-0.998057600061330041363306,-0.0598928365021118777611342,-0.113399283381205820409043,-0.0579686900505378549519619,9.80622246666968244710461,0.0292225690517763161957454,0.0503665017304371631645665,-0.00244472359246188921874654,3.7071027608112845364019,4.90016695617718678334995,1.20152915554602079950541,1163.72711821374309693056,1105.52568523488412211009,1115.5881605703884815739,1144.29823975507065370039,196.267272476011015669428,-217.103433966854112213696,570.173350401740549386886,-413.097334260018840268458,153.722337847137907829165
2.78750000000000008881784,-0.161851284598080846777179,0.504123631787413151172927,-0.960753967202569114647304,0.046467927486815135962317,-0.06420103272052901655087,0.00951730113471878878816934,0.0164000696247322448606543,0.00462590857052279022521013,-0.998060415059979888496855,-0.0598732150072746535651724,-0.111914160881540061809325,-0.0543688576764998349188929,9.81370515736186632693716,0.0296091120705063749751762,0.0506574066558930294346119,-0.00239242922295089446155236,3.70701665861136042678936,4.90004929585675608194606,1.20151821268330682990211,1164.08460534235678096593,1105.0487764756376236619,1116.79395318747242527024,1143.4275568563543856726,120.623505960795981195588,-186.920849928496295433433,407.143616179391358400608,-299.600872346952201041859,153.72198994225402657321
2.79000000000000003552714,-0.0791366046999364691760803,0.871452020856627762590563,-0.756518596057162096002457,0.0461621559091026090193566,-0.0609692123283425979618499,0.00495823890096810156874474,0.0163139583302827906319266,0.00457514663510314324029737,-0.998062646783231977032358,-0.0598633765656236827013004,-0.110624817232305008851689,-0.0509701028433779332327269,9.8207167699601232158102,0.0299973194948949389848636,0.0509564779417772673042464,-0.00231662420130319176431177,3.70692971581633523570076,4.89993158839246678581958,1.20150799717062928273492,1164.33023574354706397571,1104.59108098524166052812,1117.62387865128539488069,1142.80023539333592452749,83.4758280133900854025342,-158.351502690223895797317,201.155460925478763556384,-158.148093622006598479857,153.721622055706120590912
2.79249999999999998223643,0.0272880700892171208782333,1.05906272953109836798546,-0.474275266301123099577097,0.0459230610404363359666746,-0.0572287797169081305370675,0.00180357333410002210888345,0.0162298346562235878964842,0.00452613769224539507635141,-0.998064360114833681869584,-0.0598613724686621884174542,-0.109600430129701290060673,-0.0478254977435787695383418,9.82717722384263048240882,0.0303853952555850279071414,0.051263763827722991228697,-0.00221942794422198873618979,3.70684151213412471648212,4.89981422638603802965918,1.20149878701892620647129,1164.50198448242372251116,1104.25701896218652109383,1117.79973049209979762963,1142.63681638824436959112,88.5508102936929191173476,-136.660383075062043189973,-23.2140286250346825625002,3.49079187585637740198763,153.721355724003956311208
2.79499999999999992894573,0.159344931342318391065405,1.11712796124581581480584,-0.112506287630337487026821,0.0456888983749899474373635,-0.0529800139928314692272515,0.000143598770121401481027895,0.0161481781850886935147926,0.00447598401406333352287037,-0.998065648262582594263392,-0.0598657237274374115498787,-0.108857744832423594671944,-0.0449158845412607823921469,9.83301592646957089982607,0.0307712156677758669198752,0.0515792872946974068071313,-0.00210349734604978058985503,3.70675142076830566040258,4.89969731204148839509571,1.2014902604393233875868,1164.77298979501551912108,1103.90777906986636480724,1117.50780850816022393701,1142.81768935271520604147,162.900127152628385829303,-169.567799826567323862037,-211.762173317133573391402,140.548050050168313873655,153.721130190605890675215
2.79749999999999987565502,0.325419038027989659944694,1.06188006087305431002221,0.343325320604688344339195,0.0457006875545521926151871,-0.0484025602503726712355636,0.000551621458080118294217686,0.0160709864564258925190288,0.00442318941998619177130569,-0.998066557843312773812272,-0.0598752184177772789341887,-0.108435023451884757217378,-0.0422504933119168882282857,9.83817116866290142240814,0.0311524541498364795910625,0.0519029209030443181016601,-0.00197119334262401161780853,3.70665903923257022967164,4.89958040794363469672135,1.20148168784766884442661,1165.31648511818684710306,1103.4091799630537025223,1116.74091962551415235794,1143.33955663849519623909,242.11378953039641714895,-200.867789087337854425641,-330.976194987875203423755,223.627636855811402938343,153.720906013912468779381
2.80000000000000026645353,0.446837389721019329069662,0.949884784867066289670845,0.683513475356983923880705,0.0461864578504845788020639,-0.0459519618196252491171272,0.00303265224288698292606781,0.0159989021980431571356984,0.00436734148613198477212327,-0.998067366120372834181751,-0.0598850903774729298456592,-0.108335582135495669953151,-0.0398567595160226328943054,9.84259164542378073292639,0.0315271321423613512524575,0.0522340311098573942261147,-0.001824789441531284462511,3.70656451280054533015118,4.89946293397294407867548,1.20147248543792484198889,1165.98355874266758291924,1102.90344012442960774933,1115.85292753322073622257,1143.9358275369943385158,309.565927208793254976626,-219.573767672303546305557,-384.579753492218003430025,250.35505948097252826301,153.720757682154840040312
2.80250000000000021316282,0.514641373404845836603272,0.825201962664387056456405,0.925032667153987464558895,0.0476084914155299535054588,-0.0451325799343950118114321,0.00680059538183416280310301,0.0159301429189315849055397,0.00430822940031594034393514,-0.998068322901686788561904,-0.0598916792129262839927684,-0.108508789081408332788392,-0.0377613383605283903232674,9.84623716891885969459963,0.0318933226127874336341961,0.0525717201305715628456561,-0.00166672979555779069218979,3.70646804562829368379084,4.89934409275334292743764,1.201462804299189057744,1166.86431475423091796983,1102.31131112469211075222,1114.81802085805293245357,1144.59133193590014343499,424.635398635573380943242,-268.684385268312610151042,-466.26953277519618268343,283.417317477284655069525,153.720649240732569751344
2.80500000000000015987212,0.490778845981278077914567,0.712367061602644180418054,1.06671336753064727176366,0.0502302640630641686336766,-0.0450710503531203121596604,0.0114864908340360540039971,0.0158647183248380070630379,0.00424511704345471949789692,-0.998069707065648015209547,-0.0598904075675859570715431,-0.108934208902294646370557,-0.0359800617190622201713168,9.84907750139923798826658,0.0322495334373632813740329,0.0529147489582140195807369,-0.00149953265508487223328649,3.70636998258359318114685,4.89922388919005769025716,1.20145319607225120606131,1168.10673573584540463344,1101.56001819808807340451,1113.52157986934480504715,1145.35291412438073166413,471.071404242558003261365,-267.111601577295232345932,-469.546946510136876895558,266.734042965396156432689,153.720565181998324533197
2.80750000000000010658141,0.360358568626304609505695,0.664973116939958752702466,1.05981659614137324609828,0.0527521030175014948859769,-0.0449652388835892410923201,0.0148765798184132009424063,0.0158024530829782537677541,0.00417993886515202923981338,-0.99807147506419091609331,-0.0598819202965599345356296,-0.109580957808106269069093,-0.0345780581487589375178082,9.85109351247917430782763,0.0325941522610605702303666,0.0532620470428861111922281,-0.00132569624979228051567248,3.70627031323590117040112,4.89910265847215953272098,1.20144368011143654051409,1169.21967177544365767972,1100.9757531168056630122,1112.47028612550229809131,1145.92500215072709579545,436.361712180596668986254,-201.098105317309745032617,-398.521086001537071297207,210.634822721481157259404,153.720533422816259871979
2.81000000000000005329071,0.108544370610966584012047,0.657251838689564493733997,0.941081187166062260729404,0.0550567126916695487315323,-0.0440176382584138020659381,0.0173779611268053378603238,0.0157447778929680239079492,0.00411665270326827363589484,-0.998073491790768430043101,-0.0598678406281713954006918,-0.11044424398933246067589,-0.0336583930474172038360692,9.85227671363866086551297,0.0329259744055653141847628,0.0536125181229051631093263,-0.00114767012210171149427795,3.70616964803181847543101,4.89898091383891287620145,1.20143481826634079823179,1170.28854429674834136677,1100.55452767150154613773,1111.52897443933716203901,1146.40608823798811499728,398.968663209697638194484,-122.383273524476749116729,-347.550731570352695598558,175.196603623957429363145,153.720541198942186156273
2.8125,-0.228808868266561660220759,0.661676204333711659444361,0.749490744743829595542195,0.0565264149455510789277213,-0.0422448237976247101266303,0.0193361855981589760011818,0.0156935700438707928516813,0.00406153392387484379888463,-0.998075603344093065238951,-0.0598498522759788112446167,-0.111523381265744833679143,-0.0333658083045868664173739,9.85262970729546161408052,0.0332443350222634756430118,0.053964986094456879328618,-0.00096789313942688328523678,3.70606862725095265176378,4.89885892437023429124565,1.20142734832003905687259,1171.21451509149210323812,1100.3638367491832923406,1110.73253246765057156153,1146.80098516884686432604,311.393030717369867943489,-2.02446658418016101066428,-272.712304666726026880497,134.428914685852902266561,153.720581540589478208858
2.81499999999999994670929,-0.626073791496588816229973,0.652424070561099744836042,0.49450925581946558740043,0.0560556652124234860989915,-0.0398058521931038897245791,0.0208355041667066531729802,0.015650399790987090664629,0.00401671321162121001957512,-0.998077671154264378650112,-0.0598297588537843247347148,-0.112815920291206031600417,-0.0337580361345456089749995,9.85216576187478310089318,0.0335490832781132411466452,0.0543181190844777145310118,-0.000789419497178767202820449,3.70596718907668787323928,4.89873658625406438460459,1.20142222755177630055812,1171.84550945033515745308,1100.54440533858064554806,1110.16541291600356089475,1147.07823281141736515565,184.465450924112076336314,177.896536955453626660528,-187.309209327081021001504,89.9519298582637105710091,153.720660808674551844888
2.81749999999999989341859,-1.0967334780403596994347,0.600482093968741303946501,0.146341911259461388006287,0.0527098928847502395944602,-0.0365163769749107525175447,0.0218793563601574585220089,0.0156119922813226091884431,0.00397725714961105845240974,-0.998079754085007597730339,-0.0598077896746734213873076,-0.114232886716861672948831,-0.0347423224428521706941275,9.85090984655141888026719,0.0338406961370575354308698,0.054670238710194947462373,-0.000616361827562601294686062,3.70586526522488401980127,4.89861345427399896834686,1.20141960032330419316793,1172.13684234611264400883,1101.25331943396054157347,1109.79598642101518635172,1147.25074481813817328657,17.7181520931757532366646,341.358101216117574949749,-82.4288711573462364867737,33.5634965510969678348374,153.720800389837620514299
2.81999999999999984012788,-1.43013804949088529916423,0.519906079956333755376363,-0.155366938106412749709406,0.047918905522332716495626,-0.0340717680832212585495533,0.0218924858895084006871201,0.0155721208660487882985413,0.00393934546640868025330073,-0.998081670196220627211403,-0.0597888615074719520503521,-0.115628697997159954335977,-0.0362384443034456937837717,9.84889817812515211414848,0.0341195216628694605875971,0.055019731419213659118217,-0.000452649477602313338696349,3.7057626125009082151962,4.89848909556180789337532,1.20141844026072774909153,1171.93410021080103433633,1102.25119584466119704302,1109.75326856021683852305,1147.24605029417284640658,-178.562796400125762374955,471.53171239785024226876,31.4590333029151807409107,-31.1837099554829251246701,153.720953285093258955385
2.82250000000000023092639,-1.65985835862287411934801,0.416447006785335693823669,-0.440313520968253380161173,0.0422114490533443825759363,-0.0326360705896909172873954,0.0208330843787383999943241,0.0155293401799087658204934,0.00390367428038531543224576,-0.998083243450585522182905,-0.0597762138075449284135843,-0.116949469779554268700217,-0.038254052639665622748133,9.84617506187268531903101,0.0343864271299339635534764,0.0553646475806596205515575,-0.000300853722994170677280251,3.70565923410334674414912,4.89836342929157098069481,1.20141757232662227394826,1171.24402836411195494293,1103.61097799594995194639,1109.95328158752977287804,1147.09482626836074814491,-410.783161130547796346946,655.889585171781959616055,128.79835571560801099622,-87.0488289565796975466583,153.721143395004702369988
2.82500000000000017763568,-1.80606844478678518761683,0.299096254953461648806723,-0.733157182298253884411565,0.0358876926867687934263884,-0.0322803947452568323894795,0.0183433330235291264243003,0.0154818762206315845009197,0.00387166675388533366997112,-0.998084521503235899686501,-0.0597693960081817562968176,-0.118137713073972985822202,-0.0408036271697370389599513,9.84279351610715913523109,0.0346429985495813330675929,0.0557026113309949527652165,-0.000162878753241994827421005,3.70555523790461771582727,4.8982363939146260634061,1.20141554893302870965499,1169.88018440514815665665,1105.530643770520327962,1110.39726033879492206324,1146.81080614938991857343,-577.263336612498733302345,728.224762122469769565214,183.859697905294808606413,-103.551257667097544867829,153.72141316305007308074
2.82750000000000012434498,-1.83494614879721518185818,0.229653188808441433010898,-0.921621267329011506497238,0.0315281833261485261443724,-0.0329463715685477942507475,0.015611070139825032956904,0.0154286965288346015340304,0.00384231829497997919367624,-0.998085637170389672334636,-0.0597665205624576742482468,-0.11915828226825257718513,-0.0438476998522462149687762,9.83881373862607944147385,0.0348912813550148886987401,0.0560310499280901666563359,-4.03351526826897666274351e-05,3.70545082003673753590078,4.89810786811548304342523,1.20141203787055483864776,1168.35771168104952266731,1107.25210180656222291873,1110.87258007705622731009,1146.57706998002527143399,-664.452374266207357322855,686.027647345705304360308,198.350796328490702080671,-66.5951397563290470316133,153.721671233465485784109
2.83000000000000007105427,-1.79459379906646088187472,0.201108502843741987486936,-1.04697753416457439712417,0.02786603994163830769204,-0.0338903358414392591457798,0.0129126283888720185671906,0.0153686929317644205977844,0.0038116208692994322897174,-0.99808664834065641269234,-0.0597671658619779791465909,-0.119983951668983720995065,-0.0472809518391044125706912,9.83430249864711569784959,0.0351334063625525702678765,0.0563474936436084636315336,6.50950858873938488459096e-05,3.70534688148025281861919,4.89797808501522258239902,1.20140784364230812641949,1166.55792253381719092431,1108.96078200724878115579,1111.38901432043735439947,1146.4778304506082804437,-815.938525199243599672627,723.830066351426467008423,225.156779250351320342816,16.5654322995582212740828,153.721961616569672059995
2.83250000000000001776357,-1.69114240582622898934062,0.198776071993266134629863,-1.12960876315333624830828,0.0237042078567754957441061,-0.0339758117888065910849882,0.0102155987117786874185388,0.0153042564175311576746275,0.00378013814767804096420023,-0.998087501195464632530729,-0.0597715624966298555986732,-0.120656816304495415059783,-0.0510855005534038564274368,9.82933137875921936199575,0.0353715354796672251658229,0.0566496115973676994670427,0.000152546817862604124332176,3.7052441109066904800784,4.89784716109575590792247,1.20140370545562658044503,1164.27801905505339163938,1110.87125213831927794672,1111.99836397330795989546,1146.65989714152306078176,-822.34607259994777450629,665.679278786470263185038,216.418294873533398003929,131.635346588521400690297,153.722344226353271778862
2.83499999999999996447286,-1.56774252475044106880375,0.198185576856534012568645,-1.14546768116563391082252,0.020217957955483967930066,-0.0328452116557658713169587,0.00811959926415722725578927,0.0152395526432761545254646,0.00374809568807902161041712,-0.998088160346146668899792,-0.0597792097415608472688042,-0.12125983871077906928182,-0.0552327339443135223451264,9.82397617480315865634566,0.0356077974654835857637458,0.0569351611811785562888844,0.000221224780380371713935789,3.7051420545222106817107,4.89771501293070965488141,1.20140011439318095121109,1162.44619217081753959064,1112.28917840118106141745,1112.47110579480499836791,1147.13600718355087337841,-679.029646783206658255949,523.681771784970123917446,179.981010307896411859474,260.89583852436237521033,153.722688764165411612339
2.83749999999999991118216,-1.40676547140653940282107,0.169802319116818506428146,-1.10233652241091029111431,0.0166808742183885347354355,-0.0313601606962204404460692,0.00539369353842058824738404,0.0151776693227036740818647,0.00371502227380958579758263,-0.998088721520499433381701,-0.0597877463486053556396271,-0.121860809788161397748674,-0.0596735327027298340096806,9.81831708317912621453161,0.0358441772017877649525452,0.057201951034699695386454,0.000270145710085330443064877,3.70503997127373940756456,4.89758215380189110277342,1.20139731922749648518334,1160.88287082113743053924,1113.48966099724407285976,1112.89826902484742277011,1147.96437633414484480454,-555.827515757494438730646,440.953244298098354647664,165.946704655747339529626,378.561239395193183554511,153.723056175845556481363
2.83999999999999985789145,-1.21247121239224409094959,0.106891409145999025098739,-1.00327136269704886295528,0.0131440320001345398864823,-0.0301809375348064713728835,0.00214089320666375993937325,0.0151173435157479305740447,0.00367883565345985272601603,-0.998089231216128802692822,-0.0597968338403599419805801,-0.122449169588863163160575,-0.0643177468784272288182535,9.81243904444157344357791,0.0360819232111995458200937,0.0574481522207783562583572,0.000297835342515670811486955,3.70493643302946651374441,4.89744842264889790328652,1.20139515466095758711162,1159.66705459203012651415,1114.49394462267150629486,1113.3008393180837174441,1149.02881338052679893735,-383.123487264557809339749,350.666735654407602851279,163.872794637279952212339,455.048395630652748877765,153.723439354399232570358
2.84250000000000024868996,-0.978373528552230253829691,0.00270598655149446518097811,-0.834083799876035980602751,0.00997644020611526335939878,-0.0294836042674060834489769,-0.00115145729220096594211387,0.0150586991989379408163341,0.00363896188300267707169122,-0.998089687611217635243577,-0.0598064995627567014269133,-0.12304391157595655215129,-0.0691030636817255988768594,9.80642876982506628280589,0.0363217262369403895427844,0.0576722245400393407344097,0.000303208064101690225045083,3.70483107287924262607248,4.89731349814405891862634,1.20139362033217844683008,1158.96725338481451217376,1115.24299467551622910833,1113.71763299803387781139,1150.23961831229826202616,-183.41126954786557234911,265.588770109052632051316,204.429631733123471803992,523.954807160872519489203,153.723837524811102639433
2.84500000000000019539925,-0.661638707729904074206218,-0.156083754779786088029425,-0.564984692431611645879741,0.00712030851745104175626322,-0.0292062642513180870107448,-0.00444668795727505561377058,0.0150013100456109719355036,0.00359692631878592329608413,-0.998090198266098016510739,-0.0598149605659641786514769,-0.123653806730552692783043,-0.0740052407232639070100433,9.80037435053536931661711,0.0365640898640729322677245,0.0578728522356147800920212,0.000285582633060148997992261,3.70472387925098267658086,4.89717703605357890239702,1.20139269689090300019529,1158.74999824429073669307,1115.82188847321685898351,1114.32298747674940386787,1151.64858741633133831783,10.8556573057287586436814,156.801217702653673313762,254.635873797820721620155,482.250373318412414391787,153.724328062894244339986
2.84750000000000014210855,-0.382298425084922399719289,-0.299409172372957443908348,-0.312015293907864033062793,0.00575858603738752233142106,-0.0294955676455293351601039,-0.0060152156182670737938345,0.0149461651761889722372922,0.00355283538204881040381555,-0.998090869775016376053145,-0.0598201857367310074753419,-0.124319180134947318561167,-0.0789729411462552488565336,9.79436330535117427587011,0.0368093091759928436879079,0.0580492057886257267762531,0.000244546396036338271884336,3.70461526187405221222093,4.89703899434620915087635,1.20139216992871689093647,1159.02153167134315481235,1116.02700076402948070609,1114.99081236702295427676,1152.65087017889027265483,167.105270827963892088519,26.2261619423503482551041,316.750068303606383324222,346.578661784186010663689,153.724744722662194362783
2.85000000000000008881784,-0.108439012379700716603992,-0.428390632471257415403443,-0.0736350821173230585259262,0.00559121343016784691504206,-0.0304845236993908016986943,-0.00572745731572981038592918,0.0148942389775154164499593,0.00350895957182966594656293,-0.998091698208323996333036,-0.0598218664153337409405964,-0.125078743775917544667209,-0.0839977763919207698339875,9.78848188532029794828304,0.0370573588927098560019679,0.0582012672954082196929981,0.000180319732186398282158812,3.70450556360884686313284,4.8969002725261070452234,1.2013913241999358838541,1159.58552459843053838995,1115.9530192829286079359,1115.90673781826740196266,1153.38148072525223142293,258.234061928902576710243,-87.9752951649625742902572,469.386022244508239964489,257.762100257065014830005,153.725167045556077027868
2.85250000000000003552714,0.192069235675131982921116,-0.535513170131574622878645,0.146591607989815631007957,0.00625678387334807888792154,-0.0326238724631000009956949,-0.00386852128251187173460512,0.0148467349301311304227147,0.00346656374769773725427746,-0.998092637867249665717395,-0.0598204061071020906648066,-0.12597690870755917647017,-0.0890539079261758736993926,9.78281368057071354371601,0.0373080887240422667816553,0.0583298755622658690600524,9.34443658002974777455896e-05,3.70439551481726825343799,4.89676176650401995260609,1.20138954413927234732284,1160.31270198098764012684,1115.5871242882046772138,1117.33774247824544545438,1153.93968068017557015992,231.737014413197755402507,-169.556882927012310346981,577.287867931785058317473,162.375476746004835604253,153.725678404945057309305
2.85499999999999998223643,0.409106715516837748936041,-0.567605615524813145178484,0.254924010935629941076996,0.00719068154957642081265279,-0.0349940439325372651402368,-0.00197347068473163701415873,0.0148055534119016403427072,0.00342555339485849878050638,-0.998093667242019311203194,-0.0598157227780336947509099,-0.12707221437759980142701,-0.0940929930269582548429952,9.77743817548020821561749,0.0375613735780711971434798,0.058436628556923199406814,-1.52725198022275455945682e-05,3.70428566955827820450509,4.89662431156899025097573,1.20138752255980296723692,1160.74420967049650244007,1115.10523486829356443195,1118.79317715792626586335,1154.19335810898223826371,95.8264552505190749798203,-214.411897483028070610089,620.961957827934838860529,77.4769447886699822447554,153.726107527906179939237
2.85749999999999992894573,0.585558003310231667271069,-0.533594290931850512293977,0.285118162379181028232011,0.00881874472320684672788094,-0.0372567123831352292606667,-0.000452568924698499338698382,0.0147690846092177491960529,0.0033857097122072178814467,-0.998094697827604182549521,-0.0598097301938476585969617,-0.128352775751864545128456,-0.0990648560140018896724712,9.77243104892652603155057,0.0378167581691018980794006,0.0585239442514535676553855,-0.000145020011926114220784934,3.70417580887178932158577,4.89648743336499236988857,1.20138549373692526955892,1160.79183425724022526992,1114.51506480078955974022,1120.44255226738505371031,1154.32706540411891182885,-88.2110340435720559071342,-269.017495473878000211698,738.72091087588830760069,54.1571060177841587801595,153.72653951119306725559
2.85999999999999987565502,0.750661426734464232168875,-0.429335144972809445995665,0.254912676667335247326918,0.0115086299098706903304423,-0.0388552064017888484914742,0.000456895464460143761915856,0.0147344556785718554248188,0.00334437193962236825606205,-0.998095612957196842707219,-0.0598052591271789821258942,-0.129781849346296718206162,-0.103875734227507704465765,9.76786216455776390432675,0.0380734890801400285842426,0.0585948290224899692724136,-0.000295053623848105263643288,3.7040661323926924453076,4.8963504550199514753217,1.20138358055230320964313,1160.3031545002786515397,1113.76014739092420313682,1122.486781712305628389,1154.46414363907115330221,-263.456212720694054496562,-276.915292090943182756746,731.787986758850593105308,59.1351623176211518284617,153.727061797014812327689
2.86250000000000026645353,0.857185206500878482671624,-0.306879133362258416095614,0.198639987589152994251762,0.0138004837919681599966992,-0.0393150042249478179345878,0.000374275577893538608908325,0.0146975538786956773373849,0.00330304706525825749266478,-0.998096485668827138049153,-0.0598020153357074826794282,-0.131289575317885820471275,-0.108517378171256603791583,9.76379396061714643906271,0.0383308622017255531955193,0.0586524840240312400618805,-0.000463894011384982218187956,3.7039570037798266177731,4.89621453137876283534524,1.20138196040442690737393,1159.47455319363666603749,1113.13048834033475031902,1124.10149220117955337628,1154.62274121570703755424,-388.029402799585284355999,-248.645450995928996462681,592.142324888078292133287,82.0999834364046421342209,153.727501008175693186786
2.86500000000000021316282,0.949370962691492570328933,-0.165968318640544926223512,0.134491930701773454437387,0.0156121070360496390361238,-0.0397447455799430082734602,-0.000153693959815024409508097,0.0146572402067294167704592,0.00326229530511903346307045,-0.998097318175739989243311,-0.0598001995140382963667136,-0.132860207620077219736743,-0.112972590849323373252133,9.76027875434326297465759,0.0385876797212442446127767,0.0587004415011210464725444,-0.000649473189193069217958754,3.70384752522453286616155,4.89608068432529108804374,1.20138043716900000390524,1158.36300748628059409384,1112.51692013594447416835,1125.4474933367462199385,1154.87464355625320422405,-457.632784555390344394254,-244.059472759777889905308,470.066095011780817003455,119.790652653094014112867,153.727944881418324030165
2.86750000000000015987212,1.04376253181362055322268,-0.0199041488433975462257752,0.0724991656664326772352425,0.0171127098033300104051868,-0.0403717089375944318541123,-0.000617183680362489643471402,0.0146148670138792954181772,0.00322289075821924689280173,-0.998097921287111833343886,-0.0598025964518023867011465,-0.134520268456871594509039,-0.117237230263854325107431,9.75735770139023195213213,0.0388419347709142159796869,0.0587424714148371274191618,-0.000848958687957964384940279,3.70373676139700025444768,4.89594959221130299198421,1.20137836941499709375591,1157.18638927085976320086,1111.91019097653588687535,1126.45182267623840743909,1155.22169447897249483503,-443.292479129613980148861,-244.384018247370221388337,297.852468627940652368125,161.882459811207610300698,153.728392628402417585676
2.87000000000000010658141,1.14878052897632554341101,0.118187651143588395852291,0.0113151020916946142003123,0.0188099066058281978730538,-0.0406280420977066236698505,-0.000660488389935519728049518,0.0145728725522752174809105,0.00318816775120147385264024,-0.998098058331123971775867,-0.0598123904560961330845181,-0.136307631048610988777625,-0.121363251869491289847147,9.75506012488175322516781,0.0390911285430259880513404,0.0587820553879676438446822,-0.00105856938739475135019541,3.70362446621663154999737,4.89582158333034733743716,1.20137507104822960357637,1156.14654509063257137313,1111.29500004470764906728,1126.93675567988589136803,1155.68405585530922508042,-380.590074365553789448313,-273.879030131735305531038,79.256149411505120383481,222.555519340044355658392,153.72884456621136450849
2.87250000000000005329071,1.27987197629585969238519,0.248782712588012433485574,-0.071152138764571604134801,0.0216454504237550797440814,-0.0400440011114710642248227,-0.000369219188322118699145669,0.0145337873807249735175207,0.0031587243564161898712328,-0.998097769262545786439489,-0.0598282673435087258839715,-0.138258120413471019549689,-0.125352511715971226546884,9.75340358856481159932628,0.0393330195530189954955524,0.0588215650197826192546735,-0.00127430640226767056925883,3.70351067443259962530533,4.8956957365439688345532,1.20136995676908897578983,1155.28343889903203489666,1110.54079582587723962206,1126.84810342329592458555,1156.3344720756726928812,-232.087641674984695328021,-275.491937199655183121649,-142.168265324110819847192,241.749802164081899036319,153.729390490262943558264
2.875,1.37787488182022488381051,0.307131750986172680217834,-0.153480225947520004803337,0.0248551130427320902949173,-0.0391132376575737683577216,-6.77405036902817969798538e-05,0.01449726011396829279676,0.00312800756832384970959615,-0.998097308948283634677523,-0.0598463880368452008640112,-0.140352719926236435554756,-0.129065966873255333347004,9.75239526431298919817436,0.0395655720319359194281361,0.0588620169346076305139093,-0.00149285858177361030821317,3.70339588937250940858803,4.89557027969270563971804,1.20136276584990264737485,1154.98610688225767262338,1109.91754035870940242603,1126.22591435326535247441,1156.89280486612960885395,-24.5308694503824646915291,-238.766154330101556979571,-343.906920897059592334699,203.196776855388407057035,153.72984706479195438078
2.87749999999999994670929,1.44186710259546591039737,0.29057735828447295300947,-0.24981378958878056040227,0.0289082818109907269121805,-0.0377459083153213470485099,7.12251044313814128151885e-05,0.014462450450905821319747,0.00308858592341780362200421,-0.998096926015121344022418,-0.0598631966304679977164405,-0.142556988101754378295283,-0.13234718487547098009216,9.7520304013596916803408,0.0397867510087819148401067,0.0589031233062786638288166,-0.00171090470175372009152548,3.70327978400240320766557,4.89544376306802497822446,1.20135391346060704798049,1155.16078455178012518445,1109.34696505422675727459,1125.12856881881066328788,1157.35045595994961331598,174.321014825549440274699,-225.476888376356583876259,-551.692540695660568417225,144.47124217959151337709,153.730303177775880385525
2.87999999999999989341859,1.46118120630770387258224,0.167904866489897330872338,-0.368939653165945236068524,0.0340183004296980701086639,-0.0354913824913508507696847,-0.000190786046474529763072175,0.0144285666800122187175548,0.00303800580803132271381917,-0.998096847530131170422862,-0.0598752275419374632714486,-0.14482518789267978531754,-0.135135114129871891641699,9.75229167121351459002199,0.0399946351346107953350639,0.0589433581213029203493825,-0.00192460771787343631368528,3.70316214025185086455849,4.89531511256920204289145,1.20134331826753193439572,1155.85771195638540120854,1108.79015591682764352299,1123.46745164978710818104,1157.61516107702755107312,318.76582068494599297992,-174.518384350407444571829,-627.327632150413364797714,25.7953399469448463321442,153.730846793778823666798
2.88249999999999984012788,1.42663619707195210573047,-0.0178589434844424639614591,-0.453791593257801384453387,0.0378341154213778438353266,-0.0337991335887254731873419,-0.000943573024917049502958977,0.0143909823382046987011451,0.0029787772706166368991143,-0.998097105589958455418298,-0.0598829082358666650587331,-0.147025223305891017400171,-0.13745819614515386586362,9.75315136013032812911661,0.0401870624090605033096324,0.0589805268817498173916647,-0.00213014352679403821955173,3.70304268622421206558215,4.89518362031824683100467,1.20133071735370622334926,1156.7546136552048210433,1108.47437313247473866795,1121.99193065805866353912,1157.47943265968433479429,396.508079269388474585867,-90.251192894077846062828,-558.560180412049248843687,-148.943545268401919656753,153.73129398377682264254
2.88500000000000023092639,1.34620644228111840945417,-0.264315970116273835088805,-0.496836313050690425718869,0.0413104044939889003540401,-0.0332856819202307571692323,-0.00242888795442454136913613,0.0143462868964327021348293,0.00291311054039847900851146,-0.998097730691770546052055,-0.0598864074015648187310212,-0.14904450352977649529862,-0.139336029254759574680378,9.75457087681461842976205,0.0403622888868254842131833,0.0590118086463095672944412,-0.00232405058389300147106415,3.70292114939546612717436,4.89504936603306628484233,1.20131639972173442920678,1157.84025235273247744772,1108.3388999523572238104,1120.67465074772667321668,1156.87044335068549116841,486.418244660866434969648,-19.4877269546382692055886,-490.651028166133585273201,-382.642363880878860982193,153.731731617075098483838
2.88750000000000017763568,1.2103790007925172567127,-0.575551891174559182573489,-0.470521660865880653190629,0.0452887939575735629094133,-0.0345962624443428845566473,-0.00507607838018127831281046,0.0142929427027072963179988,0.00284399561499525587934811,-0.998098721479099393327772,-0.0598859529018590033833114,-0.150802932678210765971016,-0.140800522547658735206255,9.75650171979483005202383,0.0405191370950902032821439,0.0590342271173996679944906,-0.00250324254327167431549706,3.70279747875399234402494,4.89491311263784201202043,1.20130072088248462947035,1159.18670487850931749563,1108.3769344977015407494,1119.53867551722782991419,1155.56622084027981145482,477.128882124871950054512,41.1507884322881736238742,-316.267667675954214701051,-561.059502129285760929633,153.73224148381012810205
2.89000000000000012434498,1.07773890241661551847585,-0.802504957789975104098801,-0.371767510467452932942933,0.0480939443548895270708066,-0.0373030504108758931280931,-0.00771471548685552423879619,0.0142320238453764631725296,0.00277316888759293481495072,-0.99809993619974668455086,-0.0598835586054973431635595,-0.152271284359697445243143,-0.141857310033751321531881,9.75888706948315132194693,0.0406570128299239899605233,0.0590451677840818089926245,-0.00266532595221090785192475,3.70267237186010067517827,4.89477556440495042977545,1.20128427252131020352977,1160.22589676335678632313,1108.54465389451866030868,1119.093312409346935965,1154.06514584003912204935,375.413628370014350821293,83.2800986641831997303598,-64.8562579428940040315865,-651.877473260051601755549,153.732650429245182976956
2.89250000000000007105427,0.943565756624240914440804,-0.951795325650326762279008,-0.201366608419782350258842,0.0501681820916892104444962,-0.0410826431149095908090807,-0.00988529164061537068963759,0.0141683494673354084397721,0.0027032626324680277159207,-0.998101349652984359828167,-0.0598783499560520612869929,-0.153493128165899717085807,-0.142528654321777636937441,9.7616628583381821471221,0.0407766350991019543847926,0.0590422950493274395489252,-0.00280833485150542433439469,3.7025471584241764766432,4.89463704900009233256242,1.20126786103942340133699,1161.06377302035934917512,1108.79333499102244786627,1119.2143942275133667863,1152.30683347397962279501,290.643701001233068836882,102.492812463426531621735,130.690485648531705464848,-709.811975864219334653171,153.733038885641491333445
2.89500000000000001776357,0.82072478982185348428402,-1.02067790868759322719939,0.00277904999330963941792105,0.0516948383023865254415341,-0.0449095911691690316547287,-0.0108343712815812485278366,0.0141021870843373656190245,0.00263657898767197338557589,-0.998102953291875483188278,-0.0598702665500078015647922,-0.154426257095969465815699,-0.142821406272727435826653,9.76476360261005105201093,0.0408796037511543822184912,0.0590240312718262188917961,-0.00293160078331583485652945,3.70242224804220798617393,4.89449799192589107832418,1.20125227286633462497889,1161.67911526836292068765,1109.05711795683578202443,1119.74676483758958056569,1150.51608596071810097783,188.877652041359795020981,98.4955897926304828615685,278.539232726422142150113,-677.019683801941823730886,153.733407315293192141326
2.89749999999999996447286,0.719894387994503226479992,-0.996894749401022517432125,0.200422069416013759468598,0.0526982291254287360526831,-0.0481298574524036265609439,-0.00971846357198562910140183,0.0140304956506079308437007,0.00257249044845634647002419,-0.998104618938742138567477,-0.059862161172882948079188,-0.154971468949858415253829,-0.142679528369904301543514,9.76812421695549737421516,0.0409680893578092536477797,0.0589898244823776549128347,-0.00303583042956284644350862,3.70229825089513031599608,4.89435879689844188789039,1.2012381238335450017729,1162.00816128056612797081,1109.28581293998558976455,1120.60709039114544793847,1148.9217350549699858675,88.5541734805902507332576,84.3540564318136460997266,396.810626750774929405452,-605.026530875842695422762,153.733747807769873361394
2.89999999999999991118216,0.621202691611045687558601,-0.88824706622881577366968,0.37284480378363138441955,0.053802788621779132349765,-0.0511586675815090957675224,-0.00635304109827809510707697,0.0139514363638656192778686,0.00251108145722654099371574,-0.998106159380882096421317,-0.0598575682654722135422887,-0.155057998673319541449445,-0.142061725541594630062292,9.77167934091626477766113,0.0410449658193392866167848,0.0589400357324708981665573,-0.00312208819961756669364439,3.70217600798811785622888,4.89422001362795011658591,1.20122529367338959360723,1162.1218861357658624911,1109.47888823899484123103,1121.73081797134341286437,1147.49095330633895173378,12.1432522077614386546429,54.7237055442576831865154,383.511379267573829565663,-422.03917374282343644154,153.734119066409448350896
2.90249999999999985789145,0.54470621272770380905115,-0.758248336715728998846942,0.441852002666647702966429,0.0550394409877077092629882,-0.0530912151717665425909587,-0.00316165391278197755245416,0.0138635731624298427083763,0.00245036772310967430540951,-0.998107571603356280576236,-0.0598569536390196957342802,-0.154632840366877855053929,-0.140887583924878434515904,9.77536567134840161941156,0.0411140100850556702849481,0.0588755743949940027470724,-0.00319194375464476685216875,3.70205624460456839130984,4.89408209328673127203047,1.20121341043879392707083,1162.06887754160493386735,1109.55943146770687235403,1122.52464728748327615904,1146.81153918625591359159,-23.8981315798793971794112,12.6333422424059449440392,242.668121618982695508748,-161.811251916004039230756,153.734393665477284685039
2.90500000000000024868996,0.45189069374561108283217,-0.62153899414667601597273,0.445092880363908260932249,0.0566265321430126991608667,-0.0544122201040310657371712,-0.00112476007508357849981606,0.0137691778884607707311716,0.00238826532483036148638011,-0.998108885984165028482096,-0.0598593637045983506528302,-0.153723675394414005523913,-0.13908219426546974961667,9.77912159258875668399469,0.0411793823572991282699896,0.0587979349451220184574751,-0.00324676439081680260484442,3.70193905325997141275707,4.89394499081003520046806,1.20120209675969902285431,1162.00239547786645744054,1109.54205495020687521901,1122.94415857943840819644,1146.68189704675887696794,-0.650296713047238683635953,-38.4401272605347443800383,61.9806451419621211584854,47.7438095018864743224185,153.734628203283733682838
2.90750000000000019539925,0.298495085979322727354202,-0.48551416740125896698288,0.420029437204136546490929,0.0587031737331539377189316,-0.0550730684266497599876899,-0.000254679428058288202622872,0.0136689823611558618210449,0.00232482628284280245373195,-0.9981099742380541428588,-0.0598667554647383803878569,-0.152333846348500945300231,-0.136616578959971063378376,9.78289040875763582505442,0.041244689230982803374026,0.0587094296671240439833284,-0.00328781695544286224272557,3.70182364323598811495231,4.89380835331000341170693,1.20119028833193119965017,1162.06562605803969745466,1109.36723083140418566472,1122.83455051319310769031,1147.05025823376536209253,62.8520608544035681575224,-98.8987713529716643279244,-154.210481133308007883898,194.577221985313883578783,153.734859603763993618486
2.91000000000000014210855,0.127434008872272325207931,-0.414018971010731873239052,0.414066025438821094795117,0.0605639788829942862791178,-0.0550637574896674919511241,-0.000590159515046582679523302,0.0135663669889749208957719,0.00226223974169342378209846,-0.99811080488830228318875,-0.0598787803646811528368588,-0.150524514688759325498069,-0.133513898896084282075236,9.78661945847756520322491,0.0413132838201721100390706,0.0586126597886606343079663,-0.00331587489519638263860135,3.70170928715283142906856,4.89367160619133034771266,1.20117778652226969704486,1162.3166557821384685667,1109.0475610934420274134,1122.17310617377188464161,1147.65478315668542563799,146.261482982257291496353,-173.285825264205470830348,-377.682863778462774462241,266.067424966473708991543,153.735008603977320262857
2.91250000000000008881784,-0.080276121514713624782722,-0.39256620981345924370487,0.456346817999877418792209,0.0618973045297302112977,-0.0551808173755002767668643,-0.00128381939323492493681966,0.013464203324253434107538,0.00220388182458595505500143,-0.998111604636466198670064,-0.0598908546829417937074069,-0.148353725307878547834406,-0.129828931774169403778885,9.79026245679182771652904,0.0413882311235497027390728,0.0585103132960915067739549,-0.00333167911562519533305582,3.70159518976274348744937,4.89353547569260349803244,1.20116474032251274728367,1162.7969334729509682802,1108.50080170508317678468,1120.94613619430083417683,1148.38059535859770221577,249.660757747875180712072,-292.584959109996702864009,-641.046851251135194615927,309.956630059520875875023,153.735110267038521669747
2.91500000000000003552714,-0.334930326456453875128005,-0.412332537917531438687035,0.568816026531371199403964,0.061683944204844243230923,-0.0561509906257852270394793,-0.00122087705953641701556167,0.0133629718973728387615418,0.00215011939367920753771179,-0.998112589272228900583173,-0.0598992334842276749617973,-0.145843165657749129771048,-0.125566526768812580794332,9.79378133870940814631467,0.0414715783163769960428802,0.0584055246517029211239524,-0.00333666934075954775551498,3.70148099290888588086545,4.8934001880284725416459,1.20115164487692061001667,1163.56495957087781789596,1107.58463629789207516296,1118.96787191751627688063,1149.20456630698299704818,291.518646102310242440581,-367.99299856448544687737,-775.626676865948070371815,276.805275569228342646966,153.735176287249203141982
2.91749999999999998223643,-0.513359592700833200495936,-0.45091260858534515376661,0.698012882408573953618713,0.0597744402427633145236108,-0.0576241992893895757510414,-9.71797579439539501279868e-05,0.0132653650185942436484643,0.0020994593751605191041254,-0.9981138849332665818892,-0.0599012418277581337733295,-0.143065727012599119838399,-0.120710968011067482086318,9.79714437863279208329459,0.0415643206451617244767682,0.058301833958003472513365,-0.0033324788398688773988221,3.70136648207014795630698,4.89326603132113557848015,1.20113926338981680252971,1164.25452670346248851274,1106.66083671226078877226,1117.06800280997117624793,1149.76462173644381437043,252.895036253044906970899,-378.188559602321106467571,-762.989219778290021167777,190.98580528607678274966,153.735184330689548914961
2.91999999999999992894573,-0.61608322990906760896479,-0.496214949596261445385892,0.832272765312928819447791,0.0568470363185528682059555,-0.0592285469045736798210378,0.00193110831104806746766345,0.0131713956828424325756766,0.00204958239085077046498506,-0.998115509064724015786396,-0.0598966416654460667712279,-0.140047544920916311461667,-0.115241853159766607928027,9.80032824473854446978294,0.0416662377287501037304018,0.0582032047201325383745107,-0.00332121374484251096273479,3.70125018032448860338945,4.89313295252675839464018,1.20112765256939746372211,1164.82943475214301543019,1105.69369349988050998945,1115.15292581862490806088,1150.15949533341336064041,187.733543744574859601926,-371.64661368788864592716,-731.183110955878078129899,134.545584984337580181091,153.735143912908313268417
2.92249999999999987565502,-0.640696201955132660366132,-0.540756466825346726601254,0.945429702320171094775958,0.0539870870589073056922125,-0.0607736926309212291408279,0.00451420168062510035467128,0.0130766491801668754274557,0.0019978511116522544230345,-0.998117436636755783752051,-0.0598868994405459681429349,-0.136732268320789329685283,-0.109142699350516347855944,9.80331842964213073798874,0.0417761247331593019160856,0.0581138721405192459901201,-0.00330544458870199843805726,3.70113087091428294428397,4.89300014669148808366117,1.20111731385653897064003,1165.19319442218534277345,1104.8026036438213850488,1113.41208725519186373276,1150.43734966136548791837,78.4545568112154541040582,-313.677855894617778176325,-616.137392814975328292348,93.9860857017656883272139,153.735063939236482610795
2.92500000000000026645353,-0.574480673646987516356432,-0.582694415744242300014832,1.00767105447484617286591,0.0518016931736133140473655,-0.0621537110035462747603674,0.0076640765406685252766894,0.0129772045111094629088466,0.00194262756548577966882185,-0.998119663408426727180256,-0.0598730051366685653291277,-0.133075165573509734961988,-0.102432653424033140443505,9.80610666103822481431962,0.0418924068640936439478217,0.0580381430128545164337517,-0.00328746359833858529247985,3.70100817714293750526622,4.89286807217315189433293,1.20110780325464117090917,1165.22170753619911920396,1104.12530422040731536981,1112.07223885454982337251,1150.62942576192222077225,-61.136598852950065463574,-228.430596900473602772763,-464.92315598212871918804,79.8015867109771335208279,153.734937121415356386933
2.92750000000000021316282,-0.413957846649179894704673,-0.630884248362693189626782,1.00368672431779226705828,0.0501136466045010303682616,-0.0633241810779445885026817,0.0118026266838514581891673,0.0128741348214319751425139,0.00188342684929028447715638,-0.998122155742008465573178,-0.0598553075614492655076582,-0.129130655858551490755559,-0.0951748884990551990981089,9.80868864476057922274777,0.0420136239315601831001423,0.0579803802764919454237891,-0.00326870860211202207690206,3.70088279744369819113103,4.89273715857522706329519,1.2010986095659492711718,1164.88751142792057180486,1103.66045065931893986999,1111.08747147528106324899,1150.83635759492040051555,-162.4416480359776073783,-107.865662409951738709424,-250.131049780889838984876,79.4773720401752683528684,153.734731730344321931625
2.93000000000000015987212,-0.236787233279241782213376,-0.666793395457174198348582,0.933539689142630080276319,0.0493940738789540589870342,-0.0642590712261225799339925,0.0148596357857466391388934,0.0127691253222738925615642,0.00182041248375819017524258,-0.998124900042370533093106,-0.0598336784225505027845493,-0.124967035206592372298395,-0.0874612608677537983759009,9.81106534855891432300723,0.0421388006539010692708125,0.0579449459269828631713395,-0.00325012014725559270772459,3.70075611204144072630129,4.89260789491569170195362,1.20108973874659619163197,1164.40949929601924850431,1103.58597590835756818706,1110.82158360564540089399,1151.02681262212308865855,-191.505052774895830225432,30.4396581146199558531862,-2.64400334549469517853026,81.0757374870280784762144,153.734516795021164625723
2.93250000000000010658141,-0.0443962119259929954839805,-0.686327000483458626867161,0.807440079074389638336129,0.0492403001876491330790486,-0.0658137453910674352641763,0.0169241963370991080339856,0.0126651170621540579835917,0.00175285524628190025019092,-0.998127775643831927077088,-0.0598095471056430474932064,-0.120681049956927397004414,-0.0793822709393497277785556,9.813242059292349495081,0.0422675001900752814187889,0.0579362083672562699909747,-0.00323220680133083897861423,3.70062917098385790737325,4.89248014602838043884958,1.20108107492532267812635,1163.92998616404611311737,1103.81264894989203639852,1111.07425145855359005509,1151.24173628235553223931,-159.648225025060810366995,155.092163823750183837547,197.501778472046339629742,90.2423108360400050287353,153.734256947804055926099
2.93500000000000005329071,0.172036273085278412775523,-0.670065585838879429481096,0.614637985396560782014319,0.0496219034590972829512623,-0.0681909993678342513101498,0.0183778431838741498904888,0.0125648432803469115026651,0.00167725157968277817019387,-0.998130782493725998705258,-0.0597824491137018132480563,-0.11637176076591305984298,-0.0709865797575984502909563,9.8152280424592817098528,0.0424003298972637221453397,0.0579580313321325368836057,-0.00321535908734612652440377,3.70050252520694566982229,4.89235353885693236009047,1.20107204555201740880932,1163.6112581708939615055,1104.36143672747630262165,1111.80909249800561156007,1151.47802417630327909137,-45.2283676288525953168573,233.239153171967217303973,309.73265113226011635561,70.1615683274227563970271,153.733893633990305715997
2.9375,0.319306095442505710746417,-0.610386654689797025774567,0.432821670486894183316195,0.0504247129387685177892564,-0.0703039688974887860828389,0.0191514162775895460666398,0.0124639495243993609491229,0.00159287647413613249643138,-0.9981338025602202179698,-0.0597552693534694687182984,-0.111999610116870804144007,-0.0623804573670845852184641,9.81703799771265650520036,0.0425382533022041348091946,0.0580140564019994142697101,-0.00319991165503070128239838,3.70037699337196546167661,4.89222774197998244716246,1.20106180252624472615253,1163.70384432590185497247,1104.97884471575184761605,1112.62291471421485766768,1151.59254412399263856059,124.522843334810133342216,260.820232731663168124214,330.315605205130623289733,12.0233224629376138636871,153.733548146766992203993
2.93999999999999994670929,0.410471170753047176482653,-0.495195620763636323857781,0.236677444218651944485288,0.0517918574732125491788537,-0.0724236733074496985551605,0.0198116496789242507725604,0.0123587720732994173905572,0.0015019947127439758037537,-0.998136546814733405241782,-0.0597335322620567918394663,-0.107539004128105422641859,-0.0537384885096764478018549,9.81868847902822317053051,0.0426825860049902666704114,0.0581074768863454813039304,-0.00318554964805272018690818,3.70025287067581976074848,4.89210239553270032075716,1.2010499955487010659283,1164.23387238756799888506,1105.665537891134590609,1113.4606705240312294336,1151.53814078861796588171,317.652894642794706214772,295.956376027385829274863,342.301556558420998044312,-76.5481448292137400812862,153.733158393669611996302
2.94249999999999989341859,0.43747445941212093067918,-0.298706999748795332116913,-0.0128725979370777482424515,0.0540624821413505443623571,-0.0747725645027162155731304,0.0203959642432980994830594,0.0122496306206307144226475,0.00141046476777865418400504,-0.998138788983175873070763,-0.0597208045192062844663816,-0.103042049847123243222491,-0.0453158816579237316846118,9.82019643656325236236171,0.0428353228504375974083906,0.0582405055943855110012208,-0.00317114274520343157257041,3.70013036408086914974547,4.89197754990860644852546,1.20103736554259632463015,1165.29210879911579468171,1106.45862659588874521432,1114.33442249700692627812,1151.20980339984657803143,428.106441105010219416727,273.179408901438705470355,286.898955711928238088149,-166.261532095862918367857,153.732639479728220521793
2.94499999999999984012788,0.388047392368819688002191,-0.103553546096822587929687,-0.230240226799331398899184,0.056239308126921218333738,-0.0761361081685285323583656,0.0206013679187735977704765,0.0121402981304922254202072,0.00132509987831483811576705,-0.998140532812605840717879,-0.0597160849581412911390998,-0.0986305798057438981585321,-0.0373926867822366795768296,9.82157912963298684871916,0.0429991675969792902511912,0.0584139859766449887068518,-0.00315526668283486796257042,3.70000965117493629819023,4.89185311365943586991989,1.20102437738910494680056,1166.37440459309300422319,1107.03143493564175514621,1114.8951653025908399286,1150.70683312813866905344,426.538719882153884555009,205.022379061469820271668,190.790482823000132839297,-239.593434157070277024104,153.732164420276149030542
2.94750000000000023092639,0.277149735949444808724706,0.0882980365898912433753054,-0.448713925099635091431338,0.0579903887971561782244123,-0.0760655037154432805968085,0.020341745912688832115256,0.0120345300163615716998455,0.00125181658706911965936448,-0.998141831605085627643348,-0.0597175992944554492880549,-0.094429605727872775733367,-0.0302303158483486905661053,9.82285478981268944664862,0.0431767637722454064586053,0.058627549547381550831826,-0.00313683801198994319237023,3.69989069047490204411588,4.89172869479935368275392,1.20101169931812301605589,1167.42480239852670820255,1107.48373849119616352255,1115.28837491112199131749,1150.01183622906114578655,378.288876972757805106085,165.737356506349613027851,139.717187502801266418828,-295.091490461734906602942,153.731645420296217707801
2.95000000000000017763568,0.138724899490727304751658,0.244953812721788205530871,-0.655166407818036589105759,0.0588563982735388416256406,-0.0747211095456604551534596,0.0195159940426631456356077,0.011934763455468297768669,0.00119307388147861558394536,-0.998142782101377967762801,-0.0597232193443868325521962,-0.0905436425313000253778384,-0.02401605648207530419036,9.82404220914818004928293,0.0433703111133117297226747,0.0588795033199471379292689,-0.00311553917626905237450718,3.69977342497001160381842,4.89160376311796074588756,1.20100008136672498082476,1168.2658489779569208622,1107.86012171817355920211,1115.59375124010489344073,1149.23137567582989504444,250.831311389225334096409,149.232456328948956070235,119.448091118559020173961,-309.17505690295661224809,153.731090425196754267745
2.95250000000000012434498,0.00527834097656996320546696,0.327643144709117206669902,-0.823675185830845979495507,0.0585615284247684303453596,-0.0726697231297333684496564,0.0177595694823161447117865,0.0118418454288887666642216,0.00115027582919146383749753,-0.998143500044672227211606,-0.0597308643195910010659233,-0.0870470423489375783043798,-0.0189060516531239092286043,9.8251603299284493431287,0.0435811807382364968521671,0.0591668068707674604800317,-0.0030915018827556229111253,3.69965699385838853174846,4.89147779127973336699142,1.2009894434328696188885,1168.67895895547280815663,1108.22990077284089238674,1115.88561536671477369964,1148.46596094454639569449,58.0563258880386996452216,190.401839525661188190497,149.728107364447623695014,-302.043946803321034622059,153.730492820336650083846
2.95500000000000007105427,-0.10191709810448672246519,0.323726809225535205882807,-0.947562225590006912412377,0.0571293206983105456009397,-0.0703330396421641551585324,0.0143758237001960671730405,0.0117530782002270555580692,0.00111852365278049346170031,-0.99814409669858927820485,-0.0597393255095118938524656,-0.0839500738887936498455744,-0.0149163390086226449460227,9.82622764600812104163197,0.0438095386214857815398993,0.0594851066199582542703972,-0.00306595968365262023722084,3.69954032418722533748223,4.89135018296207935151187,1.20097992310377521540943,1168.5561306073971081787,1108.81213091580184482154,1116.34239177692711564305,1147.72115594181332198787,-149.408805734768520778744,255.321716936628916982954,199.507060243654166242777,-224.921169619897483471505,153.729727795712960869423
2.95750000000000001776357,-0.123410534178063857613239,0.239256836247985466004096,-0.965105562091646107525378,0.0554812107753595226689036,-0.0689080005467064271584832,0.0106357260433086048267981,0.0116690914717083159962696,0.00109228285954590187759039,-0.998144727756101968196845,-0.0597459778276689598697224,-0.0813247906832307715374597,-0.0120383829824721455548087,9.82726015852146872475714,0.0440544953934507849124813,0.0598286695696103390518239,-0.00303983125203520455556716,3.69942240860995052997851,4.8912204136927579511962,1.20097094966315176556293,1167.93191492679898146889,1109.50650935752400982892,1116.88315066793302321457,1147.34135509644693229347,-342.2240802996457205154,331.76593129697516815213,258.756588866304866769497,-86.0910510536559883121299,153.729051595636491356345
2.95999999999999996447286,-0.0667063064009300876744391,0.091903596398118653221232,-0.887353403350898850554529,0.0541965877272034129985556,-0.0683713728589424862835955,0.0067545768808700504953757,0.0115895240539002492008436,0.00106523305796109931005422,-0.998145591327167402972975,-0.0597476953732929069729174,-0.0792185635294060802591432,-0.0102280350752594409446949,9.82827230544406660328605,0.0443139635560677175307731,0.0601906476945243823495346,-0.00301404040535565263814188,3.69930204447233235143244,4.89108748895520495381106,1.20096181535668500295344,1166.84501020589891595591,1110.47096057228668541939,1117.63617472125861240784,1147.29070068654505121231,-551.524981426758017732936,480.18797770752030373842,378.628218900675051372673,63.1790644605657547572264,153.728337011687528956827
2.96249999999999991118216,0.0752738821161482440924573,-0.123460473978107804216009,-0.709322726799326619406827,0.0536259318884904565005733,-0.0686985686221878860679979,0.00313932245270659004282576,0.011511097117439257619953,0.0010328650554477152110483,-0.998146724119089223670187,-0.0597445814367542835099378,-0.0776118550667985046542796,-0.0094518890299059160620132,9.82927741680707711680043,0.0445843329183111466984535,0.0605637378917785393350748,-0.00298938433447444844998087,3.69917817105057800119994,4.89095102460451691683829,1.200952409037777668388,1165.17429001966524992895,1111.90744924606156018854,1118.77629176243635811261,1147.6572504187497543171,-642.610505518737227248494,557.948589741966429755848,447.225748169021699141013,206.996871983533168304348,153.727437503526459749992
2.96499999999999985789145,0.23248010735599697329512,-0.310849623409001130092122,-0.528397616495939193015374,0.0539955016596620970825704,-0.0695747728430840817193115,0.00139564751494572719496545,0.0114316724498242268392989,0.00099203176882810728716422,-0.998148173947327022048626,-0.0597363123541133286820148,-0.0764962688763803216884796,-0.00968108290146998951009039,9.83028615870126820652786,0.0448612235881259077685534,0.0609402722628770848745106,-0.00296621770664921629787059,3.69905023120716469620106,4.8908116255577178677072,1.20094282921030570676635,1163.63195767830529803177,1113.26070352099645788257,1119.87230346210367315507,1148.325685046462695027,-606.603645154023070062976,548.833240056782642568578,446.42632009792293956707,337.350514745253292403504,153.726654695614769252643
2.96750000000000024868996,0.399409558202824199746317,-0.482960796283658067018507,-0.370211710744799415984119,0.0553129794061560792206578,-0.0709667312691714957662015,0.000979922718626979362410712,0.0113532362100642707225528,0.000942546411893957036647052,-0.998149835999623480375931,-0.0597242549204397982220982,-0.0759303414680636695743843,-0.0109251225193130740986902,9.83130555793196236891163,0.045139645308521735012075,0.0613128296994974106293164,-0.00294400340300499194917672,3.69891875262508573740661,4.89067011960872299880521,1.20093301245555772460705,1162.14127179389492994233,1114.65161544634565871092,1121.0084233629261234455,1149.34400299247613475018,-595.681594407602233332,590.567478419967414993152,474.110314041822505259915,512.555396468871549586765,153.725839445454283804793
2.97000000000000019539925,0.581608327954370674106599,-0.653230475498604468143071,-0.268090510767990952700757,0.0577810754785830771318444,-0.0731588724699314824073682,0.00174225985812547965424224,0.0112770850247822344847304,0.00088603712577686006505312,-0.998151417655324002531358,-0.0597130038761717399364848,-0.0759458973184202884576521,-0.0132033971295499111264782,9.83233979619120113113695,0.0454141930791432946179498,0.0616746792900913359813941,-0.00292193188449973604778331,3.69878448487345501405343,4.89052746136519811415155,1.20092288940644853489914,1160.65354970626708563941,1116.21354091309649447794,1122.24285503231294569559,1150.88846202880722557893,-465.121918820169298669498,535.289631522903164295712,404.351919140626250737114,601.157706797415926303074,153.724825852529022540693
2.97250000000000014210855,0.707163491728569515437641,-0.757681262323782411804984,-0.286686444297937381708863,0.0599452677716096268834001,-0.0752373868837870607428897,0.0030987989656067328574085,0.0112061283736917659953347,0.000823374179273529812825294,-0.998152667039787888647595,-0.0597061725505994914109387,-0.0765954474504554755354135,-0.0164973786726433924165747,9.83338886726084737688325,0.0456799298086929053686056,0.0620195523032062157042787,-0.00289902250562214507806358,3.69864797596174899041443,4.89038456157004119972953,1.20091326894772465472272,1159.81566219979413290275,1117.32806360396011768898,1123.03018295862921149819,1152.34979152646315014863,-227.984788998178686370011,388.605255546744160710659,239.558856254512306804827,591.536878972614317717671,153.723953300142966327257
2.97500000000000008881784,0.805008265675475342959544,-0.821874509203290193326552,-0.420962076067782020594166,0.0616785369522760834604114,-0.0770499729169881741874804,0.00457252256609396584563498,0.0111382701134246295260333,0.00075468044192537875585608,-0.998153531686468253880662,-0.0597049852901263902738016,-0.0778224071460744543093924,-0.0207438102511840471997573,9.83445011693155812793066,0.0459328045416263069933294,0.0623415259838500518396742,-0.00287476801679033278080766,3.69850948533049095345859,4.89024204790990957292252,1.20090386453925002108178,1159.51362576127621650812,1118.1565671908301737858,1123.44064931358548165008,1153.84614642367023407132,-26.4757101394485481193897,274.682922131484190231276,92.9719428146219541986284,579.985649359390322388208,153.723053499201313343292
2.97750000000000003552714,0.883577846533951216656533,-0.854040042322118275741616,-0.630273416287865040352756,0.0633477720674941596756824,-0.0784532345360445110271641,0.00536907578429723485874403,0.0110663823030313513556822,0.000677574775273866278420265,-0.998154091656004549548697,-0.0597094325518770577265748,-0.0794635971264408408343272,-0.0258016101704373057579289,9.835517992157093658534,0.0461697360113090954358839,0.0626350278533279042347814,-0.00284933419419280790918503,3.69837009143778727704444,4.89009900384382500959646,1.20089410765827464544486,1159.68328364909689298656,1118.70147821461750936578,1123.49504267270231139264,1155.24971977326003980124,171.723163560685890161039,143.983445475535859259253,-58.5121345819983389446861,510.293725659777862802002,153.722132293572002481596
2.97999999999999998223643,0.940424324078452555930596,-0.844257519669541545148661,-0.872346696568945145777718,0.0651984910842488413207363,-0.0800915536393349281052423,0.00398246771729545041840215,0.0109817960113989688403224,0.000589184794045428342906812,-0.998154469730940907545857,-0.0597191009810019365899869,-0.0813166870986051365521874,-0.0314973760864407995030412,9.83658339927061931007302,0.046388641411287956373144,0.0628948591215481161986744,-0.00282300514670918989423853,3.69823083964798460243628,4.88995426379974862385325,1.20088398374546367897153,1160.37224157907962762692,1118.87648441820783773437,1123.14808864067549620813,1156.39761505196906909987,391.4150837684330213051,-9.50905976797023200219883,-218.042328190090415773739,414.287888430689861252176,153.721186624875315374084
2.98249999999999992894573,0.978883805882971302914086,-0.770476329928936665147887,-1.10472793230860011348682,0.0673844590513396901609866,-0.0830475089448077241627288,-0.00109515598676048798998384,0.01088126892646749423188,0.000491384385473669243506178,-0.99815476190312768522972,-0.0597329573309197947583726,-0.0832722817308892832022238,-0.0377387266229633061564996,9.83763220748335420751118,0.046588455919422448736622,0.0631162701050179131279094,-0.00279491446548539969677027,3.69809183689116593996005,4.88980751842828276210184,1.20087354451463035331926,1161.64035906793901631318,1118.65393291577765921829,1122.40483103175188261957,1157.32115921541344505385,505.877717876239216820977,-150.966748691738331444867,-296.074453953912723136455,246.422444302475724953183,153.720025120015264974427
2.98499999999999987565502,0.977019052732238768577133,-0.648514132584515956558846,-1.19036091354448525514442,0.0692577230054839815265311,-0.0859079232750784432814939,-0.00691119236481623974710509,0.010767519176359940241694,0.000387948187799354456649359,-0.99815491768136899164432,-0.0597513099836460004343763,-0.0853294293575081602698518,-0.0444619875402167963329703,9.83864473280391749199225,0.0467687492397013959699592,0.0632952921559468972834139,-0.00276337864390884370771606,3.69795370588309202375399,4.88965871303271359948894,1.20086325219128764452137,1162.90163016846076970978,1118.12165067474916213541,1121.66771637090596414055,1157.62972727348142143455,504.186838947646322139917,-278.347429451495656849147,-277.776821998604077634809,18.1530244364681969670983,153.719035833632460708031
2.98750000000000026645353,0.921334720525336825502905,-0.467408637925712189264971,-1.13444898007621031155168,0.0716228690640754450669192,-0.088177783437742490724176,-0.0119160707146709603926338,0.0106454697704201229485621,0.000284916641374808590411738,-0.998154906582710998996788,-0.059773737088024012087395,-0.0875227207858132322249034,-0.0516379457016234028055024,9.8395969422223181766185,0.0469297556262852147423992,0.0634287506238147558157436,-0.00272624907995981397706986,3.69781703968255825998313,4.88950858684151867805667,1.20085350864739726084451,1164.16129326267741816991,1117.26219576852008685819,1121.01594692175876843976,1157.41192433759579216712,507.967261602436622069945,-442.092123514628099201218,-226.481543199482246109255,-214.38770078269416785588,153.718024945359246657972
2.99000000000000021316282,0.767217275704190626584023,-0.207775721786249173428374,-0.925052281571471901600034,0.0752294855399458367584131,-0.0894532864937371274827171,-0.0156685085964605799735416,0.0105213007637189274318112,0.000184824230321426689459957,-0.998154736459108793411588,-0.0597989970142955296061871,-0.0899118487081410483474642,-0.0591607714249522062543996,9.84046085454375329959475,0.0470721075362806259945181,0.0635143800965237981248634,-0.00268168356397339990859763,3.69768231861006491101307,4.88935771222539461433598,1.20084447177678410589863,1165.44146647647312420304,1115.91119005717587242543,1120.5353086549084764556,1156.55778876956787826202,404.800844153678099246463,-537.370537825847918611544,-110.062222229319175426099,-400.270395710057869109733,153.716786938145844487735
2.99250000000000015987212,0.555451999159492948443528,0.0163421967585872414396864,-0.667742057692442325667059,0.0783578103774087569854956,-0.0890295360745579217320866,-0.0169459973305522079711771,0.0104025819654067781111495,9.25643803853685927544512e-05,-0.998154496326206785994373,-0.0598242548272208199411359,-0.0925785598616805233129767,-0.0669669534330820659384642,9.84120544288299292645661,0.0471965875870584347651082,0.0635508708371811531501194,-0.00262737215896683687019197,3.69754903039325188984776,4.88920653018497297637168,1.20083568383052319283877,1166.18529748344576546515,1114.57534307939090467698,1120.46563581061218428658,1155.41057235904554545414,214.708945308307221466748,-561.630640078295186867763,36.6779122600299700707183,-525.692650194753127834701,153.715734088633439569094
2.99500000000000010658141,0.265475557319149180202089,0.219328356391702034011715,-0.366903928074002183556956,0.0804978016702723175868073,-0.0874082256689066861010673,-0.0169762517690683414905983,0.010293499323499396766457,1.22518762411201508413794e-05,-0.998154011937836815882008,-0.0598516696687756491468413,-0.0955376124608370708157778,-0.0749725750763805959264729,9.84179883299113456018858,0.0473029642765708385754309,0.0635384901701351034741805,-0.00256138941018501644850125,3.69741558553949545284922,4.88905553728977793070953,1.20082622704861430307233,1166.5150112030146374309,1113.10303685678445617668,1120.71869821620862239797,1153.92932551859416889783,57.2647232854718311045872,-658.030123814719786423666,151.478780296159641238773,-694.766985566426455989131,153.714658300824652314986
2.99750000000000005329071,-0.135165903401424702945377,0.425426253723142799856305,0.0142453512781411315013536,0.0808764462377146997607014,-0.0854484361093806737974532,-0.0166750909139961184246559,0.0101946752040463720773156,-5.70593994017906699207053e-05,-0.998153171670801309112164,-0.0598829928191536853265831,-0.0987388875327131071424347,-0.0829922828446960081372197,9.84220972336648713962859,0.0473905473452693390412627,0.0634785288414508735987951,-0.00248279961616176218092145,3.6972806854022111089364,4.88890557994433549993119,1.20081567934833577382392,1166.47162109987311851,1111.28519246031737566227,1121.2230297120929662924,1151.93673743121348707064,-64.706705884965700192879,-659.054023120793772250181,179.401069800136809817559,-741.757346453975856093166,153.713339114270468144241
3,-0.476015111885608466213426,0.571796400602717969086086,0.339749268562028750029214,0.0791615287762979513708217,-0.0845053768622685691491725,-0.016494865387996025113404,0.0101010561984030671628387,-0.000116038421189296333483482,-0.998152160152461664921475,-0.0599160078571335866226555,-0.102020682315674945939143,-0.090844942390459787473489,9.84240977147049278528357,0.0474587076137063593184173,0.0633729171424910198151537,-0.00239139048829121190001268,3.69714375346654344767217,4.88875730175585676562378,1.20080347854345492741857,1166.1914776735898158222,1109.80776674118055780127,1121.61570356520928726241,1150.22053878632436862972,-117.266573157533230187255,-565.172315170241972737131,101.296603335233498910384,-672.695228919215651330887,153.71221460137448389105
3.00249999999999994670929,-0.78745938177243968159047,0.704242571372467041079801,0.666909389742038172244065,0.0761294679124471795894635,-0.083764725460463568262881,-0.0158826189324257800727924,0.0100106187740489505771935,-0.000165715617996332068235024,-0.998151187625646252321587,-0.0599475641425737323930711,-0.105282649039504724863825,-0.0983552288546432618154824,9.84237238010319437364615,0.0475067746405433560807907,0.0632243739615670208298326,-0.00228710525819771862826579,3.69700507942795786320289,4.88861000537269241306149,1.20078968115946338457434,1165.88528823408546486462,1108.45933088446622605261,1121.72951272876912298671,1148.57326128661748043669,-89.3735841613780337411299,-506.084273760290557220287,-30.7807109481024987474029,-632.066861450052670079458,153.711061544297052705588
3.00499999999999989341859,-1.06260663286024858997791,0.82846164098922259189095,0.985808042233463743819755,0.0729680627863740077776455,-0.0825034351823692863048265,-0.014473457958549764204581,0.00992240398907293964791965,-0.000209235900575357639625748,-0.998150493851027165170819,-0.0599738464574384594341083,-0.108450414477178638805732,-0.105320230297490102788771,9.84207513451527127301688,0.0475342721251672123417009,0.0630363042421066971376931,-0.00217072439164472897818459,3.69686490294227176889308,4.88846348452852996757656,1.2007750011983935323201,1165.74460975278293517476,1107.27734537237915901642,1121.46180001046877805493,1147.06020447907417292299,18.7803297866126790438557,-420.598462452989053872443,-215.305502119175827147046,-557.722552875710448461177,153.709883016573797931414
3.00750000000000028421709,-1.29805636678778801851308,0.936816373313509975773172,1.27451778170382645782865,0.0701684524683757054885902,-0.0804309239148669474772646,-0.0120493544566510971116635,0.00983559424057860870460601,-0.000248824238419195385100396,-0.998150019436944258011124,-0.0599959934603401523478539,-0.111454645908667118736624,-0.111571919504507163778406,9.84150179095925636829634,0.0475404504429558921740906,0.0628132906475518948408165,-0.0020438276908705883989914,3.69672347377627730224958,4.88831822061735277173966,1.2007598558482681649906,1165.97918988301853460143,1106.35633857220113895892,1120.6529852181731712335,1145.78464852223874004267,208.141237272761429721868,-333.396703602488969409023,-468.909091158425496814743,-490.582199058156732007774,153.708672177258165447711
3.01000000000000023092639,-1.54797846788951409813251,1.03561386788969067573873,1.55211490082576686333482,0.0667890310725430258464996,-0.0773527931212815156314377,-0.00818105666980595107318219,0.00974950505069574653582709,-0.000287666808334041310644957,-0.998149770644686684661906,-0.060014034693475590276357,-0.114234838077904424236131,-0.116942026127345527486412,9.84064411380152748165528,0.0475252781105737209799145,0.0625604411379801911285981,-0.0019091548456957247500293,3.69658134836425888991585,4.88817465235703085824071,1.20074563621492669263091,1166.785315939146812525,1105.6103618543666016194,1119.11725455467649226193,1144.60729348378322356439,373.420806172233596953447,-209.689566521687908107197,-626.488800002075208794849,-363.857179319673832651461,153.707180685252922103246
3.01250000000000017763568,-1.73440151618250504306218,1.08362662177446011924076,1.69795505605116758829354,0.0634580334110622090726395,-0.0746040793535876073372393,-0.00419613629514063637276911,0.00966775509734875936052045,-0.000326815640613688283919874,-0.998149897510927308630357,-0.0600249066823977314721894,-0.116819436968609399740693,-0.12132962580480424752416,9.83950162396961047761579,0.0474898647769618209579789,0.0622830998099883348384509,-0.0017698129482922437226422,3.69643913735123996744392,4.88803272839172375796579,1.20073338646320326716932,1167.84629391387966279581,1105.30789073959272172942,1117.52054121816286169633,1143.96536262564040953293,471.584278431383665974863,-57.143821644150499139414,-651.788262080222239092109,-179.064599191773766051483,153.705905558469027027968
3.01500000000000012434498,-1.8948996783389522313712,1.08976922910003870548223,1.72127710502012742921352,0.0593303462625301494814956,-0.0720646646280249103533322,0.00052566066543851901714246,0.00959359427967896964684069,-0.000366758720720233562326978,-0.998150473733580345658822,-0.0600268824702815673166612,-0.119237059905371464707535,-0.124667193248459456933475,9.83808453559011297784309,0.0474359699114758545657189,0.0619871140831193961906465,-0.00162978099037846472889324,3.69629775629106571699367,4.88789215772299900919506,1.20072462979813465722145,1169.14323733130368054844,1105.32464274614585519885,1115.85831324427545041544,1143.71197048782437377668,573.008579997816354989482,69.616940370589531994483,-682.585335195622974424623,-20.0280668428153774129896,153.704597626533200127597
3.01750000000000007105427,-2.04561453901985812464659,1.04323289122450102439643,1.57652237144304119276228,0.0535754687412175537031267,-0.0692280942494872542081197,0.00675650070635118449313694,0.00952520139336820656494886,-0.000411152465148947540447139,-0.998151506898354301533516,-0.060020123992485081843018,-0.121429916547726959863418,-0.126843089399386349525045,9.8364167188928401941439,0.0473659070625077477378895,0.061678740622110005131784,-0.00149446782922657952011325,3.6961576846146426689188,4.88775277096446814084629,1.20072016225161748437245,1170.7113368138686837483,1105.65597544144566199975,1114.10761454218481958378,1143.8652222914263347775,540.667507457931264980289,161.6694763339671965241,-563.036030571232231523027,126.508937381552613032909,153.702991948061935545411
3.02000000000000001776357,-2.12680514892517358305213,0.953778973065865454117329,1.30241889569191759967737,0.0483745675433362651296498,-0.0668003703493552369874209,0.0118034487115463663370329,0.00945668278669708865791232,-0.000462446053000716375026846,-0.998152768269544798940274,-0.0600093678873300992449025,-0.123269269934807981781155,-0.127789949822146475799656,9.83453518108320423607438,0.0472821090991269940562169,0.0613648199486786158352025,-0.00136957420010659267593789,3.6960184598079952600358,4.88761419669103513996333,1.20071907501194252709809,1171.84657486859327946149,1106.13299012781567398633,1113.04313309141934951185,1144.34451517473212334153,385.622680283139800394565,219.258355733341090854083,-316.131368308567687108734,247.721296488776545174915,153.701625723091581221524
3.02249999999999996447286,-2.15346010439039980965958,0.803606546923718911834555,0.881131817868806455074093,0.0429458133595205515664617,-0.0641061136618898547157031,0.0157928762383877860364656,0.0093829450050940035182867,-0.000522902859603397579535411,-0.998154060987394675663609,-0.0599987043878773620986244,-0.124654131017220018429192,-0.127469541084012649712065,9.83248780060294791383058,0.0471876818075174161992713,0.0610522174080210533464452,-0.00126020467911426244968232,3.6958795602804026536603,4.88747644012140725067184,1.20071952301105633331701,1172.63945021528434153879,1106.75226722011234414822,1112.52695770064201497007,1145.10382877387019107118,247.803248172209180211212,295.142563946416828457586,-92.9837976118071054543179,369.790808434353209577239,153.700233409930035577418
3.02499999999999991118216,-2.11846944849006968425442,0.550726682002280920613657,0.250940779762418852971706,0.0365919974562676983409482,-0.0608649071564646565457579,0.0187897366192091089254212,0.00930167187313272678106379,-0.000588967431205148004950967,-0.998155221456120345102647,-0.0599912656627755447313888,-0.125544261884835917086889,-0.125985045235257775431137,9.83033078874020205262241,0.0470863736541225763598817,0.0607477737359012684437154,-0.0011696921707021550561334,3.69574162971022701640322,4.88734061063731761720419,1.20072033974216307861127,1173.08559110945429893036,1107.60870294754772658052,1112.57821410336032386112,1146.19346921690384988324,73.3990378958439748657838,329.221469799547492129932,122.5835822303023405766,407.158330765750690716231,153.698536734199507236553
3.02749999999999985789145,-2.03436208799948392567103,0.289581653858857090977352,-0.326960231798397893410169,0.0318291197132072531394975,-0.0587269385491218307016048,0.0193711178248521485867339,0.00921513917237781234048644,-0.000656448862534465306384224,-0.998156372961401805454784,-0.0599846771919485752255774,-0.126002737730227354351342,-0.123479286582337546840371,9.82812692494585604663371,0.0469830733519932125519247,0.0604577363640124848531698,-0.00109991167049603658784074,3.69560556113037907977059,4.88720780977001023615003,1.20072097860758741916243,1173.00644540476355359715,1108.39837456911004665017,1113.13987561179351359897,1147.13962042769890103955,-122.712988477897752659374,328.936068302914975447493,314.145286246572766231111,366.107300423275603407092,153.697104435675811373585
3.03000000000000024868996,-1.8942929124354650483042,0.00647612755629707603777234,-0.884320685286622110155008,0.027577177950474242307255,-0.057844752350076876490359,0.0174562659808589690224601,0.00912620475558382875103103,-0.000722053961993100691316161,-0.998157579126800142965692,-0.0599774759347838359868632,-0.126117835389397248135879,-0.120099420411261190166918,9.82594531119599601254322,0.0468828638780198758695406,0.0601880820697158203103072,-0.00105188773147631251143885,3.69547287134817015186172,4.88707818010655614671123,1.20072160527661564444202,1172.47202616706476874242,1109.25338328906241258665,1114.14894053459329370526,1148.02400571902035153471,-281.911271534844729558245,349.550161757701118858677,462.455910855001718573476,336.04604424010636876119,153.695656826657170768158
3.03250000000000019539925,-1.70491185780619569634098,-0.26133009634093157247392,-1.36650842136195138643018,0.0235020224342828466801425,-0.0584727668757936761001481,0.013498513575323776644832,0.00903954544430629440554537,-0.000780775468493286528212649,-0.998158733121837005164423,-0.0599707970801255652038009,-0.126023084707806432014365,-0.116047718938409427646974,9.82385837847659004751222,0.0467905171780895329236571,0.0599442919803806761880338,-0.00102541750183909982814534,3.69534408657867752268089,4.88695096685340768516426,1.20072231512467886282991,1171.59688904708923473663,1110.14612537789867019455,1115.45215516606867822702,1148.81985064889954628597,-418.520181484027318674634,358.623114065684035267623,575.486089245408493297873,297.340505211474919633474,153.694199351695118593852
3.03500000000000014210855,-1.44774903108858987721419,-0.468832255380715823278592,-1.70087100831834492353778,0.0195153276529814317941103,-0.0607900313098307318315783,0.00800326024360338908469892,0.00895812015163003835804822,-0.000828778084852142197906655,-0.998159646988964199820771,-0.0599673908924859902502824,-0.125829924918986313375768,-0.111517779364516705919996,9.82194105024242247736765,0.0467101649776419727833066,0.0597308767757082983984596,-0.00101978457657184856666177,3.69521884627160535075063,4.88682471438722565437729,1.20072318960957868938522,1170.37942525964467677113,1111.04649885939079467789,1117.02637098082027478085,1149.51070824507769430056,-591.900054621204503746412,382.990399188028277421836,737.159127608281096399878,288.295858005227955800365,153.692733409519178167102
3.03750000000000008881784,-1.05082114822192029812697,-0.612618196257219027600627,-1.88831578907146213630597,0.0150280548531551063490275,-0.0642914466857863464710476,0.000970082585267616746317609,0.00888322569047910945427837,-0.000862006199906876547679746,-0.9981604117578642965114,-0.0599656180501506250180022,-0.125625683706293234109808,-0.106717460250978821156842,9.82026792691296179782512,0.0466455282879647686877789,0.0595505862839044997070204,-0.0010335894509088832705912,3.69509608835105707314028,4.88669872621725787098512,1.20072404925081266391373,1168.63738877398327531409,1112.0610773738387706544,1119.1379508041100052651,1150.26132993892565536953,-664.95156527636538612569,346.801711540736619099334,799.223524662846784849535,271.334770441632258553,153.690968935981572940364
3.04000000000000003552714,-0.646212098244927757306755,-0.640254407344705067650636,-1.85847781454867022610244,0.0119364493467014245314806,-0.0668801695687595704198358,-0.00483874043913411558404114,0.00881293797556324982889198,-0.00088362528796261466130374,-0.998161149049968998703264,-0.0599636732425069540752816,-0.125448567733878579844031,-0.1017185218780143340922,9.81891161364460884897198,0.0465990071503156744192609,0.0594047071884522062679146,-0.00106575248643137380187562,3.6949741101759334682697,4.88657254554391862200191,1.20072466227408725103487,1167.05466743326292089478,1112.78050741709444082517,1121.02248860413442343997,1150.86738209728582660318,-630.960344941026733067702,242.344130875022244708816,763.922036600904789338529,250.375574952982674403756,153.689497348363516948666
3.04249999999999998223643,-0.179471928501740707329049,-0.589509647389817814655544,-1.65013565504338366451975,0.0102108227900012948907715,-0.0686683146835980195987759,-0.0102790292113477121915821,0.00874429139875477871857168,-0.000899813903178645546274139,-0.998162041132798716347452,-0.0599588499364657884216356,-0.125322392557803530266369,-0.0965380082809597916959632,9.81793868765905131112959,0.0465715475537235856773322,0.0592930383782905509604255,-0.00111483479886162711695874,3.69485134322968633568962,4.88644562031175322402987,1.20072447233109724784583,1165.48258704927820872399,1113.27279802821385601419,1122.95756098711444792571,1151.51320781369054202514,-651.767148423246226229821,142.883765239960979442913,841.216654571935350759304,307.395880237943117663235,153.688028436530203180155
3.04499999999999992894573,0.416872347292265632567876,-0.472966178810282134037379,-1.23798454169645344435935,0.0104822534058490735020541,-0.0699164750344513502566812,-0.0155366872024362487336724,0.00867129114503466420782463,-0.000917296655934009318514311,-0.998163011176009029590261,-0.0599531760482338582640693,-0.12521099466516188991605,-0.0911818530723669806725695,9.81740777368793970936167,0.0465619751529540298884413,0.0592145534505011880699321,-0.00117904168900348667314848,3.69472617916261469872552,4.88631718433168149573476,1.20072294329887396813206,1163.7958316911467591126,1113.49492624329423051677,1125.22857187699401038117,1152.40436149847550950653,-559.264307720889632946637,8.6743058370304453319477,806.475325911895993158396,355.47564180265754885113,153.686273416678545800096
3.04749999999999987565502,0.912243204490109760307348,-0.355556687541382199224671,-0.807000887863907667707508,0.0125896644291126607456688,-0.0703822259251094539678206,-0.0182839339876737089207737,0.00858996123803036637500696,-0.000940719389692032132571642,-0.998163922298101469188225,-0.0599494138473809917710966,-0.12511123922669187269463,-0.0856980073655725926862203,9.81736535987732850117027,0.046567711155697556757449,0.0591672815576105778911931,-0.00125556092610097994044516,3.69459767442342856824666,4.88618669698969743109274,1.20072018171461847302339,1162.68626551067382024485,1113.31616955739900731714,1126.98993761667384205793,1153.29058602270379196852,-358.84463807117151645798,-151.811287879617083262929,656.381384593806842531194,391.592996332948075632885,153.684820669541409188241
