t,ang acc x,ang acc y,ang acc z,ang vel x,ang vel y,ang vel z,quat x,quat y,quat z,quat w,acc x,acc y,acc z,vel x,vel y,vel z,pos x,pos y,pos z,mot 1,mot 2,mot 3,mot 4,dmot 1,dmot 2,dmot 3,dmot 4,vbat
0.00500000000000000010408341,-2.88105384304158107511284,0.78696536563858088264567,0.199809319972634014117574,-0.00363252982615102585489675,0.153192314292144221576919,0.0498988441209645555707297,-0.000221899391164780807571277,-0.00821758506511137062910954,-0.101333026358646133280317,0.994817892562486871810279,0.150970704435106906071695,-0.000317716862731968335831212,11.2886115150125210249143,-0.0504670698365847214539315,-0.0152213732060963481684812,0.851415352750348519705881,4.57760606816010451325383,-0.946212103074263066737615,0.152613215111964184433901,1235.36231878895364388882,1195.4115416903428013029,1201.58260672905930732668,1175.88218435542967199581,-1097.12220046603783885075,-770.936242134212193377607,-417.96031050298557829592,-357.336986979225969207619,157.440357657261472468235
0.00749999999999999972244424,-3.77835944604439566418819,0.946041330159297366719784,-0.0309585100261211311478693,-0.0130015269418848247034992,0.155575419132640974106963,0.0508606326444509260209514,-0.000393076787148821779529356,-0.00795056880946059391090941,-0.101323903563448836084859,0.99482095839290018979284,0.140539129113225552680788,-0.00667345233433308971521258,11.2995462340686749769247,-0.0508701513888043799216376,-0.0155510780118159799151334,0.854981634099364007361999,4.57743494100184467043846,-0.946220655287335565830631,0.154748834021541520344911,1232.61951328778854986012,1193.48420108500727110368,1200.53770595280184352305,1174.9888418879816072149,-1155.53027497057883010712,-1033.5334608551420387812,-291.626153542665633722208,-268.950595568003336666152,157.447013945780923904749
0.0100000000000000002081668,-4.38954281048374284068814,1.0648686529227817665344,-0.240903362760084838178898,-0.0311734751532429972542548,0.158439514728700964196761,0.0507269115240274875988646,-0.00054528390805749543841785,-0.00772258716475804525558591,-0.101300961364571909251175,0.994825101145182522088817,0.130957353424436123701113,-0.0125207747342253421229952,11.310383479640318427073,-0.0512213294496424026425174,-0.015845506458995024801073,0.858570269234260274870962,4.57726667953160060164919,-0.946228822666079216752166,0.156886084038918627303616,1229.58466741410074973828,1190.243874386067091109,1200.12447596134597915807,1174.53743137758965531248,-1251.77831806709014017542,-1472.48045572350724796706,-53.4171650670032178709334,-105.901417835593733229871,157.453393837960561540967
0.0125000000000000006938894,-4.620326806536240837886,1.11902255816574602853564,-0.417964687826711756013509,-0.0518715179234305878708255,0.162051641456335493440832,0.0497752624403424437371513,-0.000674558364948658114451652,-0.00753921101454426562105127,-0.101258546133862550875371,0.99483085424708628252688,0.122365170371333598087205,-0.0177531634623065322220459,11.3210657177577829202164,-0.0515151442057327768608843,-0.0160972706264725096136914,0.86218987679351466457689,4.57710110241376444406569,-0.94623565930364028631061,0.159026308144296829594211,1226.36062169745309802238,1186.12179880638973372697,1200.27062012746682739817,1174.45933479880363847769,-1307.66582003971075209847,-1781.17166669972016279644,167.668513464514063571187,48.5546445437648870324665,157.459547188364126668603
0.0149999999999999994448885,-4.35840581725848963401404,1.0689419077243533795496,-0.535967048131035905811359,-0.0694576982915302010290759,0.166712632550398420772098,0.0482864751876658365725703,-0.000781083863244837715844593,-0.00740243895774589464459092,-0.101192468526745557588775,0.994838632254453125725036,0.114839240052841129458017,-0.0223634349675662126577524,11.331516961890425676529,-0.0517514933642655439172131,-0.0163068268854968008441109,0.865847808455607048649938,4.57693848762011157305096,-0.946241026965458642550288,0.16117231010035132365843,1223.04633831390219711466,1181.33801605256849143188,1200.96281852866854933382,1174.78020460030847971211,-1430.42184556993538535608,-2141.48983662380442183348,363.008305651965144988935,210.356902085686641612483,157.465429962354221515852
0.0175000000000000016653345,-3.59316787461005660020419,0.886059112547353588951182,-0.589501260174951635661955,-0.083754476247037093483705,0.172702427158412163965551,0.045768265990186844660581,-0.000866214591661723220389346,-0.00729857554757623334246164,-0.101104968073434900444063,0.994848306941057192176459,0.108112261052054889343133,-0.0264047850185383167764819,11.3416454592210360630133,-0.0519566665173029212931866,-0.0164799073151644867585297,0.869548167752454248535798,4.57677867878663313661036,-0.946244854887803188425721,0.163326324055513866229106,1219.20851246960341995873,1175.41434962327070934407,1202.08566165572665340733,1175.51111930923207182786,-1345.20071096267179200368,-2127.46910931778029407724,400.421292175496944309998,303.651467735835410621803,157.472179057634832588519
0.0200000000000000004163336,-2.73170873919639811688853,0.66346215394490792860438,-0.553974802037319524750103,-0.0901961775576961138911614,0.176845350665607164986071,0.0434771801174183916693927,-0.000932427753253173372677276,-0.0072035838182781149197087,-0.100996053258075452196962,0.994860050144586338660702,0.101691192435880178868146,-0.0299786144208914820397105,11.3513430053003521180699,-0.0521744966750759958662442,-0.0166252591862436384373414,0.873291989399081924894119,4.57662118869821377131757,-0.946248133581802597369403,0.165490790147472338622592,1216.32033475908883701777,1170.70067050597958768776,1202.96492498954603433958,1176.29846193898765704944,-1049.58952816309692934738,-1776.89296629851105535636,276.653689423665241520212,320.189322355054343915981,157.477546360887942000772
0.0224999999999999991673327,-1.82734028223754885189578,0.448032223944583474217751,-0.441289504683288147379727,-0.0924016016957029950873448,0.17836546351339976901329,0.0416439836223000195425392,-0.000981582755708491384860626,-0.00709703127556720898133635,-0.10087169492344176535692,0.994873399800513591451079,0.0951663684946663784858245,-0.0331632289915786415690491,11.3604841635014413014915,-0.0524420734984539296807959,-0.0167499385144653512025315,0.877078716149746862029701,4.57646452693027505631562,-0.946251752822537262055391,0.167665540946000501953961,1213.96056482878793758573,1166.52988479177815861476,1203.46893010284497904649,1177.11206592100734269479,-835.38881136400948435039,-1553.71397626877273978607,108.951412286160106646093,302.002452259694052827399,157.482649345261449980171
0.0250000000000000013877788,-1.00164429022493450816,0.315752608060643702447834,-0.279198868694325808004209,-0.0923638189043969465297224,0.177193435666039761366974,0.0403090630946499883791034,-0.00101917856809086138612785,-0.00696496834373070035362208,-0.100736326309964235869998,0.994887997515402466852663,0.08828482727228675885911,-0.0361044188599139240225533,11.3689287282775595144813,-0.0527837999259176751665201,-0.0168652707120360081938237,0.880906532114222096119249,4.57630725975531138516317,-0.94625647632951248588995,0.169850382555203210932504,1212.14339070226878902758,1162.93210062463572285196,1203.50968205097683494387,1177.80847420028612759779,-591.165595082975301011174,-1291.65782897616713853495,-105.63148213991551926938,213.416157549181633612534,157.487535591794767242391
0.0275000000000000001387779,-0.357104744568686849337524,0.362406688321940950725519,-0.08368524907651109234763,-0.0912509312156459528875274,0.174296574312121921312979,0.0395938865725755442803724,-0.00104913983100518321683881,-0.00680589169198548595007825,-0.100594935494733056513539,0.994903333631255271107818,0.081071975580640873171312,-0.0388843523279450709040361,11.3765247184290032578247,-0.0532014102319762274828641,-0.0169770784747787853441459,0.884773246122737666574665,4.57614785477666519142304,-0.946262916430454570360098,0.172045314419842998443499,1211.00473685337306051224,1160.07159564689732178522,1202.94077269214540137909,1178.17914670875325100496,-371.127983468341142270219,-1091.36481497098475301755,-373.459609217889180854399,43.0819166467245153739896,157.492164297454110055696
0.029999999999999998889777,0.156337006323077148950418,0.666790269087306430861872,0.14877196953026719516977,-0.0897119063876275629754176,0.171328421850069634313485,0.0399342530321841124307802,-0.00108167458032354607891379,-0.00661757084796704524165545,-0.100456120023196412982536,0.994918527845773059681278,0.0735501318233833939475019,-0.0417298618980766616859412,11.3831140592762913854585,-0.0536953871048050507264193,-0.0171024457459623864530318,0.888674799515405178240712,4.575984946013103460416,-0.946271714099871097403138,0.174251656510817864997875,1210.28775078492708416888,1157.47527654978080136061,1201.64238400488738989225,1178.02388378351975006808,-197.901504922219800164385,-820.430724693323895735375,-549.876690406654120124585,-179.361017825067364128699,157.497426993261626648746
0.032500000000000001110223,0.360335794250971674923534,1.10461795126884232409736,0.310288315178976592534354,-0.0878059907875338024885181,0.170708600354471329296757,0.0414015060093602046964456,-0.00112503804800954086695608,-0.00639487722299270262837911,-0.100333345157792755419912,0.994932229030186521256951,0.0656684127527656646972076,-0.0448311778298639759809951,11.3885366146335318404681,-0.0542705333312040183457725,-0.0172562750320246066637608,0.892605384940559187789688,4.57581797513528787391124,-0.946282469014931626460907,0.176470155252217514307844,1210.01522932876196136931,1155.96944202343070173811,1200.19138924011213021004,1177.28234161962791404221,-111.70889209597579849742,-478.663909491705965137953,-614.292194902008645840397,-426.459887506916459187778,157.501574562438349857985
0.0350000000000000033306691,0.346911009110484003237218,1.65203190677465938662749,0.41186439504497790453641,-0.0848467804450491192014283,0.173282758461722724563359,0.0435169235622916150685313,-0.00118821141676046142590661,-0.00612901192638261489709084,-0.100235476463377382039255,0.994943574399847374678529,0.0572889554460235678190472,-0.0484037347438063467186531,11.3926328506415206476277,-0.0549377059225861288926929,-0.0174554278332199504231159,0.896557608986665033334873,4.57564708321496560472497,-0.946294379725403089764768,0.178703285082364410341071,1209.72920632444720467902,1155.0819570023222695454,1198.57092303037734382087,1175.89158434598516578262,-213.36698825352880248829,-267.461120808775490331755,-704.38453237393366634933,-724.993372516519571036042,157.505482046519148298103
0.0374999999999999986122212,0.13343221446464131885179,2.30387719839869475890737,0.456856459311293039426971,-0.0813680468031902359715701,0.180365354171544145511774,0.0456298561103514674353043,-0.00127589597095090797988781,-0.00582158043091472125057928,-0.100166213427465844443276,0.994952158565141742130322,0.0484930538664540833337924,-0.0525412733481355337383789,11.3952451306656357132852,-0.0556900909141237535071589,-0.0177075255106966811258218,0.900524736996909491715257,4.57547367600408971810566,-0.946307072884966626880043,0.180951759315352206369809,1208.9483943874943179253,1154.63213641938682485488,1196.66946657824246358359,1173.65737475704531789233,-408.564348587515496546985,-80.5795320624384174834631,-662.644872021656169636117,-860.570538157344799401471,157.509902549191338039236
0.0400000000000000008326673,-0.137907617086871575606821,2.74955907178131475632199,0.438630008097311563375342,-0.0804220453728970996465364,0.188840604884209811720197,0.0466013779275515904743088,-0.00137975661594653487354578,-0.00548040332636377369029956,-0.100125989623452801846604,0.994957881592573034623683,0.039465510454451652178065,-0.0570253208711956963150591,11.3962220654084589455124,-0.0565122105844957853260091,-0.0179961996502071182313376,0.904501238787924988216105,4.57529839364245649591112,-0.946320365650291095427349,0.183214026107650584940245,1207.68638458150962833315,1154.67905934201007767115,1195.257698670269064678,1171.58873165519844405935,-663.663825748198519249854,82.3449513472950656023386,-509.121743613058697519591,-788.693865133927147326176,157.513369620169299878398
0.0425000000000000030531133,-0.394317382204546929003186,3.01396173653659804614335,0.377544402126636757799361,-0.082996294057629052542957,0.198440398259024070037881,0.0468168325555758657596783,-0.00148781765215102220606402,-0.00511551631082726807747685,-0.100110032554398806214913,0.9949611595847011047411,0.0304243748496009179527189,-0.0615458643839506339134893,11.3954206037215541869045,-0.0573855258125421652248832,-0.0182981572843743355016866,0.908482845563049035142456,4.57512232771244420348467,-0.946334286218612041885478,0.185487539289658664998228,1205.63007525875332248688,1155.04386117612330053817,1194.12385786017716782226,1169.7139054313756787451,-953.992111829393707012059,181.360169573372417062274,-403.092731731931280592107,-655.949572003601474534662,157.516620266596447663687
0.0449999999999999983346655,-0.559246535430700686397643,3.10079028680957913266525,0.286945944078567605206587,-0.0874010126091621653010577,0.208014776475809570754905,0.0468251142511267107182427,-0.00159752662655618360952603,-0.0047245223702676777260967,-0.100112461178839123876472,0.994962572508020226536019,0.0213181262686705820519339,-0.0660301544863142325647587,11.3927070046755787302573,-0.058312522564150537363048,-0.0186100062023448233061718,0.912464883394993653276117,4.5749459266811740576486,-0.946348155267786705913124,0.187769960494541060525009,1202.91642402236266207183,1155.58586018987693933013,1193.2422350116094094119,1168.30898379518043839198,-1215.46532782572353426076,242.110497810927085993171,-299.080730705463963658985,-390.895897421933284476836,157.519697719212359743324
0.0475000000000000005551115,-0.557904324361470749238379,2.97833001541186259686356,0.156146115072491320496795,-0.09171999990170680294721,0.216827681918537212846232,0.0472920546388312795782483,-0.00171362519016844401346933,-0.00430726748386537749285763,-0.100123696242011089863055,0.994963057387373117634866,0.012153234495915352791906,-0.0705597994106536008374064,11.3879566707226107524775,-0.0592908630180142212640071,-0.0189417917177331779354787,0.916443984616035711709969,4.57477037380186590809217,-0.946360317029348974138259,0.190058849476415686607922,1199.55274861962470822618,1156.2544136651779353997,1192.62845420664984885661,1167.75942594426601317537,-1566.02457512503724501585,307.715130453152312384191,-233.128658974373848877804,-9.04138565360880441801328,157.522573827938913382241
0.0500000000000000027755576,-0.353835153378844580185358,2.63185197184987273999468,-0.0609298427115408797183349,-0.0952891296768888784729512,0.225784508043145148992181,0.0485545489427508664137534,-0.00183320626289429312524848,-0.00387105914127688346612621,-0.100135777386190685800393,0.994963373638720449676498,0.00307877534525323806602337,-0.0750197567520421021436405,11.3810575076675579708763,-0.0603061612281321421380476,-0.0192894455550524854259287,0.920418754308138797881611,4.57459625677235592888792,-0.946369263295809948211001,0.192351823418484529915062,1195.08630114673746902554,1157.12443584214270231314,1192.07659171673753917275,1168.26377686691239432548,-1650.93202761736483807908,325.078247722331241220672,-199.625407092344289594621,369.479314407272056541842,157.525801952805466044083
0.0524999999999999980571097,-0.0422995592392268471293448,2.22367839714277293339251,-0.295546025766535047640815,-0.0963598403813328840961105,0.231580912271985989159262,0.0498941051926960130180611,-0.00195144186854498760674836,-0.00342451886125251124190494,-0.100147768078508420108719,0.994963584349802143691477,-0.00573933432534768153687743,-0.079243003766086006489644,11.371911918438557975719,-0.0613415910697737223888915,-0.0196464329699305786935959,0.924388204636205634834312,4.57442278073095121015967,-0.946375196890119285697551,0.194647750692743037870258,1191.29808848153788858326,1157.87980490378959075315,1191.63032717118812797708,1169.60682251630237260542,-1457.30263386694855398673,310.471009050070449575287,-215.372234075312121603929,676.547260154530135878304,157.528312927972109491748
0.0550000000000000002775558,0.363245177158677268192122,1.75232325571098379590751,-0.567429430568431092396509,-0.095327180456522303542144,0.235716957925645120841551,0.050530101987639249039308,-0.00206143846109415425013611,-0.00297609404232765340989064,-0.100161426625218985542176,0.994963501319783394372109,-0.014152510682201403097169,-0.0830115027323305720852176,11.3604392844896633363305,-0.0623806228964433329142736,-0.0200026536708217891891159,0.928350626459868433215661,4.57424864523106844416134,-0.946378100996056348392926,0.196948622802446071666793,1187.79978797740272966621,1158.67679088739305370837,1190.99973054636097913317,1171.64651316768504329957,-1304.68511028229727344296,332.058429046082608238066,-310.741835280805105412583,869.262414377452955704939,157.530646047065971515622
0.0575000000000000024980018,0.806921661053642380601048,1.26989087189091187646284,-0.8342549036697785025396,-0.0931970183917875255596996,0.238629796014890066535585,0.0492568767349899142016234,-0.00215374616809591761315557,-0.00254424371520270593827195,-0.100173346974517241125824,0.99496343439617818127374,-0.0218010798860936681753397,-0.0860230877815282291010135,11.3465793321901653456507,-0.0633885042403560805546192,-0.0203400361039978369581682,0.932304045033139794362853,4.57407383715275095426023,-0.946377788872392988750448,0.199257939858020621803902,1184.7746629301263965317,1159.54009704902000521543,1190.07661799478410102893,1173.95313458818964136299,-1059.21969226014925880008,370.185732857589925970387,-461.850891454378370326594,902.253200242558250465663,157.53283759242054884453
0.059999999999999997779554,1.25896443046265682497165,0.813400914870176183768535,-1.0359401245381125722389,-0.0904210113037573343097719,0.240310945726816521661462,0.0452823645126381457703957,-0.00221728347153784741130345,-0.00214359960280004029076206,-0.100178647699478415300511,0.994963865350485199279262,-0.0284250131873018570261014,-0.0879468677776405749479949,11.3302947935451818750607,-0.0643374388293559001938959,-0.0206366908114395779250128,0.936243956068325666741714,4.57389822692799175030132,-0.946374506347413935181123,0.201578460109216067719373,1182.50368951610198564595,1160.52771955168100248557,1188.6904760890890884184,1176.15777916889783227816,-812.292948517097556759836,468.613919420431784601533,-720.546578752601249107101,851.954408389065520168515,157.534865085351299285321
0.0625,1.77238780063003087406059,0.330798055747033248330524,-1.14219117156391858358688,-0.0861192250499302203170515,0.24100268204231775626134,0.0391408269131428426801378,-0.00225029341427160790162221,-0.00178105668618055859933613,-0.100169614028225842372599,0.994965566760055986073041,-0.0339262768822163468529496,-0.0886819248039089069735041,11.3115719366832294667802,-0.06521215173018207744704,-0.0208874510310480716868131,0.940162380209589754187505,4.57372187310731792564411,-0.946369868489887133833349,0.203911544902703800730137,1180.71319818754091102164,1161.88316664612216300156,1186.47388510102109648869,1178.21290663013496669009,-517.670677529894874169258,520.697957565698288817657,-886.736507437989644131449,611.144382737892897239362,157.537115585105283344092
0.065000000000000002220446,2.14923022548410802556873,-0.0026491907170439013032015,-1.10373814724085161920186,-0.0813663015471589728955237,0.24074988739399458270718,0.0344536162213746402493975,-0.00225525125249231850332876,-0.00145396383162771825232895,-0.1001440838463822369242,0.994968768423464822170388,-0.038418003075643539223627,-0.0882494134442868283230155,11.2904231690469636362195,-0.0660142967947317527155349,-0.0210958570216398591523621,0.944047945573714741840377,4.57354383316884138821479,-0.94636525675775662325151,0.206259112796467108941201,1179.91533612845250900136,1163.13120933950949620339,1184.25679355189913621871,1179.21350108258729960653,-218.971281684616570828439,505.723683548148528643651,-920.452237787593844586809,236.917720835890378339172,157.538842924973124581811
0.0675000000000000044408921,2.44137101364100184142103,-0.260136246781630775526395,-0.955342287869817563539243,-0.0752342177435487979852979,0.240048550577893232693683,0.0311875130675728050311246,-0.00224193065947909594970433,-0.00115165749272307278705529,-0.100101989776537947385293,0.994973489149348355731206,-0.0421802300365140825366694,-0.0868596206752322297361957,11.2668885541181804654798,-0.0667595933257234958047022,-0.0212793185368539139457056,0.947886490450851715294789,4.57336291248868231917868,-0.946362608568214414006547,0.208622818371306001372645,1179.61834177911782717274,1164.41178506386290791852,1181.87162391208312328672,1179.39749523431441957655,-78.1355630911092902124437,536.068558486067104240647,-1024.89704246909150242573,-86.0448777689270372093233,157.540419859189427143065
0.0700000000000000066613381,2.66459456565814400974546,-0.486982330712761646296372,-0.705513307779624954108044,-0.0664439481316967811563856,0.238739891186826175273339,0.0289815499843211130115428,-0.00221473395209903977862154,-0.000862234864514549058031601,-0.100040958638659360779855,0.994979994600132866544584,-0.0455337169021170773408613,-0.0846136830745112256124685,11.2410396135433536812798,-0.0674680882103966123031213,-0.021443714274187411494843,0.95166312923631202203012,4.5731788383519393903498,-0.946362639630130564327715,0.211001429707192295071039,1179.52465831299696219503,1165.81155213193983399833,1179.13230833955367415911,1178.78327669374266406521,-31.5259794853773804845787,460.242356230174607389927,-941.157707184403989231214,-332.958464563944914971216,157.542140270698524773252
0.0724999999999999950039964,2.7357163599963363331824,-0.615446078696697540522109,-0.482422019734604690111013,-0.0588549770702134766864333,0.237137021634689526550233,0.0282450069681598019133428,-0.00218444259135589262041388,-0.000575407657541336485518269,-0.0999614835370351700882807,0.994988244307707714320088,-0.0487466060829292585632189,-0.0817636676421038544049225,11.212978490730288072541,-0.0681566336455717014519706,-0.0216060557321120574880702,0.955363179312951227295514,4.57299272470988427130578,-0.946365414504573565501744,0.213393400866169480334378,1179.4607118816909405723,1166.71299684501377669221,1177.16583537616111243551,1177.73270291149469812808,-53.3037712543319770475136,272.420772705436831984116,-686.505646608567417388258,-489.828382818633144779596,157.543431006893143830894
0.0749999999999999972244424,2.69656253033460213686112,-0.694352634395241086195938,-0.289583568454961470806097,-0.0523722248615261232185247,0.235003523333929487115768,0.0282877074651356058554441,-0.00216040177625176398404361,-0.000291029604337896669313118,-0.0998695910246851087377351,0.994997629674613248695891,-0.0518603371827961318052402,-0.0785200656380991013350013,11.1828394216804216654282,-0.0688241329049232852810292,-0.0217789662432966990568417,0.958974320445580397098695,4.57280647140498519576113,-0.946370742897961081396829,0.215797342520170520874245,1179.25813945672530280717,1167.1736559954670156003,1175.69978010651084332494,1176.33413477964950288879,-110.335613540973909607601,94.4130704099278830199182,-494.246054925406042457325,-589.031810793175623075513,157.544572436199871390272
0.0774999999999999994448885,2.58014793554454602286796,-0.747253283916173516310266,-0.145433569122032424481006,-0.0463466478702334871986324,0.232634649592813880225606,0.0287126878082280684312266,-0.00214973610636178804819685,-5.89597232402452323867057e-06,-0.0997738560330314189217304,0.995007288468631845290702,-0.0549857991896977732482199,-0.0750654833108140018271826,11.1507857448745326678363,-0.0694767417697631367579092,-0.0219715901231712536223473,0.962485332077646749127098,4.57262196299143841571322,-0.946378688806064460870004,0.218212447561923594818722,1178.90903381398607052688,1167.18506219706341653364,1174.69460510153407994949,1174.78754385752881717053,-165.813784364899987622266,-108.95960883199212787531,-299.459628984186281286384,-629.848589251741373118421,157.545588268607531290399
0.0800000000000000016653345,2.3853084367559156397931,-0.796186802060856124718669,-0.0736932594959675835166735,-0.0400492587388394660763424,0.230327753716374594716854,0.0292528974754360203414105,-0.00214383715845440758068774,0.000278822651040336354829469,-0.0996834421642603801805294,0.99501631866553741367909,-0.0581664485051241325619387,-0.0712402284882293207468607,11.1170092512677456397796,-0.0701161293918149686188457,-0.0221621349416495846962327,0.965887927107223487332988,4.57244050773486154781722,-0.946388416826552725247268,0.22063706806983601760308,1178.42907053490080215852,1166.62885795130705446354,1174.20248196158991049742,1173.18489183339079318102,-218.253498212334108075083,-359.406154837506278454384,-129.030748318791552264884,-700.229914016926500153204,157.54644946544061667737
0.0825000000000000038857806,2.08063656061871560254417,-0.896288780079160130043192,-0.0717699726719137343078359,-0.0329374797270077374067299,0.227959276303762392590357,0.0297460536130383923492104,-0.00213883717033783171679318,0.000563323802493420470495489,-0.0996083780330703910665946,0.995023719362294500889732,-0.0614593469657428448371661,-0.0670121870412935249916586,11.0817233229142093620112,-0.0707460424455703812407492,-0.0223381729864191129475426,0.96917554269740202599337,4.57226138975014606558034,-0.946400367714221757431403,0.223068166935487310897912,1177.81776632292439899174,1165.38803142287588343606,1174.04945135994012161973,1171.2863942874441818276,-212.934698356548125275367,-520.754723473873582406668,-15.742468464850375653441,-685.845942047489529613813,157.547299798306880802556
0.0850000000000000061062266,1.78861920507345462105775,-1.05064491370686607929485,-0.130839032735655447226009,-0.0279722278338716441592471,0.226532286536012872346646,0.0299043830074708222310775,-0.00213477212718463050730722,0.000850826737799981105275782,-0.0995517834158466813354593,0.995029176863515996132037,-0.0649727477011150661434513,-0.0624590540316635259299183,11.0451587713854575412142,-0.0713755435444395208710588,-0.0224945950764809700361813,0.972343021413523911355981,4.57208360837737970427952,-0.946414664874460465071593,0.225504640707979875369205,1177.36439704311806053738,1164.02508433393768427777,1174.1237696192656585481,1169.75566212315334269078,-158.623460162061604705741,-560.314954375780416739872,28.4092007981143730432905,-594.541624722659776125511,157.547852843580244552868
0.0875000000000000083266727,1.48922152952577624418495,-1.313993699906895962215,-0.233435560372649369975662,-0.0240470364149505747008995,0.225641066430219916494337,0.0296975317390988785559713,-0.0021343078870463792762191,0.00114504373081011521715022,-0.0995100396816387816611993,0.995033049014818815614092,-0.0688117865701190489780004,-0.0577319124854159954063348,11.0075599148240765856599,-0.0720140675785660711039071,-0.0226310269193118578090473,0.975386682348506228734664,4.57190585965361862008649,-0.94643164660801926135747,0.227947790077213635617781,1177.02464902211409025767,1162.58645665099697907863,1174.19149736393069360929,1168.3136861638308801048,-119.954423563740647296072,-541.480875528805995600123,-4.33931604220561784046595,-552.350165025201135904354,157.548241099125505115808
0.0899999999999999966693309,1.2099378793884141281012,-1.67662932163024969156595,-0.353495480838234510390095,-0.0209124266186108132004051,0.224330938648686389891296,0.0291269998642679668610089,-0.00213842235041175826940063,0.00143931191125670570295225,-0.0994814393102115696043697,0.995035509137658591427567,-0.0728498270329532571221165,-0.0529348594639990691068654,10.9691819910983223707035,-0.0726505456277826838773493,-0.0227429259951230193503857,0.978305780205734998311584,4.57172739679342843288623,-0.946451089306124093702977,0.230398404327575995198529,1176.76462492529935843777,1161.31767995629365941568,1174.10207303905463049887,1166.99391129802734212717,-101.906199130235307848125,-414.15111981946290597989,-102.879451334411186280704,-481.502615832779156335164,157.548490385611074771077
0.092499999999999998889777,0.985749118605293683792468,-2.13759984991573182000479,-0.469361754358693983313344,-0.0187683142532322766449226,0.221059402656753056781724,0.0280880203757879233494865,-0.00214667082270872519242366,0.00173547813037487142287518,-0.0994636529702205979264207,0.995036782583868628648816,-0.0771429078119091060639079,-0.048169553642775302104706,10.9302839964362448199608,-0.073289983636630043339899,-0.0228257035726463219926785,0.981099601946240573724367,4.57154752738476322093675,-0.946472391767241405524658,0.2328559713677153253375,1176.51511802646291471319,1160.51570105189966852777,1173.67710010725863867265,1165.90617308466698887059,-139.295733636481486428238,-198.185568380085726403195,-289.938744059236057637463,-404.474596528779898108041,157.548569480369451412116
0.095000000000000001110223,0.813967474646180022546105,-2.74242233980322724917755,-0.570387725239619003403391,-0.0169885094499263381018217,0.213951614419163604896568,0.0263813149034702737472102,-0.00215443822170588916362077,0.00203517207734977331051729,-0.0994526971942971960150004,0.99503727344704018253907,-0.0817435617763388189249696,-0.043453159828628851180099,10.8911254292819954514471,-0.0739372758838316435081595,-0.0228678027526821141257596,0.983768766904127289762982,4.57136606151024693645013,-0.94649421060371508040987,0.235319509269942550577781,1176.06814625711695043719,1160.32675211439322993101,1172.65237931875844878959,1164.97153831538344093133,-211.468448207642524039329,71.2110308278624302147364,-470.682501248347364253277,-273.569678160128887611791,157.548464526299682120225
0.0975000000000000033306691,0.768248660433362040578231,-3.23521935171798391550624,-0.600191595560613411208806,-0.0157526154352869325603326,0.205695596668957647601417,0.0246224163925535081964835,-0.0021565544443394681940751,0.00234254219116019745533519,-0.0994442949689036126414976,0.995037416497000060111588,-0.0867523441327562039315779,-0.0387999862214861712672587,10.8519612965247596036988,-0.0746019762320889318063522,-0.0228586385821626242309534,0.986314593067156630823433,4.57118297467658951660496,-0.946515369059853117761349,0.237788296203714860643785,1175.45777578542470109824,1160.87175620603898096306,1171.32368760101689986186,1164.53832469386634329567,-311.466481683555400650221,348.346260139396406430023,-629.541050438228353414161,-107.457213923680583889109,157.548208428731101093945
0.100000000000000005551115,0.831888037122492707275967,-3.66234072528989518247045,-0.550968172131703015637072,-0.0146515553108257402803449,0.195827527924873290299246,0.0225002209615303150336274,-0.0021532712055323697739051,0.00265391092623962687388484,-0.0994395487045430792605316,0.995037114492769991791477,-0.0920818342437574599568251,-0.0343242745454980305308545,10.8130397894028664751431,-0.0752768048016798640986735,-0.0227992291971606565736952,0.988740320493834534687494,4.57099886768867769148983,-0.946535561534603497868545,0.240262622807394826685012,1174.51081384869917201286,1162.06848341509021338425,1169.50467406656730418035,1164.4342522457650375145,-436.314866081738330194639,556.275184337345763196936,-799.773210985448940846254,-2.71760908754003827070278,157.547774921129644098983
0.102500000000000007771561,0.983076550307185770272156,-4.01155187862417239585966,-0.426061567385157047294086,-0.0138503601774756651687781,0.185303942006108585127677,0.0200878538971618510189376,-0.0021503032595381475940155,0.0029634868645559545898005,-0.099440512832925473385437,0.995036173152250125184537,-0.0975828025607431426280414,-0.0302466263344473851315541,10.7745983211329665607536,-0.0759490924266499611849923,-0.0227028473190768916023519,0.991050138408715919347003,4.57081386717472604175327,-0.946554433576027198782299,0.242744139511412465592954,1173.27620145501600745774,1163.65313212772571205278,1167.32482154608965174702,1164.52473664842864309321,-548.446437469557281474408,675.982777021728338695539,-937.842962197466476936825,54.5363372532393526626038,157.547192444329851923612
0.104999999999999996114219,1.21901727119531200216329,-4.26075274401485692976621,-0.213018209986487266904831,-0.0130008061603114517812418,0.174647144234074569446591,0.0175585969610770088744633,-0.00215182547520742896776658,0.00325989139071365414263015,-0.0994443183035359362653693,0.995034911682404543675773,-0.102986047443602596329626,-0.0267299842174730309385389,10.736861507945974381073,-0.0765956631317522285140598,-0.0225796315326554676572446,0.993249975960597941693209,4.57062804238653885846588,-0.946570706348329182766577,0.245231898238152529190259,1171.76858166135139072139,1165.44839730019884882495,1164.81545925557998089062,1164.70693393203123378044,-688.368164667464384365303,768.161974884198230029142,-1143.79290347265146010614,59.846804840208392306522,157.546427914143691850768
0.107499999999999998334665,1.54144604894821357632395,-4.45582357763884395751575,0.110074534811416574475729,-0.0100957943384009599802065,0.162063210364964932486131,0.0157711054919928810036378,-0.00215894962940623574843002,0.00353350333734418070585903,-0.0994492502172714537556075,0.995033540012744022185132,-0.108064089044627040236968,-0.0238606067200101065739481,10.7000370741955848075122,-0.077197497370063844490673,-0.0224356357864643266020188,0.995346512354820522894272,4.57044247914414025757424,-0.94658385947558365547394,0.24772516200299740662949,1169.83436063167869178869,1167.49394200214669581328,1161.60585702872640467831,1164.82397067262968448631,-694.488421767254635597055,687.605107272838154131023,-1180.7395955634990514227,-2.61485725618513020762634,157.545296678212366714433
0.110000000000000000555112,1.78061248003429439812351,-4.54523157436906100059559,0.387630002812674401280191,-0.00500374749252109011360412,0.151591646801828544566249,0.0165350698654992515901352,-0.00216803989205401059781053,0.00377046004017401710853297,-0.099450667515740484581066,0.995032587208993013483393,-0.112506467606595675357006,-0.0215969653857913876371377,10.6643146323805257935646,-0.0777284872033190132878389,-0.0222672916850787765141728,0.997348183790209397159288,4.57025804682551939350788,-0.946594039437933965075445,0.25022191480186478651504,1168.29613955251511470124,1168.88642283656304243777,1158.91176127776247994916,1164.69385964575030811829,-560.006375355168984242482,457.470444886075313206675,-1049.69864035142472857842,-126.253317709051657402597,157.544173247299426066093
0.112500000000000002775558,1.91702841423303160794944,-4.57190580852054928584494,0.60671741859753280934342,0.00247011901285046787252186,0.140866673703480355106521,0.0196120657366829417855847,-0.00217341837155866739184074,0.00396347926652218865428701,-0.0994440611416022440804952,0.995032553254373675066802,-0.116144200227830216021196,-0.0198496734328996622676033,10.6298614589670901153795,-0.0781762089435046464425128,-0.0220688952584958200664467,0.999263232338385098962874,4.57007555534537779351467,-0.946601164083189061670964,0.252720900785059265913901,1167.03432875490284459374,1169.78129422657707436883,1156.35736382696927648794,1164.19270408408442563086,-461.262103803346292352217,266.62398049047601489292,-1063.25928164665037911618,-324.193932249863507877308,157.542858975527735765354
0.115000000000000004996004,1.92286451160533533588648,-4.54068686420071543352606,0.746256470042333308612115,0.01156489863440899289182,0.127810231644173516452057,0.0241874684566062356227967,-0.00216873144791864588126762,0.00411232287137594954701258,-0.0994253438358775332162054,0.995033874638048931871026,-0.11895432826513008262026,-0.0185102031864872486333073,10.5968208519440452164417,-0.0785425538348298452051566,-0.0218350266543834957422288,1.00109921847324967458803,4.5698951466426187550951,-0.946604415910680674350886,0.255221802252446394732033,1165.98982903349838124996,1170.21954273901542364911,1153.59546486952922350611,1163.07288998450098915782,-297.798310874986498220096,64.0686552217175062651222,-948.937143062220570755017,-499.472632873402744735358,157.54105722690920288187
0.11750000000000000721645,1.81079368522403516550412,-4.46658527302798358249447,0.748097093320527206650183,0.017370318948912531059614,0.116994722012686680479021,0.0275406477813918137975691,-0.00214973071927304247227819,0.00422614796409031493601427,-0.0993903069505147618301066,0.995036958512785396635536,-0.12110143453976263128169,-0.0175135141506443312020558,10.5653108079611968150857,-0.0788478024944613553604,-0.0215660111045923516548406,1.00286211993500651296074,4.56971673738829853306243,-0.946603897674084260316363,0.257724766821451178877567,1165.54533720052791068156,1170.10163750268566218438,1151.61267811165816965513,1161.69534091971740963345,-97.4296094938383276939931,-120.317022885228880113573,-721.244784069632714817999,-633.219787269810126417724,157.539365531878416959444
0.119999999999999995559108,1.63135078826773871618627,-4.34738989780873374968451,0.649246021426525099506932,0.0207253814497600843957947,0.106467090823159180046353,0.0297636749139699070820786,-0.00211088196582658949376765,0.00431490897447281765431093,-0.0993392509741018170377203,0.995041760713867518006737,-0.122762539985876925618946,-0.016748943308803901364179,10.5354259015868656490511,-0.0791138825863964695317421,-0.0212596474723972389542226,1.00455739954603240349229,4.56953905273540694764733,-0.946599933850946761992873,0.260230507170767788593935,1165.50268098602919053519,1169.61795762458928038541,1149.98924094918106675323,1159.90679104815194477851,35.0191471082326373220894,-228.032099575876117114603,-593.074823227926799518173,-767.44944516358521013899,157.537472825753212646305
0.122499999999999997779554,1.4414157350002110291598,-4.19404875704032331640292,0.494669424726142448189847,0.0225768394208939460199304,0.0963773625989442495054504,0.0311569845412049684085787,-0.00205473402170102672700813,0.00438041198141636382856756,-0.099274572790935211585861,0.995048039166719022752261,-0.12392123305985608405777,-0.0162386037807747719841078,10.5072401477038557260357,-0.0793445605327172259757518,-0.0209273442319029244484963,1.00619092790379482948993,4.56936136477423460178215,-0.94659457790723566805724,0.26274103398133141773485,1165.72043293606907354842,1168.96147700480628373043,1148.64730399551854134188,1157.8580936938994909724,127.751499924852282674692,-273.993608133923544301069,-480.274343820928606874077,-855.191558215528061737132,157.535411330347102421001
0.125,1.2736128370243646745763,-4.00168407416785942842807,0.310896681479845893303349,0.0238134671390501928556205,0.0867443557017825161992164,0.0318850920869380438649188,-0.00198853019533214766395579,0.00442707785999137126697889,-0.0992018005857851770112887,0.995055216536706921282018,-0.124602990348796502373396,-0.0160892194564759595520886,10.4808053691942717478014,-0.0795475028415668916625947,-0.0205894791462380086222161,1.00776730875790021535465,4.56918328209307667009398,-0.946589402122991252497286,0.265258017651837596506681,1166.141438485653452517,1168.24798958391966152703,1147.58786923007642144512,1155.63083325707430049079,204.193655252856672177586,-296.503144305233661270904,-420.939413815358022930013,-981.225058418521257408429,157.533144729258054894672
0.127500000000000002220446,1.10379592484692534704038,-3.72482309502481045981881,0.102868541468409124828298,0.0257797523293481767314717,0.0754744694980289260177742,0.031811882939439400930226,-0.00191829189950728454944207,0.0044522768461891897018301,-0.0991297351278812854946665,0.995062422837571736167206,-0.124686990162481775579195,-0.0163503708741657080572018,10.4561545006753409126077,-0.0797160944428290940688697,-0.0202616585470696483617381,1.0092918108018706924156,4.56900511630984418331991,-0.946585222406062798405912,0.267780525615575748510366,1166.74140121233335776196,1167.47896128328011400299,1146.54260692644174923771,1152.95196840180688013788,218.07801402619568875707,-252.677223597038164371043,-361.212683615076116439013,-953.118614261165134848852,157.530186928874201157669
0.130000000000000004440892,0.96970929479748069201861,-3.45462798720595820611834,-0.0319529928626729117779881,0.0278538534805436895080977,0.0665058443659358317079366,0.0308812042291003591154563,-0.00184479562039844549245493,0.00445005840148383728649417,-0.0990681973318677938644683,0.995068708984130467776197,-0.123994688310030409805762,-0.0169418900018600340762198,10.4333018164373036995585,-0.0798377156097753726271549,-0.0199471545623829960014461,1.0107701512283364664313,4.56882680433155297095027,-0.946581935668264318195497,0.270308082515264336276317,1167.23182855578443195554,1166.98460346593446956831,1145.78180581200103915762,1150.8652401857684708375,175.981759841033493785289,-158.082008767814699012888,-298.309599686035369359161,-770.927958798301233400707,157.527524277866831425854
0.132500000000000006661338,0.806801645635367048470243,-3.14587884061743894292817,-0.106864020226050016049157,0.0301570378357072683972451,0.0581754353816636426977027,0.0295933521371424881896139,-0.00177040946348820085916309,0.00442488399614938097970107,-0.0990213737106706987090021,0.995073629673682957808012,-0.122561827444668536291061,-0.0178271317819244448643623,10.4122409825232775659742,-0.079920187871058478989994,-0.0196525543293482526929772,1.0122063243899166451456,4.56864810933888065846986,-0.946580037801805107555708,0.27284084153821874796364,1167.62131001153852594143,1166.68855123944103979738,1145.05105892801157096983,1149.09732860781537056027,125.980035152087907590612,-83.9080193215522029959175,-297.609496743370698368381,-633.850115541826539811154,157.524657962286028123344
0.135000000000000008881784,0.590541374279844544226137,-2.81173623873342748424875,-0.130886197316206126517457,0.0326412842377525325154863,0.050636949269782370597337,0.028466781447627015344537,-0.00169818006433937202653839,0.00437813357454945248359302,-0.0989887401916884901442728,0.995077219673353052797893,-0.120360632626555219548692,-0.0189688584898934781142188,10.3929496541964212497078,-0.0799648096597215390923807,-0.019383623281114561315297,1.01360504024862341232449,4.56846854547010927660722,-0.94657927823575804815448,0.275378238138962116998698,1167.86172873154487206193,1166.56506336932670819806,1144.29375832828418424469,1147.69598960805933529628,44.6703484595218043295972,-10.7544762104225721799367,-317.722615112597566167096,-456.20995398317023727941,157.521624880185129313759
0.13750000000000001110223,0.282013574793952059849289,-2.46096308082651926696371,-0.107086883431657842180584,0.0353089802591071491577601,0.0443118818210850376471122,0.0279449803147080767795618,-0.0016317898110412229224081,0.00431417446467187437608715,-0.0989648660759707282652542,0.995079989459639158155824,-0.117427540324950438477281,-0.0203437019241701974592296,10.3753894744296601970746,-0.0799785896314691158170973,-0.019146669339439880558329,1.01497093193178922199138,4.56828795933516218497061,-0.946579760394663627387501,0.277919300937016500174792,1167.84466175383613517624,1166.63477885838892689208,1143.46244585244858171791,1146.81627883789951738436,-82.1466342022176121417942,67.7049220712887631634658,-384.2680038177146570888,-259.157118510893042184762,157.518394346750540080393
0.140000000000000013322676,-0.205482624539071234703869,-2.04235731245825258284299,-0.0506261901572895162138011,0.0382164877992584930965769,0.0379843627554503626697624,0.028033848558385126431558,-0.00157444618104846936409991,0.00423908240694492819550243,-0.0989439450663572167554705,0.995082482692158043491304,-0.113840439536815357657318,-0.021919935931317625216197,10.3595080203296650012135,-0.0799718146527582385285626,-0.0189469940747022148885836,1.01630888965843024784874,4.56810650498347570191982,-0.946581417703691752052464,0.280463300488048683511977,1167.45099556053378364595,1166.90358797968315229809,1142.37241830919560925395,1146.40020401550486894848,-209.592415665474419483871,123.176330178239254564687,-405.247078836555033376499,-50.7518160645758626969837,157.514295232544043301459
0.142500000000000015543122,-0.688486687399192498482137,-1.71049009643062555063864,2.4544966371932892156742e-05,0.0394320948356823228198031,0.033715676088603055426951,0.0284152823418441641267762,-0.00152295149395617612775311,0.00415912996159091465780966,-0.0989227996263339764970723,0.995084991765811444075496,-0.109701128392729219118706,-0.0235352284835991520939302,10.3452410566491881382944,-0.0799561603013895644265219,-0.0187772690110232093330112,1.0176244020409463963972,4.56792443105122991653388,-0.9465837591739509893074,0.283008052926675135463341,1166.79669967550876208406,1167.25066050928012373333,1141.43621045826580484572,1146.56251975757663785771,-320.550018295945505997224,157.283205852082403453096,-353.073186740995708987612,152.828218561035811262627,157.510698256238214298719
0.144999999999999990007993,-1.18737038285130114267929,-1.4107301830020364530327,0.0372714473749990102269258,0.0376258083642605975494,0.0305035576324373600143325,0.0288868726125949583372066,-0.00147252019129921014536921,0.00408097115055980255021728,-0.0988953953863986462424762,0.995088095105974068665944,-0.105130588767976707043061,-0.0249983358207005700035719,10.3325148094423457933999,-0.079944323630332575492119,-0.018626607277622501263048,1.01892315328861871037702,4.56774209927490026927899,-0.946585904702161973212071,0.285550463766520434827356,1165.84824546905406350561,1167.69000400894356062054,1140.60705237549063895131,1147.16434510831004445208,-461.376351953324387977773,203.898796097065343246868,-293.683947357341367023764,332.643309587730698240193,157.506918114668053476635
0.147499999999999992228439,-1.70156347878077185420409,-1.09666290584973014077264,0.056097804225643331521578,0.0313369821474097157154581,0.0274583845721808814110965,0.0295471765553269039017437,-0.00142066000296752034844083,0.0040040219292121178099042,-0.0988587213537863856993582,0.995092097643299866582822,-0.100106052116507998617223,-0.0261560021663025110694178,10.3212500363277399628714,-0.0799335732427466777449965,-0.0184878515012046919230304,1.02021157175279286732916,4.5675603992181468271383,-0.946587023373405611614828,0.288090243303646631467529,1164.48981791574215094442,1168.27015448976544575999,1139.96779072147910483181,1148.22573630551528367505,-513.082527941969146922929,208.493851506545780694069,-139.241398809190172869421,415.192906935862652062497,157.502175085924790209901
0.149999999999999994448885,-1.99404729852173723259057,-0.872277423493718839786482,0.0488658088342112592594724,0.0240796488873442175726591,0.0252464550226833388257841,0.030157996546599508125297,-0.0013672990926783411182871,0.00392188142932716615751687,-0.0988121055256647035092143,0.995097092235939117976784,-0.0944918711268771527311827,-0.0268996869014288125798728,10.311364283265273655843,-0.0799084758798555283565435,-0.018357949620868438400656,1.02149577305695715701006,4.56737990722749742644737,-0.946586199401764472050047,0.290629292158095631215531,1163.28283282934421549726,1168.73247326647629051877,1139.91084538144468751852,1149.2403096429893594177,-474.964934673470963844011,155.082459225741189356995,110.085831680134916155112,394.156840351388041199243,157.498053352437210605785
0.152499999999999996669331,-2.10692212722286464909871,-0.680382050759699485986687,0.0240679298573524824700343,0.0166400306160392578991303,0.0232678207020889579736966,0.030597173951877214281847,-0.00131438589030682820638085,0.00383654734985322586407475,-0.0987578675007520639939074,0.995102837141501495032969,-0.0883332149922110565487543,-0.0271875595384430679413157,10.3027722413289684055826,-0.0798696887812498090841729,-0.0182399110153060005357073,1.02277854694466552309962,4.56719974923407878719672,-0.946584073834174422046317,0.293171073697852224704263,1162.11499324237479413569,1169.04556678589415241731,1140.51821987987977990997,1150.19652050727222558635,-449.648967389930078297766,72.8420026367984263515609,366.103743317307475990674,345.851083690194798236917,157.493759312421900631307
0.154999999999999998889777,-2.07656198505125777487024,-0.510361840427172586132087,-0.00517963990396590103632013,0.0100908596008148655071013,0.0216528958956257629175912,0.0306515043782938506611302,-0.00126438234988128267617669,0.00375477305888989847798554,-0.0986961332432815391380032,0.995109291640229876030332,-0.0817843936958167899708982,-0.0270067418005148010551331,10.295390102729362169498,-0.0798270199275097902535947,-0.0181380012154426922821315,1.02405967911836492945099,4.56701872918543472223973,-0.946581942390772090867301,0.29571997176249925631808,1161.03458799239456311625,1169.0966832796602830058,1141.74136409803122660378,1150.96956506144033482997,-407.972975249549222098722,-84.8401843577448033784094,633.807864515437699992617,239.484342566401920748831,157.48932454323173146804
0.157500000000000001110223,-1.91114370377366471487335,-0.362945246239494867523945,-0.0247628680055901884138336,0.00545182535941618560265676,0.020583869623804068593742,0.0301006498672280083106489,-0.00122040605387485124634639,0.00368243748386309866990618,-0.0986262314041468635128496,0.995116499972294787923488,-0.0749934552196314802019472,-0.0263662076379764589995069,10.2891398437228911433294,-0.0797879319288812144383982,-0.018057024874641329492686,1.02533711225288026724911,4.56683674920980475775423,-0.946580783447471429958853,0.298277433066916175530281,1160.07512836612704631989,1168.62136586410542804515,1143.6872592024569712521,1151.39394222010423618485,-398.867594997045330273977,-386.590557010412908311991,991.241752200447990617249,87.8188487470651324429127,157.484722333100592095434
0.160000000000000003330669,-1.61666708049588825346632,-0.209321556165485034295415,-0.0230770657775329068872594,0.00137843726771170018222112,0.0198558855523139898835439,0.0294460075733758638860671,-0.00117972937522081862925238,0.00363176785822236008680064,-0.0985514327885447238841721,0.995124097550554198576833,-0.068263412428400074838386,-0.0251797984949149039612948,10.2839509997754579018192,-0.0797735379283341095035809,-0.0179913052260688433037217,1.02660657050687587066307,4.56665302926337179911798,-0.946580056737204911243566,0.30084314267034950596269,1159.04025001740933475958,1167.16373049460821675893,1146.69757285903347110434,1151.40865930517566084745,-364.235975684823301889992,-713.000892149784021967207,1174.41375404355198952544,-76.636676654197728453255,157.479008626691836525424
0.162500000000000005551115,-1.32762929606416202332753,-0.0984013834182409646844647,0.00230098111465982906043148,-0.00208197233597891837378335,0.0195927532423927942828445,0.0293111355376934092087371,-0.00113976011805499164233901,0.00361081787770097363890476,-0.0984776684731682588891388,0.995131471995085115089807,-0.0618241813076294416395839,-0.0233680598956310311975493,10.279764198362972393852,-0.0797961624630193488982854,-0.0179346530982050812730311,1.02786392659860847942355,4.56646644780949539921266,-0.946579418288609364395825,0.303415844412328494783537,1158.25394848770292810514,1165.05636140335650452471,1149.55932797267473688407,1151.01075883683324718731,-299.920524593789821210521,-1036.37264457279252383159,1150.43206011637175834039,-226.031984272139908398458,157.474089531515204498646
0.165000000000000007771561,-1.0277163866748511011906,-0.000871034391413772618451006,0.0510179649059933626453756,-0.00529056359529879449699052,0.0195540456683243012159235,0.0294077952590786270703482,-0.00110590392604350911363864,0.00362836034133263854797868,-0.0984091707560257183962094,0.995138167499503456525645,-0.0559161099602240446726498,-0.0210292423790697721730503,10.2765313685305308410989,-0.0798681707880879582228673,-0.0178969019888457724076769,1.0291049267055492055789,4.5662767738793510474693,-0.946578782269239749069811,0.305993878461301216376,1157.54064739444038423244,1161.9818672717442495923,1152.44973315961533444352,1150.2784993838149603107,-271.669808342539681689232,-1366.00951067389246418315,1103.27322291272957954789,-322.372116553151215612161,157.469008261183034846908
0.167500000000000009992007,-0.745993967354681708492592,0.0900036454954993153654286,0.117310230562641781837385,-0.00715775701114819765114028,0.0196401674807206265416237,0.0294744158659740185246534,-0.00108026557960802667944511,0.00368633342657164126202063,-0.0983460871888464094325855,0.995144164009591158936985,-0.0506569019175147350342314,-0.0181931615891258446904288,10.2742168849583439538264,-0.0799892662708960172635031,-0.0178790369286905351242645,1.03032710269710481298944,4.56608427187320220497213,-0.946579440719292675154861,0.308575236107968331467077,1156.89559944599022855982,1158.22631384998703651945,1155.07569408723838932929,1149.39889825406748968817,-240.387746083251613526954,-1599.02208633243253643741,920.850552549654025824566,-344.280961668982570245134,157.463793367637919118351
0.170000000000000012212453,-0.519415838611465119356581,0.178628722191106259487015,0.201717417553018335540926,-0.00729410324180365058494013,0.0198573108194653041858047,0.0293743502946503531880751,-0.00106211083782103304397337,0.00378028158940310610169888,-0.0982879744210591738129423,0.99514953274814843542373,-0.0460476999424934141380561,-0.0148320689025225153911958,10.2727965702084240717795,-0.0801475210417445654842439,-0.0178749049202119592028026,1.03152989254864402290934,4.56588924713245525310867,-0.946582016565804096330794,0.311159049530610631872918,1156.33870866402412502794,1153.98675684008208008891,1157.05398592236360855168,1148.55709457547004603839,-227.313834616279365263836,-1857.3316963801046313165,660.393025089296656915394,-298.402477079889365541021,157.458418108326014817067
0.172500000000000014432899,-0.336225084532187579178242,0.288396727003109476505927,0.313467293167352833993533,-0.00616555697165874303650179,0.02029715484007814027545,0.0295463624429014408423466,-0.00104744271583240571195372,0.00389809471636059492669069,-0.0982343454458666914819176,0.995154376735547518961766,-0.0419454913931956580031013,-0.0108493176218798104831764,10.2722562810290067858432,-0.0803171318955523266813756,-0.0178704151060451420229835,1.03271484654803780145471,4.56569337103132077970713,-0.946585444676617426829068,0.313744226773447043576937,1155.75903027290883073874,1148.93965536808650540479,1158.37765921268487545603,1147.90688586866804143938,-202.418860314082678542036,-1750.85010232655645268096,294.503146614624427002127,-134.095419531695256409876,157.451783070549680587646
0.175000000000000016653345,-0.251827528701919767240014,0.38486125036500445917298,0.400614048515534337813193,-0.00498446916887066143048157,0.0208461792310541023376391,0.0304920618542368904169138,-0.00104492347905480570911807,0.00403584874956624661129778,-0.0981873518298869013554153,0.995158481575750042402717,-0.0383517794413329726754824,-0.00643632031086067285530206,10.2725891181145136954456,-0.0804878278521500567510571,-0.0178801262837753674461716,1.03388256674598100204321,4.56549853271225547501899,-0.946588720284170404006829,0.31633069379097894513464,1155.32661436245371078257,1145.23250632844928986742,1158.52650165543673210777,1147.88661747781156918791,-169.122163211387373848993,-1286.97517954211116375518,-119.762203231585417029237,139.560293955219748340824,157.446100227615289668393
0.177499999999999991118216,-0.198800138494842348890757,0.485239805364344634064366,0.460695653978500319070122,-0.00529981906018869505792246,0.0216359542227702802974498,0.032132635459758945861708,-0.00106266879597940880688989,0.00418597035094254218273724,-0.0981489686639484271157841,0.99516166400175842809972,-0.0351938500508914148268147,-0.00177789645486779897265439,10.2737947346483569077691,-0.0806433685713436598785364,-0.0179174047609283008941627,1.03503466391581877559247,4.56530591156784470996399,-0.946591256174197148709482,0.318919667844665521982961,1154.91341945685189784854,1142.50477947037597914459,1157.778848196526951142,1148.60468733844413691259,-183.416234993911473338812,-914.234697408305351018498,-476.002579154239754188893,502.333898417421153226314,157.440258072184150250905
0.179999999999999993338662,-0.103525152506041162592254,0.603231894421162873065612,0.484628702686104140262557,-0.00797115540704584728259885,0.0230929360371452223332778,0.0340503310537741410435331,-0.00110319017994902224960585,0.00434831330483164552047626,-0.0981180566086790884039459,0.995164023520807794476184,-0.0325578738681469581628392,0.00302940560382320214771745,10.2758762415539965928701,-0.0807853107633452055535983,-0.0179856824269819040584828,1.03617190514755375119194,4.56511523134904795284683,-0.946593200380807076044221,0.321513570692504080383856,1154.40953318748415767914,1140.66133284140778414439,1156.1464887596655444213,1150.39828696989866330114,-187.041645271938079986285,-432.662519120594481591979,-663.346764403876818505523,799.055973117037183328648,157.433063656466345037188
0.182499999999999995559108,0.0395618198911653964899848,0.69179816264803051240051,0.45962017079124750651431,-0.0106787809159587816082437,0.0248501285832468492287273,0.03550651056640868191705,-0.00116029090282827093000284,0.00451636124128515070025314,-0.0980934196762115184764497,0.995165702947790054011534,-0.03040987825706659847258,0.00806950949728751573686303,10.2788382860491136483461,-0.0809049138190095218359232,-0.0180695059612487329836483,1.03729665437711959796729,4.5649271570328178171394,-0.946594741643994042057386,0.324113381923420373897926,1153.97821123049220659595,1140.34146687477300474711,1154.46211437450756420731,1152.59996720402932623983,-169.533763344679613283006,89.3669889680949438570678,-671.073050729136753034254,980.347369441232331155334,157.426916065600238425759
0.184999999999999997779554,0.254583776442114606552991,0.762034948655959665231308,0.388750245362757707034973,-0.0121182274452665012659525,0.0269658666878581192161146,0.0368649402265478209894667,-0.00122431310071647128125127,0.00468261895976694597631962,-0.098073275693252331963734,0.995166918408424083786201,-0.0286923705975042457605451,0.0134896764863235499309901,10.282683865386946564513,-0.0809929057702465787782486,-0.0181461713868410652594765,1.03841224143254517997548,4.56474213428115582757982,-0.946596012279904308606149,0.326718188240371021358044,1153.56186437076075890218,1141.10816778624825929001,1152.79112350601985781395,1155.30002381710482950439,-154.670630905275032773716,439.461514635967944286676,-622.428775443540303058398,1108.68125436245372839039,157.420612719537672319348
0.1875,0.504625936876931135977031,0.814516521651859726205203,0.28471925956271482149873,-0.0119822656386294398855874,0.0291517497803721187255022,0.0380712132099863612144652,-0.00128406560534537954147705,0.00483821791078716412909388,-0.0980544384333696533717628,0.995168037980143749265949,-0.027309688685501272431555,0.0194628808000163397440296,10.2874115244795945045553,-0.0810379810636135400336855,-0.0181893619203334563905194,1.03952335322014843832505,4.564559586125969126158,-0.946596887344309467771097,0.329325968436775085024237,1153.20485807596583072154,1142.53877444795284645807,1151.34997049728985984984,1158.14337347584159942926,-112.071077828795651498694,665.622837443924595390854,-487.713950469241808605148,1093.35566109648334531812,157.414182788637617704808
0.190000000000000002220446,0.747239989344791410985636,0.847604734256619973820079,0.152330201905778089832566,-0.00990620365997200817698154,0.0314021458955447418937013,0.039196687472989912015553,-0.00133418903849555434831808,0.0049822165840749535817289,-0.0980345859900406818576712,0.995169300618801155877691,-0.0263017166369075051923776,0.026019299869719514362032,10.2930127571750738013634,-0.081044171434429310152403,-0.0181865500669807396427746,1.04063451779215188075511,4.56437898815808207331202,-0.946598136868138428923203,0.331935541964264446690436,1153.00150898161678014731,1144.43628197346788510913,1150.35255375367364649719,1160.76680212258725077845,-30.479895059443123273013,862.739868732568652376358,-322.941605016785331372375,1001.15146078151065012207,157.407604424249029761995
0.192500000000000004440892,0.965347841099347125926045,0.872964489919686781327357,-0.0142575080292210616683679,-0.00589278484559776962597999,0.0342664834057601411232419,0.0398486536583085512730484,-0.00137713713993205559213417,0.00511171413854461832715348,-0.0980165823085488024934975,0.995170435144987375331027,-0.0256367764738092314413809,0.0330264929913110863446413,10.2994705352267192921545,-0.0810096523248572536468615,-0.0181417958161479396517191,1.04175163055754560481603,4.56419973025140368605435,-0.946599554734502190989076,0.334546122242889709674785,1153.05245860066861496307,1146.85247379161569369899,1149.7352624722059317719,1163.14913077974915722734,83.122882920133562834053,862.278113578076158773911,-138.874755383221668125771,682.844275679462384687213,157.39954560304957453809
0.195000000000000006661338,1.05248201882279879271209,0.892188347507442913730813,-0.133981543076380799073277,-0.00250897177760962862905214,0.0366824772146555691532122,0.0391340170638754883403188,-0.00141411930044677371966222,0.00522253991561363178908195,-0.0980049264001831704762324,0.995171019955572111470588,-0.0252428859074356436165143,0.0403739563011538266090739,10.3067567747893438223628,-0.0809299729984325894038832,-0.0180566439127596081726246,1.04288182477225266353571,4.56402132639397173363704,-0.946600628184607217896485,0.337158372476682399732084,1153.41712339621744831675,1148.74767254135826988204,1149.65817997675753758813,1164.18102350098456554406,224.384370614325035830916,695.218701168641359799949,35.2244611723562854876945,168.808265033385254128007,157.392698554791081733129
0.197500000000000008881784,1.02043045688251865499296,0.926671729885185424535621,-0.204850920344870013334315,-9.2221439874987641040216e-05,0.0387612241129259363359161,0.0373016215439507595186264,-0.00144193103816995377153276,0.00531765785948844129510382,-0.0980004468407320999956411,0.995170964480293074316819,-0.0251854844689265479351636,0.0480216658760113102033529,10.3148301761780878393893,-0.0808162784462800182216924,-0.0179244434494753093756181,1.04403192403476574590115,4.56384340311652625388206,-0.94660116685242545742085,0.339772060855206836649245,1154.17438045374024113698,1150.32856729745890334016,1149.91138477806771334144,1163.99317210491608420853,369.884948363732860343589,565.770201604481826507254,133.983817280795733495324,-282.951619109144075991935,157.385723506941900495804
0.20000000000000001110223,0.880195389702227548589519,0.988237307158115640959295,-0.225509412770430101025099,0.00178755715480283000791417,0.0406761452012099275488133,0.035440222567035821465975,-0.00145593855357682147241838,0.00540291783584594467737539,-0.0979990321639897105088224,0.995170652736801941706801,-0.0255742762816554038141081,0.0559482941033792660623369,10.3236357954618611643127,-0.0806859937484115802286411,-0.0177354517464770426726783,1.04520885916340988686102,4.5636666094078650601773,-0.946601438795976912743413,0.342386275222959113317955,1155.26654813803611432377,1151.57652354938068128831,1150.32809906316151682404,1162.76626540543884402723,512.243025615088754420867,419.00261292575993365972,181.992482997247691400844,-712.674983791293243484688,157.378649411321362094895
0.202500000000000013322676,0.594636347068327575371427,1.09631238064008340593602,-0.194916255190165976785011,0.00382193224125000965973875,0.0428017018680730138013857,0.0344201177930937157745106,-0.00145343528162119629831839,0.00548325124133194549691517,-0.0979974119106572921777953,0.995170389685082090736046,-0.026479782580196804114836,0.0640912275721270130457441,10.3331056939252441395638,-0.0805540613901934154927886,-0.0174839036173353168379663,1.04641989833249438035523,4.56349104169952024534496,-0.946600756049289948634851,0.344998595175218913944093,1156.73559558181568718283,1152.42358036208770499798,1150.8213471930539526511,1160.4297971859596145805,720.316987949581061911886,299.471680819806067574973,211.989287364076318453954,-1212.93918747351085585251,157.371465113294561888324
0.205000000000000015543122,0.0640951497769162992224068,1.29003111264806413771566,-0.12835833301197568934171,0.00674952938262808610492272,0.0456034647365794534867867,0.0344457226809962227531692,-0.00143459240848117439148801,0.00556311848545472560634284,-0.0979930057951407251781717,0.99517041190289146079806,-0.0279415845496077779042121,0.0723269144041496225838728,10.3431602940550586566815,-0.080433644448356225731267,-0.0171700282241071533473331,1.04767197778080123349298,4.56331628852698134579668,-0.946598073899809655529225,0.347607417446734734411962,1158.86813307778402304393,1153.07388195347971304727,1151.38804549998189941107,1156.70156946807128406363,831.234556546723297287826,199.640999293433026195999,194.795759322459900886315,-1453.81641750864082496264,157.362729078069776278426
0.207500000000000017763568,-0.535387903987100899350082,1.50587854967864909205844,-0.0701394542404878418295766,0.00888983148590652937082179,0.0481013671557956601354533,0.0351777466955172854468081,-0.00140439008450593798976724,0.00564115106226031372271823,-0.0979830757234255306231674,0.995170995013203163459536,-0.0298551825905781186010213,0.0804426950280967001383203,10.3537111921984497087124,-0.0803245628199300426564022,-0.0168027488265983133974846,1.04897169148950419881317,4.56314209066775156031781,-0.94659416404681873125071,0.35021344645136476270153,1160.89176836454930707987,1153.42178535855487098161,1151.79532598966625300818,1153.16071509841640363447,843.254994285056795888522,124.76128049829698341,149.074652597301565037924,-1420.45213849942888373334,157.355362894986370747574
0.209999999999999992228439,-1.26291797932875904386663,1.76799240418592029655542,-0.0234609455721908818914834,0.00900113816135957901798381,0.0511679074247415599518973,0.0357307431691430976705703,-0.00137641327594055138359985,0.00571424014086513356452945,-0.0979671199180217472379795,0.995172186402757397161167,-0.0320503011505210849696468,0.0880511209829221708211833,10.3646651509413310066066,-0.0802209407913561933778368,-0.0164087579069954296595579,1.05032364544997869337806,4.56296882903976541712154,-0.946591105835524193601316,0.352819524349711644006788,1163.08440804920928712818,1153.6976883559711950511,1152.13341876296840382565,1149.59930877557417261414,979.77248568714003340574,123.527272708770979647852,143.17314878894714524904,-1476.07693014125061381492,157.347919218267264795941
0.212499999999999994448885,-2.19025130783128929579107,2.10583811417379429542507,0.0198439600897629339626427,0.00456071253999857078448299,0.056224075948115265211058,0.0353664767328297005577475,-0.00135987509498982804198586,0.00578285299106561043874786,-0.0979428600825857365030913,0.995174191469151536715287,-0.0344280099735676387018302,0.0948474162592514158376389,10.3759252132433257287403,-0.0801250829599031572092471,-0.016006026039349606493456,1.05172915323351134908592,4.56279700267762233778512,-0.946589685060510221958907,0.3554292779873057250839,1165.79063079298498450953,1154.03942172209872296662,1152.51119173361098546593,1145.78033044771018467145,984.952696824301710876171,130.420395389819418596744,144.347610775548531591994,-1262.61296926672798690561,157.338911711893530309681
0.214999999999999996669331,-2.91996806727313407137103,2.37527841873438871900248,0.0482587679132482558208572,-0.00337695272757412325026483,0.0619142280712175196999425,0.0346396646274525488173879,-0.00136281493426425662218726,0.00584889222020192837275809,-0.0979075772652833742348832,0.99517725227664222131807,-0.0369131257796087158817855,0.100550061779630994784895,10.3873948312053254738885,-0.0800422222575234709740499,-0.0156104977890165318860083,1.05318629428176335771639,4.56262708727501120620218,-0.94659058266492002164938,0.358046081659207204861417,1168.00917153333080023003,1154.34979033292029271252,1152.85515681684614719416,1143.28624392924052699527,855.545649233953668044705,122.617770953865942828998,153.162203782539876328883,-796.036989936828149438952,157.331353962309947291942
0.217499999999999998889777,-3.51214697779439966041082,2.59381694380609539862803,0.0626016470030418548109452,-0.0140631291702170251045612,0.0688774697731496104990967,0.034421863346662799620912,-0.00138955901934026838234759,0.00591284855881283374218205,-0.0978626190311414068112583,0.995181221278677807795532,-0.0394047337369159839104427,0.104961730976565026374203,10.3989807768746818084082,-0.0799747716023170296395506,-0.0152312314377720612462719,1.05469067844472008665946,4.56245842009429480867766,-0.946593972556962759412613,0.360672098753309522400912,1170.06835903915475682879,1154.6525105768680532492,1153.27700275252368555812,1141.80014549802604051365,781.203586059881899927859,109.383492028973606124964,184.129418778684168955806,-399.31229619405678477051,157.323756641714652459996
0.220000000000000001110223,-3.95078292246039630697396,2.74947473352603877216893,0.052977961263410922043704,-0.0253316474271838530663015,0.0764676472133197365765866,0.0349573280303120195733335,-0.00144317846437626903094431,0.00597759692376313885031625,-0.0978037373287624772766335,0.995186486441973161554131,-0.0418503405963609742546083,0.107913194330791661901259,10.4105963938609686891823,-0.0799298346856485153466565,-0.0148753319579920748744195,1.05623546004055390845622,4.56229127929508848637852,-0.946599396051186481315654,0.363309044759086430254058,1171.91518946363021314028,1154.89670779306516124052,1153.77580391073956889159,1141.28968244827024136612,674.420306572573622361233,69.6839738066045697451045,216.719896866106665811458,40.1447858323080808418126,157.316137346807437324969
0.222500000000000003330669,-4.1967726768029516293268,2.82103782123380231183774,2.82157423646400840056003e-06,-0.0362526987559336211219829,0.0842956322124368412351814,0.0362207642373582189287973,-0.00152387952137402913829756,0.00604656490631083967657311,-0.0977287988805666807401451,0.995193229092267706015207,-0.0442169390347242619032642,0.109303945805594299178765,10.4221633556493955552469,-0.0799153094591856932860097,-0.0145457658308273448527492,1.05781262290100541711979,4.56212633432146930090312,-0.946605028346930943428106,0.365958188313004251224214,1173.44046057201762778277,1155.00093044590107638214,1154.36060223685421988193,1142.0008694271875810955,591.612964176010223127378,2.88305128233332386145094,275.060200845473218578263,573.185978787386829935713,157.308505077467941646319
0.225000000000000005551115,-4.29221052860758778280115,2.82202389312385282238438,-0.115452428669366655156203,-0.0486324677368400945520754,0.0932073582991141680320624,0.0375837249764705977339574,-0.00162696668890886884245583,0.00612355449706499400247539,-0.0976355469273759712933725,0.995201649712156188876122,-0.0464946087495915066911678,0.10914818889022245840259,10.4336122615548685388376,-0.0799397849233066115637314,-0.0142369344492539323665525,1.05941419199592257172071,4.56196366639686523569708,-0.946609082736459606088886,0.368618702101847550700597,1174.87325428451026709809,1154.91112304947682787315,1155.15110491496693612135,1144.15561234220717778953,464.753613511311016281979,-65.2444362734967739925196,305.278264087882860167156,970.152257825656306522433,157.299349186388553789584
0.227500000000000007771561,-4.23054703172996671156625,2.77384211087467091871872,-0.238288922740918646114849,-0.0588612780865429216503593,0.0998870451750836912951925,0.0375904265604327936234341,-0.00174611108905882678014876,0.00621311133838535045031959,-0.0975246253432367898872357,0.99521166621048029465868,-0.0487021609139308697677961,0.107509859841734500829347,10.4448835744269068470658,-0.0800123574280025839922104,-0.0139420465620303316023332,1.06103327750026266151906,4.56180282742865106371255,-0.946609251856124433999184,0.371287110031131906140445,1175.7642286395741848537,1154.67470826453359222796,1155.88699355729363560386,1146.85163071631586717558,309.665457730943387559819,-106.292665493356153660898,313.060103908764801872167,1207.89516259337574410893,157.291734897170357498908
0.230000000000000009992007,-4.05293383945441654248043,2.70569868173912464470732,-0.354425354718662988240396,-0.0698249283622784655545246,0.105694687625047079038154,0.0360938875800070474442194,-0.00187706252900482917916891,0.0063210585467485735575166,-0.0973999686025787680954124,0.995222865171805914918934,-0.0508944046785557435708114,0.104427206945736039678252,10.4559277757426851707123,-0.0801428504013639714242956,-0.0136608481657775494150231,1.06266478282522514042796,4.56164329050375538798789,-0.946604030790497152914043,0.373960187314743841557885,1176.42158157316498545697,1154.37965972201004660747,1156.71640543451076155179,1150.19508815517406219442,239.871733126119380585806,-98.7641018687099006001517,348.125196021328235929104,1400.21513270075843138329,157.284153003253408087403
0.232500000000000012212453,-3.80772099732374336156226,2.63938117103835478971519,-0.440792026117872159929334,-0.0806869879481020707556738,0.111051707553051770549501,0.0339871732993314093485004,-0.00202271732557834753307713,0.00645922047243100132946081,-0.0972719590228316582924961,0.995234146978253297888273,-0.0532543623759889894753172,0.0997996958521069343905907,10.4667046473531861749962,-0.0803507120342991376649167,-0.0134113458498237268778919,1.06430493284854854607602,4.56148262596871134633147,-0.946593812774458420733481,0.376635032342365672075601,1176.96358730520478275139,1154.18088775519004229864,1157.62761953740027820459,1153.85270637981966501684,205.465126569424512581463,-11.3673506804843675865868,380.274785441315202660917,1490.7020304626698816719,157.276610369920916809861
0.235000000000000014432899,-3.53360736809532482993745,2.58326563572148204528389,-0.4767015545176710999975,-0.0896392713626682352545672,0.116217015316764551990936,0.031884524758418776591018,-0.00218164980165479107515614,0.00662835463785584749762947,-0.0971520644979997349821588,0.995244381849058945554987,-0.0557621216610030001614717,0.0936626084266467540118128,10.4771797091670357815474,-0.0806315985011679392524542,-0.0132007383185597168551162,1.06595404635157975370419,4.56131919690424680879914,-0.946580667260098373994026,0.379309293798263169605889,1177.44890720601210887253,1154.32282296860762471624,1158.6177793617173392704,1157.64859830748741842399,208.824152032548028046222,198.62066195364587883887,441.483384818911474667402,1652.29751260626335351844,157.269130487345535129862
0.237500000000000016653345,-3.2529326787076353610928,2.51639667509352138452527,-0.464024438021208074367507,-0.0972183561593591843985607,0.122707103720768526122775,0.0297420825027605514878637,-0.0023498832239415073583344,0.00681907787413685642641248,-0.0970451141502998021470816,0.995253163380462324560938,-0.0582089952681614508644969,0.0861492801205380187568039,10.4873230901709799667287,-0.0809593708035862141825234,-0.0130278464087796776865735,1.06761585835168948399598,4.56115212526700197770424,-0.946565851613871744874018,0.381983100728554125780079,1178.00770806536752388638,1155.17399106495827254548,1159.83503646149483756744,1162.11419394285098860564,192.426298561805197095964,456.341683472739816807007,440.017490390439206748852,1597.24917108815884603246,157.260247617059832236919
0.239999999999999991118216,-3.1067233363380633015538,2.43965792786615098819425,-0.420723406486575246532311,-0.101291918805357608612816,0.12856068267972597940485,0.0283344720084439775920071,-0.00251803395310491338540682,0.00701406580371742582880046,-0.0969530260690293355096969,0.995260437126684438524649,-0.060250511556868377449625,0.0775467264032121406103215,10.4971076936500491427751,-0.0812916588580691740206774,-0.0128779106661111170106793,1.06929650285304012058418,4.5609821703577448914757,-0.9465482924318968649402,0.384655955159308893254178,1178.41103869882113031053,1156.60453138597131328424,1160.81786681366952507233,1165.63484416292817513749,118.006888824584720509847,733.260028532598653328023,379.581585319194289240841,1352.95612512200659693917,157.252937690259642522506
0.242499999999999993338662,-3.06166105908815389113897,2.30857644897197422650947,-0.36822486535883908187472,-0.104650381525406899196895,0.134788201467062496163862,0.0273932302900528959477278,-0.00267400991028823951239923,0.0072022501532683844138738,-0.0968749130257402363275432,0.995266390710376480654986,-0.061697527505234467382067,0.0682099864510004316731084,10.5065078932457218741092,-0.081599987790952940858169,-0.0127311246769486515612035,1.07100140854893122188685,4.56081065727461787417951,-0.946525743841902023056889,0.387329015217543759508345,1178.59774250949044471781,1158.8402912076212487591,1161.73294438809080020292,1168.87897456846098975802,-23.2532875688775462208469,1142.64184291064248100156,396.929984840380370769708,1369.93388041532739407558,157.245740458099277248039
0.244999999999999995559108,-3.05475645699308318015142,2.05549788760779961194203,-0.326857049529767629270083,-0.111130170734124636422457,0.142543555430114321502799,0.027030032985927127109349,-0.00280883451889153527847309,0.00737689215028606432023039,-0.0968081509992830685495946,0.995271347759865143700608,-0.0624644560544959925874053,0.0584426030835495172177652,10.5155002899807215044348,-0.0818649994160996208325543,-0.0125744600477185053399865,1.07273483690187743100353,4.560638835666250834322,-0.946496996654726863162921,0.390003699269747428068911,1178.29477226097674247285,1162.31774060052453023673,1162.80251673787142863148,1172.48451356500481779221,-242.772540592568248030148,1362.23767198016389556869,407.483985169983156993112,1289.51258642737116133503,157.237251313288624032793
0.247499999999999997779554,-2.99416003704855748779323,1.75338532706082372847334,-0.33012980549331510937705,-0.119652022065866114886035,0.148608783575488262451714,0.0273254706752552624371422,-0.00292352254059363800969829,0.00753991277121494711532801,-0.0967528485976027474713135,0.995275274814170995973939,-0.0626458604185229361860365,0.0483408629348076185339167,10.5240639257177353016459,-0.0820846042903809747226518,-0.0124174009205031306291023,1.07449856992576298075903,4.56046773481198641775336,-0.946462768050072345005219,0.392682133447171122231367,1177.38387980652760234079,1165.65147956752207392128,1163.77036431394071769319,1175.32653750059785124904,-541.4382404103885164659,1349.18602797219932654116,434.333593910696038165042,1121.31748771189359104028,157.230310994769354238088
0.25,-2.75825850986890852567512,1.36584476488698447482761,-0.382291787067962018920042,-0.129440308875144988176586,0.153148230209111085864393,0.0276003054751153553691978,-0.00302351253702471929954432,0.00769400244814904231416275,-0.096710109661368323652475,0.995278024674209671474046,-0.0623600883209546597019113,0.0379221773021648153600971,10.5321800573662613942361,-0.0822585936038120468793977,-0.012277619541572970529586,1.07629299061714012175628,4.56029781344979756596558,-0.946425216495081933487654,0.395364807467774470595145,1175.58758105892479761678,1169.06367074038553255377,1164.97418470742491081182,1178.09110100356429029489,-876.868939251243432408955,1315.30441264139767554298,541.203418706526917958399,1096.04489511138945090352,157.223520949095558307818
0.252500000000000002220446,-2.31369499115443177927887,0.929439300870903761797592,-0.468077132161103082186315,-0.138579095411011238292431,0.156132945117331833895236,0.0273250211691379411849123,-0.00311529459962260916669474,0.00784946564674139299344624,-0.0966848245458898775117618,0.995279018181085328720314,-0.0618969740607818452726718,0.0271775412762746901296218,10.5398316795938509216057,-0.0824040517431547381299595,-0.0121751405356900193471814,1.07811589422700859763893,4.5601283174987381485721,-0.946386104715045139990082,0.398052782139458216636996,1172.99953511027138119971,1172.22800163072906798334,1166.47638140747335455671,1180.80676197615480305103,-1211.02910163649426067423,1135.02099273164185433416,684.73326946486793076474,1057.780331250613926386,157.216862466596040803779
0.255000000000000004440892,-1.58652034549153064801885,0.468535507400725304005817,-0.571730175379394744972217,-0.146296655477825887636811,0.15742751332310300771411,0.0260351344329887192385886,-0.0032052908452672281350293,0.00801204807440177892152722,-0.0966778319662957436042561,0.995278104101418592541961,-0.0614598886408347644394468,0.016114932162819652072816,10.5470058780306832346696,-0.0825297053158147025930802,-0.01212600761388252755546,1.07996457439061632754829,4.55995921995790620684375,-0.946347249137561519205519,0.400747673340091703497734,1169.53243555074232062907,1174.73877570404374637292,1168.39785105474925330782,1183.38000265981736447429,-1673.75979942093931640557,885.81886599999882037082,935.761453316489792086941,1058.19772723166261130245,157.210369333677135728067
0.257500000000000006661338,-0.408004807065756203154905,-0.0707953982428487366140857,-0.681575105189934804528207,-0.153212654748392518300193,0.157265388043728970846047,0.0233390300505631718974708,-0.00329721272645087720362667,0.00818670068090731652132863,-0.0966875431327969409034395,0.995275383594981244428368,-0.0612463462474360231801995,0.0048024838463566060786647,10.5536945694534374240448,-0.0826444902702824502060963,-0.0121376334259055314312992,1.08183545039319795044719,4.55979048723789848196475,-0.946310346437813976194775,0.403450268608933348968293,1164.6307361131666766596,1176.65709596072906606423,1171.15518867405580749619,1186.09775061231312065502,-1860.58113745234390989935,499.193290949869606265565,1066.33606975219572632341,903.441436399815870572638,157.20277526655272026801
0.260000000000000008881784,0.767451823339818095526255,-0.484975954926824825985676,-0.740952895708921310813366,-0.15605428101231674786753,0.155933845921056524197468,0.0206063008133105830810283,-0.00339261658003289171686712,0.00837773336249519537388686,-0.0967127119977566340747188,0.995270939113118591201612,-0.0614462998582488845178418,-0.00664776797286047160806532,10.5598958964007962890719,-0.082757732102088463199685,-0.0122106665369381764407741,1.08372440617856713451772,4.55962094619758406821575,-0.946276685045305487875567,0.406159445517129236158382,1160.22952986348059312149,1177.23474215879309667798,1173.72953140351023648691,1187.8972098418164478062,-1740.17635376376188105496,31.9999067121898121968115,1049.65119568946556682931,602.00323234434961250372,157.196615116152912605685
0.26250000000000001110223,2.01537826094021355061159,-0.845672978759005267157534,-0.75822751414747058262833,-0.153745455521653584529673,0.153415343320556840644997,0.0183410174102421053010659,-0.00349508451262275617391073,0.00858804151457905062816423,-0.0967508107369119685348124,0.995264984191439716632033,-0.0622128047648759230359161,-0.0181703110928337283058731,10.5656153905993974717603,-0.0828766834131116347794688,-0.0123480712052247386389947,1.08562722418711432581517,4.55945073873727668711808,-0.946246468863769285562171,0.408873620993817021851413,1155.92985434434785929625,1176.81709549429001526732,1176.40344465250313987781,1189.10776677403487155971,-1635.26235944827794810408,-297.237307963814316735807,1051.34700136845731321955,390.925311953833102052158,157.190633631045216134225
0.265000000000000013322676,3.19862921050146686852145,-1.15950368729017672109194,-0.744059577181009124124955,-0.145618797264162297411261,0.150126420623688416888797,0.0169538940776638863416892,-0.00360356872116035899591968,0.00881376900155691686555848,-0.0967943731192299899879217,0.995258280853534516019465,-0.0635589116220386524114261,-0.0295989568228878369149371,10.5708670421722263910169,-0.0829965013625735964497565,-0.0125396752688141759068952,1.08754069046489942884648,4.5592815103719122049597,-0.946219893096157615985931,0.411591977962831201409699,1152.05321806623919655976,1175.74855561897402367322,1178.98626641035252760048,1189.85183640158561502176,-1371.92110526689134530898,-524.217980073899070703192,966.654005047256760008167,216.413024797838971835517,157.184804100936531767729
0.267500000000000015543122,4.16018425621348342247074,-1.4275196182168687908387,-0.696434448279459217268084,-0.131676013577823242117759,0.146675579900573227476457,0.0161269256935457766521935,-0.00371622909266596619312639,0.00905590322781533313412083,-0.0968381871181818731919577,0.995251333065346077688673,-0.0655904688245826927861515,-0.0407732999993474717892461,10.5756724345682897592269,-0.0831243479294784953781416,-0.0127745026009244040665624,1.08946061566572693912747,4.55911473370789188663821,-0.946197055315801227592942,0.414315693837396470389223,1149.07024881801339688536,1174.19600559392051764007,1181.23671467773942822532,1190.18983189802406741364,-1026.83861989325941976858,-712.330389859652541417745,862.502194885882204289373,117.599340288006615651284,157.179163604028161671522
0.270000000000000017763568,4.94561272478669522456585,-1.7213159922430183446096,-0.592620397806010390517883,-0.112781049250251785842636,0.142894322851410654484638,0.0145244072279617792570194,-0.00382723690466764800491295,0.00931280744476971171497137,-0.0968788454087865791297673,0.995244510288148087617799,-0.0683519180644659440915234,-0.0514578369477487890248923,10.5800616022301881002932,-0.0832637346124553978654603,-0.0130327283800271871705423,1.09138313246007845336294,4.55895094252039356774731,-0.946177442368132726180363,0.417046414628596318063813,1146.91902496677289491345,1172.18690366967575755552,1183.29877738478194260097,1190.4398331030256485974,-515.67621442359222783125,-706.078322670736497457256,624.288345076910786701774,114.727057782829334087182,157.172622605224347580588
0.272500000000000019984014,5.28158853397940220020246,-1.95883998284562754754745,-0.453315742073031990866383,-0.0978044932549389095521875,0.139764739544002619675567,0.0122759331171519991965368,-0.00393358752784419164055807,0.0095833077248772494810547,-0.096909449944533404552871,0.995238510897736183835605,-0.0718742134080009864582905,-0.0614928467744440057640709,10.5840717047253303206844,-0.0834195078453114080563324,-0.0133007800231154955233892,1.09330433236833957089118,4.55878964135152564551845,-0.946159958025371339296328,0.419785984390283195555327,1146.49186774589543347247,1170.66561398056683174218,1184.358156403123985001,1190.76346718693821458146,121.212257812385246324993,-523.765183676550350355683,277.527676809540707836277,196.841404528458781442168,157.167369196918144780284
0.27500000000000002220446,5.33735776550162910325525,-2.19132866457379194002897,-0.249105895550947253891394,-0.0844008712635070518226499,0.135890211335136096293397,0.00949683970896256744731456,-0.00402802790829405021194587,0.00986095948932942840958749,-0.0969232674202687161102432,0.995234081986576035738779,-0.0760666221248093576967619,-0.0706335808921398078386034,10.5877470497714245567522,-0.0835864756477830844749732,-0.0135556391833882954045531,1.09522175618939998642531,4.55863124661079144317455,-0.946143432176597465321777,0.422534628899318309702693,1147.52508625583482171351,1169.56807775129300353001,1184.68641576882964727702,1191.42404012566794335726,759.873949961865264413063,-341.866858738603411893564,-6.27405270379312618445056,381.400885749871690677537,157.162331348646091555565
0.277500000000000024424907,5.17504894159290174115995,-2.44178948551249552778586,0.0513592466547547060740087,-0.069804448575520053332788,0.12952274048815712315097,0.00724214002691785097010069,-0.00411452817978175382912509,0.0101403652396642746796873,-0.0969137141403897395264266,0.995231896618800848663966,-0.0808166692560466637385019,-0.0788887712041577426891337,10.5911351242809423922608,-0.0837595264924222843161417,-0.0138000800216884957766217,1.09713375267445067962058,4.55847660842811563952637,-0.946126876147411199902137,0.425290199298621662826747,1150.29123749570476320514,1168.95627968687381326163,1184.32678613960501934343,1192.67047161568757474015,1221.39774615670717139437,-88.7417134381393282183126,-227.73940721217493887707,512.590207487664429208962,157.15654911753100009264
0.280000000000000026645353,4.91866349865005858532641,-2.60005792461990337116617,0.30756097277624189212375,-0.05858082283791377770088,0.122644145523067557568275,0.00781805019387502887762142,-0.00419288174165069471577283,0.0104123201899866055231136,-0.09687956889235888047196,0.995232163717432838367927,-0.0859187887172553482750814,-0.0861851527685907892184503,10.5942865529717380468355,-0.0839258733062146627945666,-0.0140288964691203318913004,1.09904090554033539994805,4.55832543150792357522505,-0.946109388991248745348628,0.428050159052502765533177,1153.63207498661836325482,1169.12436918410230646259,1183.54771873276877158787,1193.98699116310626777704,1477.44780563580070520402,211.379693246635525838428,-364.302180120739308222255,531.859849940155527292518,157.151960909188147752502
0.282500000000000028865799,4.6070248065208447840746,-2.67909077312626031641685,0.508958174183398392997901,-0.0484888541743074899526,0.11488436321649504734399,0.0109724625516950460846211,-0.00426162065264152050553248,0.0106651515173790539803278,-0.0968231010549814169463545,0.99523479033755501976799,-0.091096826904336070107604,-0.0924307361023608831107623,10.5972528384253497080181,-0.0840669855952161648726673,-0.0142350569675167466787702,1.10094591411834530347846,4.55817732697413546816279,-0.946090777615301692371474,0.430812175883694858935513,1157.67847652388377355237,1170.01317815310699188558,1182.50527523900132109702,1195.32977086538835465035,1676.46939952914931382111,463.270426580811147232453,-423.325670925896304197522,491.117307924286706111161,157.14762456689675218513
0.285000000000000031086245,4.28781979456807604833557,-2.68629598034634353709293,0.632944148943916484739702,-0.0394686892995098834169276,0.107255577732758136666469,0.0147392491996991368413683,-0.00431654165606031297447442,0.0108909450661957979411554,-0.0967522601569548307276492,0.99523910786409042206202,-0.0961396396938523911668284,-0.0974954629190428467833129,10.6000834324460768698373,-0.0841721879885432705536985,-0.0144078417837629289138812,1.10285232762012874729862,4.55803225809941991997221,-0.946071055312515785118421,0.433575407104448418138531,1162.014421984264117782,1171.44072131700636418827,1181.43109037813928807736,1196.44257770272770358133,1739.24435151547936584393,671.597011724224444151332,-396.336077858677185759007,331.184477345095444889012,157.143505616581165895695
0.287500000000000033306691,3.98202238406217468025261,-2.61930574521331838155902,0.659643406599724091421422,-0.0312873745920718010493644,0.100517926290618564433288,0.017748473324720747540395,-0.00435794754175647478661171,0.0110841287527525082790003,-0.096674599872344765816301,0.99524444631175490449948,-0.10085903976139144744284,-0.101360521150944377088976,10.6028228620879101384844,-0.0842338918611644504874647,-0.0145472777303279308946937,1.10476424394973449238933,4.5578903993723871579391,-0.946050411310734196135286,0.436340857036762563847532,1166.37469828146117833967,1173.37116321172811694851,1180.52359484970793346292,1196.98569325211383329588,1856.59574241542100025981,915.557009932135997587466,-318.843222341050534396345,53.6260802279690338423279,157.139657722096188763317
0.289999999999999980015986,3.62559052910377577205736,-2.4836469380284933450298,0.611328983897681421666448,-0.0214660448225739534933165,0.0934766026580894360265006,0.0198571821684916799410914,-0.0043823706442453541284876,0.0112421352425116395645777,-0.096595631072343882128628,0.995250322132737230695909,-0.105124195557247737675688,-0.103944423077127756638305,10.60551014220773247132,-0.0842506061734805966612072,-0.0146456235630395455171726,1.10668583940275033761225,4.557751540388212951882,-0.946028451897408806381407,0.439109601180893149852125,1171.29740069634112842323,1176.01850636666699756461,1179.83687426643405160576,1196.71070810386754601495,1715.96354629152233428613,985.591143855718769373198,-163.976018953600799932246,-268.996391245403174252715,157.135363353172124334378
0.292499999999999982236432,3.31447634010646074997908,-2.34747991062919814098109,0.539574067832960913015938,-0.0128921722035473668155348,0.088177483100397233140022,0.0203344377754202908226144,-0.00438718666268471911562354,0.0113651034397042483697904,-0.0965203354890234455076836,0.995256273416076475690772,-0.108849650114369519982027,-0.105199179486110017123224,10.6081770754998334638231,-0.0842250390151324801468746,-0.0146973839774066136060204,1.10862103614630003178831,4.55761524683453522754917,-0.94600547242831201089075,0.44188203049172175562731,1174.95451601291870247223,1178.29911893100666020473,1179.70371475493993784767,1195.64071129588683106704,1336.33182522716992934875,881.214694097069809686218,49.4037862140884982409261,-582.824147104383314399456,157.13205985828219013456
0.294999999999999984456878,2.95530397775715814034925,-2.20777083710231192270612,0.471321623771094488919431,-0.00396115072037283352107684,0.0833051555334727300561326,0.0200966538789822471433588,-0.00437412860842661087301675,0.0114573865279021108731783,-0.0964546265665015278845118,0.995261681550481669411568,-0.112024094979735935884158,-0.105187413981877558866174,10.6108468454342901310383,-0.0841664646895898121981006,-0.0147073701960746365535737,1.11057296459849519365548,4.55748031292423938509728,-0.945980794815700409827741,0.444656994901455049351569,1177.97905982247698375431,1180.42457983715235059208,1180.08389319750449431012,1193.79658736834562660079,1085.63738017801279056584,794.758163257892420006101,234.459408366364897347012,-826.644838718674918709439,157.129047697172012476585
0.297499999999999986677324,2.54096272816167667585319,-2.07335359306649325006333,0.418175061845013074091071,0.00461647478408111315573148,0.0786074986458914493070438,0.0201470449835042149377973,-0.00434458580035318887163642,0.0115265321398256744001021,-0.0963981854888092404287647,0.995266495852181742876041,-0.114703357909660463853641,-0.103981225283538120107707,10.6135352436744891946319,-0.0840895542508636739675865,-0.0146788465613296031930801,1.11254392155778480955064,4.55734533677991571209986,-0.945954721810902454670611,0.447433669535645672787894,1180.38270291380877097254,1182.27290974729612571537,1180.87601179677176332916,1191.50748710229345306288,796.814845276730238765595,648.045682474411819384841,397.728192168460395805596,-956.763618734020496958692,157.126280404349813579756
0.29999999999999998889777,2.067514849740199167627,-1.94728035358647977304258,0.379079985638668182090782,0.0115273607156288673131206,0.0738674430119367619873572,0.0210060917533575995663764,-0.00430019935944902630814424,0.0115814618075560267496105,-0.0963513882883843542082047,0.995270580771860258195716,-0.116974430775237642210485,-0.10167111293446517983341,10.6162519808502633367198,-0.084010215514208660958495,-0.0146152239127678579277969,1.1145352569167106260295,4.55720826985445004453368,-0.945927863988317407795137,0.450212055802551858185723,1181.96313404886063835875,1183.66480824952441253117,1182.07253415834679799445,1189.01276927467552013695,500.191682775629942625528,496.932883084263721684692,577.766678390525498798524,-1055.98748188472109177383,157.123811096292172351241
0.302499999999999991118216,1.47367789747938049416121,-1.80344167428347290638158,0.332968231643232803751431,0.0172744816759801411709674,0.0681288856539395276668003,0.0224923867300464083718303,-0.00424673166403545347680204,0.0116294740528860764822161,-0.0963095933681862859110367,0.995274285299105665458796,-0.118888323763687450695947,-0.0984420532774672174536335,10.6190023901377532666856,-0.0839385147661650815598122,-0.0145270836772466160891071,1.11654736951033961567248,4.55706788808721352523889,-0.9459017376597673720795,0.452994318142205421029445,1182.8836613276869229594,1184.75757416271744659753,1183.76484518872439366532,1186.22754969286984305654,184.164039375946060772549,315.468491487535800388287,622.160706706835640034114,-930.678753452820387792599,157.121194903986634017201
0.304999999999999993338662,1.00268518050829191778917,-1.68977676649462615898756,0.286023220367315589296453,0.0199947198356176594757905,0.0635572988896444118767093,0.0236859242691148108583832,-0.00418917480071485590076286,0.0116700575266078104830214,-0.0962700677451894387681719,0.995277865235414727074215,-0.120341853871954118648802,-0.0944577068355519078313165,10.6217917709653697500016,-0.0838662865690525671791278,-0.014421088903231540218064,1.11858048298765755390605,4.5569235512026136092345,-0.945876358191623411997284,0.455781980216231064062526,1182.88395424574036951526,1185.2421507069620929542,1185.1833376918809790368,1184.35937550741141421895,-130.191227511568172303669,137.02313357834998441831,515.179154260067207360407,-608.129541546940686203016,157.119305475661832360856
0.307499999999999995559108,0.612381488128414974703162,-1.58815811124154748767978,0.226532699282817051589234,0.0206764609394559303878758,0.0595888094654646871539683,0.0247056887319783112511029,-0.00412744628192034807012689,0.0116983587098832362421996,-0.0962308023074998214463349,0.995281576823218161464979,-0.121162082429456502419285,-0.0897765216536529075952444,10.6246271939563765585035,-0.0837762708073408191022935,-0.0142911257006451200557429,1.12063401061469902764145,4.5567756064045195074641,-0.945852234439338857008295,0.458575935538669543500845,1182.23270519012908152945,1185.44268983060919708805,1186.34074096002473197586,1183.18690198513513678336,-380.760436238642455464287,68.8528109528760410285031,394.414473162305171172193,-335.935144086624575265887,157.117719609214873344172
0.309999999999999997779554,0.285756048858194056094817,-1.49104426101175890906347,0.145627849997338520982026,0.0197003459519166819469138,0.0556182426776319557837347,0.0255563582103426646663369,-0.00406497162003855924683471,0.0117074187237795578064858,-0.096191549525027952860512,0.995285512658473314751006,-0.121137535294877793368151,-0.0845374015872592532439,10.6275175129663335127361,-0.0836457695018490571259306,-0.014138297717396112324062,1.12270615285334218746982,4.55662524995333662047869,-0.945830287037701111785282,0.461376962306007276648501,1180.98015206454715553264,1185.58641476172647344356,1187.15541005769250659796,1182.67969978697828992154,-484.940386800189571658848,65.5741774589386636762356,179.286952334950740350905,-44.4870133916537753293596,157.116169482472315621635
0.3125,0.1448245687234049894343,-1.43632938795019504674144,0.0788538925274464147507913,0.0183157864547977035363235,0.0525349240528637795311084,0.0256546421079564095080183,-0.00400064680081431249536461,0.0116964294498686661311071,-0.0961496632071241197348144,0.995289940424757491044261,-0.120210274937926853144887,-0.0788057370621661201770536,10.6304737871414989314189,-0.0834673790098924284208692,-0.0139545220091050227451124,1.12479283161631649079482,4.55647415076718687032553,-0.945810366735836405283067,0.464186548143932842247494,1179.80800325612813139742,1185.77056071790389069065,1187.23717572169948653027,1182.96446691817686769355,-428.502290687719835204916,106.491675315100920329314,-90.4863133108846398044989,227.895928006046034397514,157.115173177588559383366
0.315000000000000002220446,0.12354974879055426184582,-1.40836000960072738052986,0.0236941214058754498483772,0.0177447317218618338952041,0.0492599051343141705605611,0.025109715833497508324923,-0.00393306563573678647643961,0.0116671130385173956595102,-0.0961029219133164441801753,0.995295059814038651779811,-0.118390653044511240388204,-0.0726539109141293437676978,10.6335104252353627174443,-0.0832403123340172551580807,-0.0137319243576164758818825,1.12688865583815611692842,4.55632343410565976427051,-0.945791671677518319683031,0.46700569083546555892994,1178.83764061110855436709,1186.11887313830197854259,1186.70297849113808297261,1183.81917942700852108828,-310.749215964278562296386,167.590214874053202720461,-290.877856722090371022205,400.365190113324956655561,157.114485128775044131544
0.317500000000000004440892,0.170543024163654383107414,-1.39844592286394342472988,-0.0187073719975486309208268,0.0182180688734973859899124,0.0460069439310662464670543,0.0244430670272046263180599,-0.0038625248733812731112558,0.0116236603554926137132908,-0.0960512711728140344824567,0.995300827413084121531028,-0.115751416155660119544635,-0.0662015679960095693168398,10.6366452501727817292476,-0.0829699422687802251585865,-0.01346786866614156988331,1.1289874913426254376958,4.55617364713829164912795,-0.945774319098975024822096,0.469834353291313289169295,1178.25425717630673716485,1186.60851179227415741479,1185.78278643808903325407,1184.96629286874349418213,-105.964785803325767687966,217.504530333371604911008,-406.468684236051217339991,481.660337438551778177498,157.114053825134391217944
0.320000000000000006661338,0.256559137399733572237892,-1.40326710585968350564201,-0.052074085833333401407419,0.0193357108615745607038683,0.0428327326252590512289942,0.0242566262696904400009146,-0.00379378494841949454735586,0.0115726996148113603357643,-0.0959990180502903606152287,0.995306732074490829731417,-0.112420595506949466679814,-0.0596713805685134407452708,10.6398988905628648637958,-0.082667129749339429700683,-0.0131717399804820757547308,1.13108309190551570289074,4.5560246283133647438035,-0.94575803930884538850421,0.472671071552727806164285,1178.30781668209192503127,1187.2063957899688375619,1184.67063506995782518061,1186.22748111420128225291,181.105616260265207984048,262.22953019400824814511,-450.606289682900353454897,526.506876225448195327772,157.113933385597931646771
0.322500000000000008881784,0.357175392379649181417989,-1.41412523800356559888769,-0.0967788628747956597431212,0.0209542540312541818170455,0.038533896134461155524864,0.0248451326041208911399316,-0.00372880744952669256064848,0.0115193114670607797689339,-0.0959523424561387477949026,0.995312111028096024867295,-0.108510868641239835441503,-0.0532239574689654312833476,10.6432950553142617877711,-0.0823408507750282708803624,-0.0128476355704088170128774,1.13317042175018212191162,4.55587648167499459361807,-0.945743711230853878468849,0.475516029254435201867324,1179.15978525760806405742,1187.91965944324419979239,1183.52975498967452949728,1187.5988272498707374325,426.150045845724491755391,239.720777604952473893718,-332.961146557226754794101,449.979390875023057105864,157.114149526259524236593
0.32500000000000001110223,0.412783101131473706413288,-1.41886658029283441173618,-0.144753295261824593831435,0.0227019842034232761929236,0.0345387803205791030225491,0.0256874876169425857275197,-0.00367135758188145023411808,0.011470958036532762774895,-0.0959153319176943575108396,0.995316469592999575333181,-0.104191865630955934896029,-0.0470598489560660748765031,10.6468570828972701747261,-0.0820060345615144375974737,-0.0125052874112350741186983,1.13524542797383598546901,4.55572984613700615597054,-0.945732241957039199142798,0.478368566740092926448114,1180.43856691132054947957,1188.40499967799360092613,1183.00582933717168998555,1188.47737806857639952796,584.824240211264054778439,147.621551847487211261978,-84.6910189044137240443888,279.238610798028958015493,157.114630740084521676181
0.327500000000000013322676,0.420539537005949703996066,-1.41587003832972713190941,-0.196622220422270510553631,0.025076631426935232227482,0.0306490183895935519586828,0.0259232210532453662132912,-0.00361994753021199766607197,0.0114344874806423316138115,-0.095888677164060298618864,0.995319666947634074105622,-0.0996394349867226331030068,-0.041260208478492335637533,10.650606229115902934268,-0.0816782379253804813323825,-0.012143667085949763281838,1.13730601869196390474315,4.55558531372511854584673,-0.945722774477285699212814,0.481227149500439155271891,1182.08390645866438717349,1188.65776720248163655924,1183.10629989515246052179,1188.99502030386088335945,674.92006356028412028536,47.5937916471593354117431,145.284606783024941023541,148.21124031095664008717,157.115424647979949668297
0.330000000000000015543122,0.388601042796252293953785,-1.4110499394204440992695,-0.234525737802621231375966,0.0277939662426344991086324,0.0270879215919793137068439,0.0249270867704775578310716,-0.00356620922748886615832875,0.0114104751236409254072646,-0.0958712252666316239180233,0.995321835014834732646705,-0.0949173583207194027089315,-0.0357367684014600062170075,10.6545592934613200242211,-0.0813609043334451997875334,-0.0117465406321891167873428,1.13935323846487390753168,4.55544342292754844692126,-0.94571319021592992193348,0.484090315132714499313238,1183.81316722912197292317,1188.64296863622939781635,1183.73225237108681540121,1189.21843427013118343893,657.249918537945063690131,-82.4229470990757562276485,352.777685227055940231367,33.7222476980514045408199,157.11647765765494000334
0.332500000000000017763568,0.332784395518274600522801,-1.41466240960397282577787,-0.233661062721235823769206,0.0297193138889080381292995,0.0239576039260673036290772,0.0228869827530587266473106,-0.0035052471982176718404145,0.0113983852884683312806091,-0.0958627749169525533723402,0.995323014084280366375879,-0.0900643087462171809676192,-0.0304580786068035305746982,10.6587236215746070655541,-0.0810544042711225237729522,-0.0113075386304314715740782,1.14139032700908882311808,4.55530433237927212530849,-0.945701508724589912091574,0.486955795800770696590831,1185.37015605135411533411,1188.24565246698625742283,1184.87018832128774192824,1189.16363154235114052426,585.902192294224164470506,-268.442128741344049558393,569.831898611163978785044,-58.6346205956942370107754,157.117842448092062568321
0.335000000000000019984014,0.296212102060955329019265,-1.44098236219085307219245,-0.18013198429897644969877,0.0299504682272108621599038,0.0205769824534379405789331,0.0210243123516001655104457,-0.00343589652475565290878912,0.0113948669619222658216939,-0.0958612344060001259071768,0.995323446126624600260868,-0.0850558561669502444235746,-0.025448635361289061868062,10.6630945109961370320661,-0.0807518617437086444477146,-0.0108299042502687202504941,1.14342275135358928395135,4.55516706906145785183071,-0.945685239021486934163363,0.489821912869347564356559,1186.74267819059309658769,1187.30075799252267643169,1186.58141186414263756888,1188.92526116715271200519,392.020689386435719825386,-421.19383041090219421676,646.090625603209787186643,-93.260358516545153406696,157.119839203453835807522
0.33750000000000002220446,0.336868546813556157815128,-1.48390946639698739772939,-0.104319415549537428122839,0.0291301031096391632724263,0.017815143931480269950951,0.0206197137856390377841365,-0.00336155043946828558862339,0.0113937577255627097566615,-0.0958632484780942428770345,0.995323511461701060376583,-0.0798018067887193149889669,-0.0208042943709151051390194,10.6676527500540405668517,-0.0804387763169572972410393,-0.0103280937426085805269649,1.14545768084447541212967,4.55503095648569189535237,-0.945663378908417340262815,0.4926885327342250819882,1187.33025949828629563854,1186.13968331493174446223,1188.10064144930379370635,1188.6973297497684143309,107.72769434533974219903,-533.773413518428696988849,585.051882162769629758259,-75.392829936436029925062,157.121800859094122415627
0.340000000000000024424907,0.487599046161349858330425,-1.54021516809845082640607,-0.0205004537281448864782796,0.028671761914524383774161,0.0147142263010122328892315,0.0211696148967417153985426,-0.00328923606661964173028534,0.0113901662206955644335293,-0.0958663938452976177595488,0.995323473760944432697784,-0.0742341148182310006653495,-0.0166797397910303200896376,10.6723623213903771045352,-0.0801024928394629270878013,-0.00982627700221203048691621,1.14750265794478933933931,4.55489562143090598311801,-0.945635852558842193715805,0.495554722075559950233981,1187.28131666231979579607,1184.63189092493053067301,1189.50667127495648855984,1188.54829701747053150029,-154.087753943076535279033,-734.533006637138214500737,554.717329171944129484473,-34.8151623638841272168065,157.12406919702911523018
0.342500000000000026645353,0.805332093233060319903416,-1.59981382292942919676193,0.067808460756516447665021,0.0290874356439307091282132,0.0103067271199871711429008,0.0222680565313546179051496,-0.00322252062773647693361134,0.0113808301568766451206116,-0.0958707201577027323669,0.995323351979947035239604,-0.0683286493258569993525242,-0.0131383221859939086639812,10.6771696138877647541676,-0.0797347167415864838124762,-0.00934170807556342422395268,1.14956482047852626138251,4.55476191441205813248416,-0.945603467751539139563022,0.498421660783699371766176,1186.5598207285709122516,1182.46701828174604997912,1190.87422809516351662751,1188.52325393794899355271,-349.099442500300654046441,-847.521301315690948285919,429.175850261344351110893,15.0596226870220419868929,157.127141965811688351096
0.345000000000000028865799,1.17224103864634066063388,-1.62115424083303238944609,0.126685611057780450616761,0.03008574692315379994767,0.00597658994122881367244693,0.0229638201724781942925091,-0.003161474505182639265638,0.0113631243086165182459846,-0.095877013614766165572334,0.995323099722254189813953,-0.0620836993414820431658185,-0.0101503705435169455650879,10.6820036398174273983841,-0.0793294044180829216461603,-0.00888340400309817895818654,1.15165031596247779965836,4.55463048086562150018608,-0.945566453745389168261681,0.501290960025875365069226,1185.53581944981829110475,1180.39428441835207195254,1191.65255052626321230491,1188.62359513090564178128,-455.771243561229823626491,-875.627564789100802045141,223.896066498127567001575,50.5056295670328410096772,157.129991086361684438089
0.347500000000000031086245,1.60961674956268563363437,-1.59034457221505176605092,0.176347519243394895704924,0.0321341517516434832524297,0.00139479891184354906283338,0.0229799125329935086115007,-0.00310380234960770185273504,0.0113388845802149546698745,-0.0958832552748529187702786,0.995322898630896402139001,-0.0555983461507868897966134,-0.00762784343713645424100989,10.6867766901229899190184,-0.0788913467669601631282461,-0.00845438886187059937538102,1.15376312854670071139651,4.55450112012695118579586,-0.945525230585605114264069,0.504163962934124021408877,1184.28096451076476114395,1178.08888045780054198985,1191.99370842765415545728,1188.77578208578415797092,-506.664629148735457420116,-947.207870471992578131903,62.784579280287232450064,49.4790879453375538332693,157.133133848584151337491
0.350000000000000033306691,2.06179741747803602081035,-1.50672741685152167256945,0.22423979496581894488294,0.0360185936021287442243555,-0.00278931913498240086415891,0.0226449130411080744307295,-0.00304772886729870635946771,0.0113153743529963227154589,-0.0958853205497459254447179,0.995323071392652414246527,-0.0490870659847210261128581,-0.0054913807121919483433814,10.6913864428508471604573,-0.078437801697567657854826,-0.00805801127287935833876098,1.15590461196778337971125,4.55437372342601509700444,-0.945480507832064498430213,0.507042833728829189787746,1183.00249630407461154391,1175.65824506599210508284,1191.96647342266464875138,1188.87099057063232976361,-478.820871738394430394692,-972.512040621596383971337,-89.5068186344824425759725,-6.10325138227387320455364,157.136514831926547230978
0.352499999999999980015986,2.46569481677261093111042,-1.35689435438600769501249,0.268233428637922211024147,0.0427891627259960327656074,-0.00636831225777226631046268,0.0225467913867936006755421,-0.00299242280410351099706467,0.0113008231689748078752089,-0.0958803692947312741212684,0.995323803917906424487683,-0.0427841992088230926860604,-0.00367444433079072013681454,10.6957191194598273398242,-0.0779881756002269305172447,-0.00769789286491880022506029,1.15807415619184395083607,4.55424837793382764061789,-0.945433793553234647077943,0.509929375439327037256021,1181.88686015207281343464,1173.22632025469260952377,1191.54617433448174779187,1188.74526582887278891576,-410.348433992162085814925,-1013.80119761453113369498,-248.215902924632956683126,-142.657980895502618068349,157.140175400171017372486
0.354999999999999982236432,2.81951629723095997803739,-1.10299065694871867293614,0.299347494298436545001607,0.0528769579092171759793217,-0.0104446174412104360318398,0.0233061491118427381585843,-0.00293008707427245196006083,0.0112953057431981508662577,-0.0958666727289438219683504,0.995325286328619607267854,-0.036765682468518884329356,-0.00194137026545911431374414,10.6996526408426291254727,-0.0775446931532076944026954,-0.00735724884328899618457509,1.16027083458025526141455,4.55412563302979300772222,-0.945386483442556380119015,0.512824888668569456307011,1180.9507541341138221469,1170.58923907791950114188,1190.72539390804149661562,1188.15770066615482392081,-250.948748507198388324468,-871.375065791516249191773,-328.460410829074760385993,-303.727960467312811942975,157.144879713808535370845
0.357499999999999984456878,2.97475901512822815675463,-0.835716910703336979260314,0.289266540426243112804627,0.0612668027175167009823475,-0.0134730593344746778922127,0.0247973178832884832978323,-0.00285666030318074137817064,0.0112920857193070413304614,-0.0958425795014834075447041,0.995327768943889967800942,-0.0309550989367872279867111,-0.000123574637271941373262152,10.7030590959739875245305,-0.0770928521698600599521001,-0.00702349548737826387401206,1.16249358231077004610654,4.55400503539548395792735,-0.945340088672441458683693,0.51572923529825398514248,1180.63211640953682035615,1168.86944492573502429877,1189.90387228033637256885,1187.22662602653622343496,-11.0840487470795672209078,-534.049283217199899809202,-332.605275633886492414604,-461.478392572370978541585,157.149049992518058616042
0.359999999999999986677324,2.97867939347016807971613,-0.52724819031742797825757,0.226704444618758355067811,0.068682867206193778941703,-0.0155057969920763000920561,0.0268603024416812566355084,-0.0027710366293481488407513,0.01128435942775540996863,-0.0958108048963537822784176,0.995331076667850922490288,-0.02526906395802130597672,0.00187837837907560076255997,10.7058068332139129097413,-0.0766169104632370284724274,-0.00668859989121249089161214,1.16474065045863572898099,4.55388573831073006914494,-0.945295571473990348110306,0.518641880440665947737955,1180.89533389037842425751,1167.9189926618334993691,1189.06236752987206273247,1185.85030870329296703858,207.887095909927495540614,-223.135654138877526975193,-333.074789538568154512177,-606.66220004377407803986,157.153466973799083916674
0.36249999999999998889777,2.86403082980956114056426,-0.204142580701968889833609,0.123129135486668386811893,0.0754442253182913136200227,-0.0166098858451105384215207,0.0287036785393014158562774,-0.00268077610084800415854445,0.0112748202314717441835379,-0.0957753469968984777471732,0.995334772868535555545577,-0.0198089183864997263329055,0.00394789227205999057601638,10.7077630235042917661303,-0.0761207536459647254867278,-0.00636438980423994007940003,1.16700861331117744512653,4.55376652087800337653789,-0.945255006514248874438522,0.521560926537890212628668,1181.67155188908645868651,1167.75376665504063566914,1188.23849833264353037521,1184.19331502631735020259,427.611195672443102466787,137.267753977994175329513,-334.448087275722798494826,-698.104788260024520241132,157.158078761044663451685
0.364999999999999991118216,2.61481551630132624808311,0.108224603086201243140607,-0.00510856034163045119589341,0.0817732803104136013461201,-0.0165918309470847492870238,0.0291463574588145153676511,-0.00258621923526314344624066,0.0112704176490242887614945,-0.0957390040581929807617101,0.995338506521050936370898,-0.0147811134597025072012766,0.00609701000321098696144162,10.7087962231347244568269,-0.0756194739921834113705046,-0.0060447523793129703806315,1.16929344279746527668351,4.55364695928806995084415,-0.945219058089507457864897,0.524483984036956396579399,1183.03338986874064175936,1168.60533143172347081418,1187.39012709349344731891,1182.3597847619928415952,706.928267045440634319675,597.888404697186501834949,-406.508229819928260440065,-806.750938489812369880383,157.162914341861323919147
0.367499999999999993338662,2.16563766740711960423482,0.433534358577359779651772,-0.139765911601671621866672,0.0886953240400879944216328,-0.0152126497038390425670107,0.027711582529689960524566,-0.00248971131471083283528967,0.0112829672114634644436437,-0.0957037215934973539699371,0.995341951007111647165004,-0.0104906654103518563736497,0.00826573867679438953337545,10.708779094266567710747,-0.0751389281147383791825689,-0.00572788742436974862570764,1.17159038808778936946453,4.55352648365994028267778,-0.945188549547938960948557,0.5274105007157821045638,1185.20619322431366526871,1170.74320867852657102048,1186.2059571835438873677,1180.15956033386828494258,853.465343238666832803574,941.441387566373236950312,-484.307739439418128313264,-785.168764914168832547148,157.168962586670232894903
0.369999999999999995559108,1.66839879292317827541581,0.640546913848308974159806,-0.206416091277180635543687,0.0935951296372628527286963,-0.0132044468258136291766158,0.0257746127984319860215745,-0.00239226417517740758481026,0.0113153166542896161522735,-0.0956717881128387320766038,0.99534485498812519388423,-0.00705209971449842140667208,0.0104203637014328165388832,10.70759057042529960313,-0.0746844198189431929257864,-0.00540643305267977502398535,1.17389578545284201105403,4.55340467074117061230254,-0.94516395663887076139531,0.530340909316461939226883,1187.30071658493397990242,1173.31253836955534097797,1184.9685883962963544036,1178.43394093742199402186,846.640772904719710822974,1138.41106972731631685747,-564.398645474738714256091,-654.492468326679386336764,157.174198688716955985001
0.372499999999999997779554,1.04803107452653465614389,0.764459685001372735158043,-0.212584591017740298646288,0.0974296084748781099360571,-0.0106713912920804471912151,0.0241555378521887999243578,-0.00229638857252996951563428,0.0113661586964896657581114,-0.095644535581347542296804,0.995347105626544492729124,-0.0044847201962955711429526,0.0124830292027743386396033,10.7051176030637247293953,-0.0742513736149654768325945,-0.00507590715840701076078112,1.17620599301116235402276,4.55327998798998390128645,-0.945144805332704618372475,0.533276112697100290738206,1189.43939708883726780186,1176.43526402716315715224,1183.38396395617019152269,1176.88709799223488516873,889.283444499232359703456,1424.46539680145042439108,-776.402915569496371972491,-635.019580810466663933767,157.179628755431167519419
0.375,0.175695214475906524853599,0.814758140223028393123172,-0.163078558260654871148176,0.10063491477647265592843,-0.00722758042928002900073814,0.023060524371825076583864,-0.00219591393885160265572742,0.0114227532336298228526905,-0.0956227597454445410463109,0.99534878115329794567856,-0.00257685537240112325085839,0.0145653487623137144202357,10.7012564008550352667726,-0.0738108366444299446307298,-0.00471020648091531515117003,1.1785181805280258160451,4.55315226493411628894137,-0.945129999968640888141636,0.536217237243997724149835,1191.74713380743014567997,1180.43486535356259992113,1181.08657381844886913314,1175.25884303336965786002,762.5217574516675540508,1447.50867607180998675176,-891.986706533497567761515,-558.638463866918300482212,157.186359483825583538419
0.377500000000000002220446,-0.634282952742920902444723,0.785910543738325473306361,-0.0951993041936595174590252,0.101723238284413056153888,-0.00449582613519738591434383,0.0229545512227803220894895,-0.00209583753221009383774232,0.0114781464329672018565009,-0.0956051188708812310634855,0.995350066165480606983351,-0.00121036496334539153685306,0.0165128635373070278835606,10.6959152125883871775613,-0.0733457508565387023002913,-0.00431263824369408632630751,1.18082776373992826002279,4.5530227000560055117262,-0.945117743000143284426429,0.53916643989306156647956,1193.25200587609560898272,1183.67280740752221390721,1178.92403042350269970484,1174.09390567290029139258,479.014772874551965742285,1204.96689152873727834958,-881.756597311731752597552,-423.631102822946161268192,157.192141122746136261412
0.380000000000000004440892,-1.47920479448043895587261,0.712060766652585441782719,-0.026451221248603794256038,0.100041390182709410971995,-0.00246247289055491177037216,0.0235145217654321066202971,-0.00200123156492514530854776,0.0115282874508093099302775,-0.0955865915684999956081214,0.995351472703183137724636,-0.000319598285719795843773383,0.0181515899499631108704456,10.6890155373715991515837,-0.0728472700731219585668086,-0.00388986758727741114075038,1.18312899841881780105268,4.55289398254162502865938,-0.945106371616508345034902,0.542124706003977996360277,1194.1422076718029074982,1186.45969981120629199722,1176.67779083189020639111,1173.14068751925492506416,239.077570883227764397816,993.942654904548362537753,-879.524724120118776227173,-340.729517843146538780275,157.198095554456244826724
