t,ang acc x,ang acc y,ang acc z,ang vel x,ang vel y,ang vel z,quat x,quat y,quat z,quat w,acc x,acc y,acc z,vel x,vel y,vel z,pos x,pos y,pos z,mot 1,mot 2,mot 3,mot 4,dmot 1,dmot 2,dmot 3,dmot 4,vbat
6.95000000000000017763568,-0.0110086263625797375897974,-1.02246357228839412911725,0.28553762338552668431646,0.0468661631445173657017911,0.0430208841877533221254026,-0.00928445783544976088741407,-0.00153085279888514713513004,0.00277896694219424006400132,-0.126047906157705724705664,-0.992018965163406041263272,0.0250231097801907401145804,0.0397015187265729874166453,9.79925208944453096648886,-0.0199202731401900944019356,0.0260852255636829233331753,-0.00272032908002248089221475,1.39847787076890894830683,4.45857001990034174099264,1.29262908126395359431626,1121.44456026549414673354,1131.59276039420706183591,1113.99725529875036045269,1125.57364310777097671235,-26.7275108705192963043373,106.547386922767771011422,-268.721066047468241322349,-269.064784081505194990314,162.673088232052037938047
6.95250000000000056843419,-0.194969504012456495978256,-1.05426954332191935570506,0.423140877806703563646096,0.0452392491402779720055527,0.0405770828537160080373702,-0.00801292601463346292056666,-0.00155691502098228564884841,0.00271461603790325561175178,-0.126040746960837862777893,-0.992020018880405918260124,0.0239251640731766787584256,0.0390733721202451284026935,9.80050908442048474000785,-0.0198299064195431654078483,0.0262277985722744015617547,-0.00275796528343556779372392,1.39841654191229225467907,4.45862761185809830521976,1.29262660892690095515434,1121.27185863678005262045,1131.51995205702542079962,1113.62206711793805880006,1124.9511737986622392782,-109.405415114499703577167,-144.679826563700231645271,-49.1598556772725245878064,-239.152116978044062989284,162.673035460907840388245
6.95500000000000007105427,-0.331534334055597845747343,-1.02098759055931131989325,0.493690988205320979709256,0.0437136832880292841574388,0.0383211299747912362279045,-0.00605076008552402067053322,-0.00158128987183704704591602,0.00264571759632185486352252,-0.126032253527413179439165,-0.992021249320564901807984,0.0226294889760701237180207,0.0382176011913234192629574,9.80174470325397351189167,-0.019746327277313773657097,0.0263567783022684784532963,-0.00279504251568841750180683,1.39835476326411733971611,4.45868375685861817458999,1.29262330618253051817135,1120.89753318992165986856,1130.86936126138857616752,1113.75145602036400305224,1124.37788252288078183483,-190.342357808689911280453,-394.288603383765121179749,164.751145947005966263532,-224.563175326152531852131,162.672942775571328866135
6.95750000000000046185278,-0.455976866251211587766079,-0.920432869384564145143202,0.505669567288115850978159,0.0425932356798823033572354,0.0353533953692322100437195,-0.00379546602452473201549932,-0.0016083648397169820771363,0.0025755262811160916334996,-0.126024755696256929304866,-0.992022345759306367618535,0.0212394304141890408188509,0.0372443257134202898583908,9.80293758870798903615196,-0.01966920757662913091246,0.0264738278533139283210662,-0.00283104000803937857003167,1.39829249835501268073301,4.45873787614226291253772,1.2926185954774573882986,1120.32014684773662338557,1129.54850904010663725785,1114.44582284767307100992,1123.82835792203150049318,-206.347082599545359471449,-542.897139081572049690294,325.36097595430658202531,-169.453363252709067410251,162.672781676713441356696
6.95999999999999996447286,-0.544082745852253801821519,-0.796384045664977446854493,0.46937630194286139584392,0.0421246115003598084469694,0.0330094911863785880901112,-0.00249018377647024355056593,-0.00164259305929594068805544,0.00251087289889891877164851,-0.126018549773222049426025,-0.992023245752572280231618,0.0199292085378114450233689,0.0362549185055853068204712,9.80406409692426805690957,-0.0195978702981170933850041,0.0265809923475062298559024,-0.00286480960487482585324903,1.39822958787639906041989,4.45879005961326946305689,1.29261255049709533615498,1119.86579777692395509803,1128.15487556598077389935,1115.37826090013550128788,1123.53061570661725454556,-136.479388828277649281517,-569.564114605430745541526,413.681482081037472653406,-80.3006068476878454021062,162.672603600380540456172
6.96250000000000035527137,-0.630412462560616226880938,-0.64638975825648126161127,0.408839590106463257601632,0.0416254442236379251784939,0.0312409539099996226563238,-0.00185054936047637135290711,-0.00168462340067960657415125,0.00245393093403063105098494,-0.126013237900917174361126,-0.992023992890538885980334,0.0187734853168290902192261,0.0352858498045161700362726,9.80509997456944581983862,-0.019531361715550397267771,0.0266804568537983531617552,-0.00289495379480393709784036,1.39816607590845110031808,4.45884064014687542254478,1.29260551808650880900586,1119.63774990359524963424,1126.7006884670795443526,1116.51423025807821431954,1123.42685488779306979268,-24.9338690730388279348517,-553.087303256655104632955,460.566569657986121910653,-8.87524912950558153568181,162.672377875833689131468
6.96499999999999985789145,-0.715959279543966986558701,-0.488934395504757313144495,0.344660855833783308366236,0.0406727228650971064927155,0.0299978732720120044863421,-0.00154230855730016071063193,-0.00173322803698591852011868,0.00240308361104013806092139,-0.126008260350847473008074,-0.992024664744437401076027,0.0177682362664518325723328,0.0343432745812527751017029,9.80601984667775461446126,-0.0194686127585181091570465,0.0267742775506016085496075,-0.00292004137430094349442422,1.39810227894013316962685,4.4588902425103702498177,1.29259753023386592118982,1119.74112843155876362289,1125.38943904969755749335,1117.68109374842538272787,1123.48623946096972758824,144.754668977660372775063,-452.176658898688970111834,442.518352095394561729336,60.3182278746329885166233,162.672111434659541373549
6.96750000000000024868996,-0.789699211431498016011687,-0.33898353889747417921896,0.288502276316642602971285,0.0389371922120730074023953,0.0292832070491834718650725,-0.00123851660793666135118585,-0.00178460912106527948110812,0.00235628198812858589972219,-0.126001828295227324971961,-0.992025501349981131404832,0.016893604546723652026774,0.0333810432773531673422696,9.80679709222827433734437,-0.0194086623788183136596341,0.0268641315913758366162867,-0.00293856246403058135249764,1.39803793484193827900697,4.45893926002283258469561,1.29258865723674354342165,1120.36152324848353600828,1124.43980517258614781895,1118.72682201855513994815,1123.72844602716622830485,398.329979022591317061597,-311.283047269541668811144,398.651146983055980399513,141.50918068362744861588,162.671794933057753951289
6.96999999999999975131004,-0.844265685328504322804122,-0.185096476030443768401312,0.23632698931380408113867,0.0361177576022871718586238,0.0288970906767644676593765,-0.000765265350362756384405838,-0.00183439321179001686538956,0.00231186619894725069526698,-0.125995095028606229892176,-0.992026369336444835411726,0.0161348507581534975074966,0.0323370479604217497815455,9.80740392863804366641034,-0.019350561008372541005329,0.0269513330297203902718994,-0.00294912229198198913571183,1.39797301036235421811682,4.4589884540044941729775,1.29257890620862392339063,1121.73277832667167785985,1123.83302381334988240269,1119.67434948334062028152,1124.19378536438784976781,591.639873932730438355065,-141.332553403938902647496,279.412593087824063786684,191.22664086053597998216,162.671356630464003956149
6.97250000000000014210855,-0.848948963583386895237481,-0.0873534754073685831832208,0.205121578611615729137441,0.0334663059789128344845288,0.0289253926352927015486216,-0.000360525106327853200882672,-0.00188331406046291448784513,0.00227221770218430547949584,-0.125990221336017671482921,-0.992026987683583993948844,0.0155668895122937286923381,0.0312352910514447634771074,9.80781082090938838291549,-0.0192936130157759337666601,0.0270366735736188995575802,-0.00295067856642345716436382,1.39790764940115130876563,4.45903782098070955441926,1.292568849373808337333,1123.31972261814712510386,1123.73314240556646836922,1120.12388498399423042429,1124.68457923146888788324,688.486682266904267635255,7.71724663554657475117438,99.9269289343217934629138,203.675717384717245295178,162.670942421425820612058
6.97500000000000053290705,-0.805007252392897831860807,-0.0262335044935934971754854,0.18323716922345728574939,0.0310121601257615578384197,0.0291888314339121719698245,4.42209122710632908685377e-05,-0.00193474481886824552397119,0.00224093621123139935535917,-0.125987351998534086172654,-0.992027324153900269543271,0.0152926829092918589725336,0.0301456406054451259146632,9.80798836939100127096935,-0.0192376125059670124994859,0.0271203208071804646728253,-0.00294263921414127539027961,1.39784222575029359880716,4.45908763624181769813504,1.29255882463099291967978,1125.1752117380067375052,1123.87161004652762130718,1120.17398412801230733749,1125.21216395131159515586,818.844897472371712865424,52.9179815893269207549565,-66.2183158053281175625671,221.922150270215922773787,162.670476789970791742235
6.97750000000000003552714,-0.700455411332224664455737,0.00690000655218028779991357,0.161909758233234279956037,0.0285287045401948387290947,0.0295150505062263535105416,0.000579125412649997717978723,-0.00199289487565666766435979,0.00222132751639471078333732,-0.125988751854236330496306,-0.992027076549261144222669,0.0154095890872393351256342,0.0291525667636493290846289,9.80790905235938481609992,-0.01918263703778457646143,0.0272020243666930700010553,-0.00292488185024415616591886,1.39777799591783002952639,4.45913916605144144966744,1.29254832421757992477751,1127.41394710550889612932,1123.99773231351309732418,1119.79279340496759687085,1125.79418998281994390709,776.956089121466220603907,-6.4149615112002269512459,-200.830574063279271967986,192.984332323162135480743,162.669857006200174964761
6.98000000000000042632564,-0.578629248093958548082583,0.00729803188622189531048479,0.143862351604311294872574,0.0269095713278924876521447,0.0296684153717553800166939,0.00109286217417691919849554,-0.00205628865696268637447419,0.00221115498272792454156899,-0.125996015641720082722799,-0.992026049779225371771929,0.0158905152344850156276301,0.0282420196430619302452314,9.80755031345015382271413,-0.0191290517980711900769553,0.0272811544547650261516303,-0.00289771841971486277325654,1.39771570321522142776871,4.45919313394942040673641,1.29253685579257204807391,1129.05999218361398561683,1123.83953523897162085632,1119.16983125769593243604,1126.17708561292738522752,563.526664575250151756336,-156.702651289882567198219,-289.749160873185985565215,124.132719559341154536014,162.66928791405794640923
6.98249999999999992894573,-0.433688248744875326501358,-0.00955625154016004861590172,0.121861388958386912539922,0.0259375370869379257010578,0.0296180025529244154991471,0.00163381972757353256808788,-0.00211970521818140170480782,0.00220444040019807021429932,-0.126006898237961628694848,-0.992024551902717655060826,0.0166230979296544054135687,0.0273355310176972704505616,9.80689547461369315328739,-0.019077433603956889252018,0.0273567704073409828646746,-0.00286202111120445728403849,1.39765465785789588792909,4.45924876269412173712681,1.29252426449656621088025,1130.23158042838508663408,1123.21421905706370125699,1118.34404760060169792268,1126.41485358061663646367,365.068884121190933456091,-394.340308011359638840077,-380.709911386073997618951,71.9772452576323189532559,162.668661420692558294832
6.98500000000000031974423,-0.246386609272820272797944,-0.0361374810287842587741558,0.0905678476135574339611622,0.0254841049068172467717552,0.029292772707727732228733,0.00210685652012680170452885,-0.00217879772491986296520383,0.00219424629390175401910668,-0.12601847035338703539864,-0.99202297910724124285764,0.0174751577270098115701735,0.0263732807746112352109691,9.80593417857713411933673,-0.0190281466570020353634707,0.0274279204827122778664883,-0.00281949166298197132982106,1.39759397907177751463337,4.45930527820731636978735,1.29251078269155450506389,1130.88533660421990134637,1121.86783369891486472625,1117.26628170076560309099,1126.53697183921553914843,101.031843957482465157227,-576.182806538111890404252,-390.659286899980656926346,23.5018938191847617247277,162.66783912948113766106
6.98749999999999982236432,-0.0841522963072338509027404,-0.0555796289579814709047589,0.0628009551277913524724994,0.0253242541060368225869226,0.0288283730546708971687053,0.00228618324650348278201384,-0.00223375286531772142967212,0.00217454767178727617973899,-0.126027692751352532463116,-0.992021730312076854829684,0.0183396442865481137940442,0.0253808361882019162258928,9.80466303948532491574497,-0.0189811728351869102304761,0.0274937704798490258062404,-0.00277291606430774949937357,1.39753317452506276019619,4.45936153785922595460534,1.29249770859497337127664,1130.73673964817248815962,1120.33330502437320319586,1116.39075116610183613375,1126.53236304971255776763,-195.764522822177781335995,-654.846257967997530613502,-329.66195236995895356813,-13.441589442573162571648,162.667091531131632109464
6.99000000000000021316282,0.0843707171335399686018519,-0.0675390254902230174893774,0.0372964457224011086688975,0.0251667245279124096590806,0.0282917852468817891675723,0.00242644573475570609483176,-0.00228558860562100805979835,0.00214259768020485900918981,-0.126033469890116378575584,-0.992020949169351906604675,0.0191710070592369316577752,0.0243911012244837771545392,9.8030871003204307356782,-0.0189359817235654412370671,0.0275537287029092858858803,-0.00272591875510681163133353,1.39747220308708275382514,4.45941760711005397155304,1.29248651703763361986432,1129.90651399010903332965,1118.59360240907494699059,1115.61797193891584356606,1126.46976389200267476554,-421.849295738875184724748,-686.026041614983228100755,-286.208265399006165807805,-25.9868172250668152400976,162.666274235094732603102
6.99249999999999971578291,0.258841380624321881764871,-0.0744902968878200927305144,0.0167894665769709600100512,0.0252069665873914279530243,0.0279042357256898965189862,0.0025554880142870128358068,-0.0023340715885910813184867,0.00209931289705820364049904,-0.126036413766737187547307,-0.992020557481698372903622,0.0199867342241709169958774,0.0234028314210892318669721,9.80122092641293107817546,-0.0188915799429339482939927,0.0276074081500737242289567,-0.00268268430025815282635726,1.39741094781673913516329,4.45947352921385142821009,1.29247843330388101357187,1128.62749316947815714229,1116.90317481629836038337,1114.95970983910683571594,1126.40242896358722646255,-574.660352316244370740606,-611.576128588707774724753,-234.936802085990620980738,-18.6677663351478599906841,162.665395186522346193669
6.99500000000000010658141,0.437517294904328446492059,-0.0813315313081979796017151,0.0066884415250934728738863,0.0257572094647046216653319,0.0279547445225107535349274,0.00250936939552648050066885,-0.00238161168925031963700123,0.0020528058629866448130119,-0.126039149647637710449644,-0.992020197870837172615666,0.0209448937500238893671956,0.0224474799221740239918432,9.79908787362533217901728,-0.0188465650531479469997898,0.0276545798349834351381737,-0.00264763937105674416680468,1.39734957657210512316226,4.45952942404705687806654,1.29247389295083481286497,1127.03321222852787286683,1115.53572176613147348689,1114.44328792848591547227,1126.3764250603269374551,-704.966835659960338489327,-474.551514773218912068842,-199.330388234662450486212,6.11808931794162003114934,162.664437429463106354888
6.99750000000000049737992,0.646630854569698931832988,-0.0963574463022624644326086,0.0120240575581165853868981,0.0269960286523619821807962,0.028287642738560336147513,0.00228491669819990556034028,-0.00243254841535165420088327,0.00201113044756040483182491,-0.126044772669347909799242,-0.992019448952803917229915,0.0222004183356716358610505,0.0215931728618505985872744,9.79672103659570936429191,-0.0187992089912825018072073,0.0276950960030942806844312,-0.00262526790382669591647491,1.39728860145519928614988,4.45958614748140202976856,1.29247200276107876426579,1125.10265899117780463712,1114.53041724243189491972,1113.96305789793336771254,1126.43301941017693934555,-660.863391302942090987926,-241.734012353441045206637,-159.351867959234141380875,36.6003758995255878971875,162.663192796143562190991
7,0.805133667094580118828162,-0.11444905615924250152915,0.0329908063878603247109922,0.0283402169964174048544248,0.0284144759146744557698483,0.00199885034104259036794038,-0.0024894967019954161203954,0.00197880514278479194972826,-0.126053301663325928450021,-0.99201829182415313113097,0.0238277447533442390814606,0.0208824082414577616439999,9.79416348365616151738777,-0.0187476182210868647093349,0.0277288124226768954716515,-0.00261962911009806353329621,1.39722804258099486673927,4.45964390166181257058042,1.29247193603163390562827,1123.72889527201323289773,1114.32705170436429398251,1113.64652858868976181839,1126.5594269398245614866,-452.520749705818730035389,52.4986467693463296768641,-118.558319996966730514032,61.782742457081845088851,162.662073849609811304617
7.0025000000000003907985,0.928463120385050300065188,-0.130910850917033000362366,0.068890956672694320106487,0.0300452422762964438396338,0.0281168163405828147594079,0.00163503860762707377285441,-0.00255248784294728834481925,0.00195574539592467634349648,-0.126064481515258314248129,-0.992016758255795272347655,0.0257980232364512993004091,0.0203174143941853638239969,9.79146717929094201338103,-0.0186895103047070194890455,0.0277557962025591180299511,-0.00263402001323391563719634,1.39716744656286895320818,4.45970230373195519746332,1.29247290646960388826869,1122.84005524264875930385,1114.79291047627862099034,1113.37026629794854670763,1126.74193312246234199847,-247.332909357288173168854,335.30525801271130603709,-121.482665031319669424192,79.8056189636571389200981,162.660868290713693795624
7.00499999999999989341859,1.00611330181960068053115,-0.136328315444442793591406,0.117976354805126304459151,0.0328153201855314255452889,0.027245353924009427931674,0.00149142995119292895433993,-0.00262010651131969326751991,0.0019379265673299941527552,-0.126077536816685126241921,-0.992014957999818758338506,0.0279949241932486506123645,0.0198803789364022723273884,9.78869091683014325155909,-0.0186222025259886007908516,0.0277764127711599452530411,-0.00267078283088524734076308,1.39710606058026898246283,4.45976090310555139950566,1.29247400210359253414083,1122.49223072522681832197,1116.00357799442781470134,1113.03911526353317640314,1126.95845503464283865469,-4.66271090540440980021231,520.174755345271705664345,-124.475598934489354974176,66.6524801265055089061207,162.659320727466706557607
7.00750000000000028421709,0.987750903648873523898999,-0.122708378299747844497603,0.149805109486536691676406,0.0359201011339426654056517,0.0262989354511164279137869,0.00185148857107825747479735,-0.00268862699280577720911678,0.00192017108832820307222355,-0.12608807963499399362739,-0.992013467942092996842973,0.030266873972290921079864,0.0195099882934352958363533,9.78589783105527111217725,-0.018542871753405205242915,0.0277912818869223109119471,-0.00273103543159986797070338,1.3970430979998491594074,4.45981870255139956071844,1.29247487568205032815172,1122.81674168812173775223,1117.39378425300492381211,1112.74788830327611321991,1127.07519552309486243757,237.100385766057627279224,586.00669944768355890119,-116.750098586274120293638,18.95461505896532372617,162.657947308869893277006
7.00999999999999978683718,0.859984577147904327709682,-0.0915882416373272750798051,0.152957753591685952088142,0.0397078966357201079695471,0.0256649883686696812790107,0.00278018109818764297055949,-0.00275477852691944323504369,0.0018979355393764262352474,-0.126093006966396636858718,-0.992012699772563233402423,0.0324697257607868064455126,0.01914991018032503877766,9.78315227980248280914566,-0.0184485070654816160629075,0.0278014356497345190011306,-0.00281471829707487762595175,1.39697790684624911783374,4.45987456745516652745209,1.29247521566149958793801,1123.67773265405708116305,1118.93361149166616996808,1112.45536477060181823617,1127.05322810993766324827,456.170677700729982007033,652.703104520619717732188,-116.277372099423445206412,-55.9241544596273456591007,162.656488289082943765607
7.01250000000000017763568,0.577687299382305896600087,-0.0460532552794408189811293,0.107772065561217392226645,0.0439910991116433044978429,0.025731822996375511292122,0.00429619702681463631194214,-0.00281642898945280674080638,0.00186765442074271871900071,-0.126091435651440458842742,-0.992012778900107417001664,0.0344763345153964242961742,0.0187609233187938928555383,9.78051713467938554913417,-0.018336217470293778020185,0.0278082265619856369709417,-0.00292065119558149134323943,1.39691036932444245799445,4.45992878386052371553205,1.29247451516699363160967,1125.09759507662533906114,1120.6572997756079530518,1112.16650144277900835732,1126.79557475079673167784,544.116645623359090677695,574.353441474887631557067,-80.7923447107769874264704,-140.133013937953279537396,162.654641236140776072716
7.01500000000000056843419,0.2573829477847232594101,-0.0111245180157328506925785,0.0284608509784357206762184,0.0463256080234827546937559,0.0262898200450120030080559,0.00538455537851707886215502,-0.00287397570209027780965827,0.0018295227312928783423851,-0.126085124015353433613029,-0.992013480899877730934122,0.0362355801022336207473096,0.0183409483676421902753617,9.77805059458846059783355,-0.0182036541072966642773601,0.0278131645117253439858374,-0.00304656739341157677819494,1.39684137096049432180678,4.45998178495365493745339,1.29247288677896676745149,1126.39831588217430180521,1121.80537869904105718888,1112.05140304704787013179,1126.3525630402477872849,499.457597881075059831346,370.499516037360706377513,1.32933146906000843046058,-226.040102972870329267607,162.653024263132266469256
7.01750000000000007105427,-0.098183624187883067335747,0.0161161576686130875168956,-0.079551423777091331834832,0.0467006274340121541044368,0.0267997175941367057894205,0.00553605168922967870448471,-0.00292870419681462825292617,0.00178476604313817827258959,-0.126076064527988002117453,-0.992014547396386170419191,0.0377171348114011192875772,0.0179004825501342251792281,9.77580460094877601306962,-0.0180495057082682361371262,0.0278176806445777809184694,-0.00318925881441628608289895,1.39677199674987662092462,4.46003373530178137684743,1.29247019127430240459375,1127.5948830660306612117,1122.50979735579471707752,1112.17314810012430825736,1125.66537423593240418995,436.766604565637180712656,200.652559977702082960604,103.301500334648537204885,-308.558979277001753871446,162.651329688252531013859
7.02000000000000046185278,-0.433066816680637733938397,0.0407553457740653449214996,-0.192901773107022361797291,0.0453585023679114462957784,0.0270350062885618552810385,0.00492373618474114659732122,-0.00297934130766280402119461,0.00173075307342933338260182,-0.126068031761419091507648,-0.992015506720403283935639,0.0388106016287925389973701,0.0174080139570213093813678,9.77382432932423661497978,-0.0178736073573783210699517,0.0278230629742322703445989,-0.00334472870118864397739888,1.39670370346330763311471,4.4600853862128415627808,1.29246576130788870528932,1128.58214890500244109717,1122.8086414989295462874,1112.5679105487211018044,1124.80976814386281148472,329.824995301812805337249,29.0021395530863443923408,236.051757082218983896382,-363.784166339254170452477,162.649573226529440717059
7.02249999999999996447286,-0.68671428428609693206397,0.0719324706814066933135976,-0.290885208598344047192796,0.0422757178316710419130331,0.027046637089027290856702,0.00377102488288240172628618,-0.00302598276239212900587394,0.00166775482390261109086338,-0.126062791138547264369052,-0.992016132728514077321336,0.0394685631517855892158586,0.0168508175943810206698359,9.77214502171831078669584,-0.0176772308921134720105517,0.0278301837947688597563189,-0.00350826973919059117296149,1.39663755660570298999801,4.46013718501032130347994,1.29245893799171995830477,1129.24400804253968999546,1122.65480805356014570862,1113.35340688553537802363,1123.84645340423617199122,215.724890305868996165373,-146.595452617796979666309,437.652429671707295710803,-414.459658688028582673724,162.647745297175049472571
7.02500000000000035527137,-0.849766868027246435879363,0.129542999306098777223539,-0.371368545592282717215937,0.0376431597216311808473677,0.0271997968357061414845788,0.00212641606714854877052678,-0.00306703614793711956676425,0.00159765450491737635678458,-0.126058784229952730582269,-0.992016624343404984642802,0.0396763790933336371602458,0.0161799206543088991416823,9.77079178938492809436411,-0.0174630063546960360987281,0.0278393952498643369730669,-0.00367463435718083783129706,1.39657317629056842989144,4.46018926257903913779046,1.29244892469044270200129,1129.66077335653176305641,1122.07566423584057702101,1114.75617269707959167135,1122.737469850422712625,100.338776549781286462348,-251.66408079417661269872,579.743724710727860838233,-372.647320879931385206874,162.645473476701738491101
7.02749999999999985789145,-0.859628693874246452288901,0.202005433458406269409124,-0.401522799374957439777489,0.0338677454633653993165687,0.0274796049056293401058326,0.000812177457416376666864133,-0.00310152982464308342447357,0.00152190478747275381027348,-0.126055094172940890251411,-0.992017099124002932342137,0.0394207638361246601177434,0.0153601865292901512694002,9.76977949049739535780645,-0.0172344807479303148423089,0.0278506107948948145036638,-0.00383861397548156775202943,1.3965103274602521654657,4.46024198763080814700288,1.29243527551249215434837,1129.74570192528858569858,1121.39648764958928950364,1116.2521255090889553685,1121.98321679983655485557,-0.835123799652155440753631,-278.155312113091440551216,637.975486028258274018299,-242.113813276506050442549,162.643518364666732622936
7.03000000000000024868996,-0.760210494804754333131314,0.307146545513732049936806,-0.394370071383770504080957,0.0309149412270173923333871,0.0277580328313597572698068,-0.000332152810699201672412634,-0.00313047312404767137661299,0.00144331625305033376879815,-0.126051659723073250507497,-0.992017559090074496630507,0.038729720937945986969364,0.0143931468650646474105592,9.7691127086221936082211,-0.0169959305960431066029326,0.0278633043531167703954488,-0.00399549542673943713921858,1.39644918031866871466207,4.46029599141266075434942,1.29241814147794364942001,1129.65659773753350236802,1120.68488767527514937683,1117.94605012722081482934,1121.52690078404020823655,-55.3038729120556098450834,-285.179995419918384413904,743.656254603563297678193,-119.331010737871835658552,162.641503156783329586688
7.03249999999999975131004,-0.568456451612228019776296,0.474795230658662081868471,-0.350076926103168095671947,0.0289772797821522959393903,0.0282031222482315435673428,-0.00152456415096260109766357,-0.00315786442788329414430026,0.00136737565509217136490439,-0.126047036182926258662818,-0.992018169453363962695391,0.0377018964857002633617178,0.0133345535303259626891403,9.76878652003386171998045,-0.0167523052372595057657456,0.0278764893173775590851093,-0.00414153273083480832211789,1.39639003543165829412942,4.46035113944020800147428,1.29239918098814787761341,1129.46918256072831354686,1119.9705876724897279928,1119.97040678210669284454,1121.386561746147208396,-68.3580053043457240846692,-219.249909165687427048397,701.505120004382206388982,13.9767045711781321415401,162.639020501587992839632
7.03500000000000014210855,-0.394899307923059883496109,0.645471453210810897083149,-0.290887308085073514885011,0.028741822970746570137246,0.0288585330515428555020474,-0.00233607804444622415770971,-0.00318948359518517708666163,0.00130234811751636430851575,-0.126043322399957108403967,-0.99201863456761218973412,0.0365067212158691686840761,0.0122707268267964464403263,9.76878833264726864626937,-0.0165087075263865810936803,0.0278889846227687483726232,-0.00427423051224172859119399,1.39633411499472970263014,4.46040745742050326327899,1.29237992039138194222403,1129.31480771101178106619,1119.58863812944673554739,1121.45357572724265082798,1121.59678430689609740512,-53.6612709108710745908866,-94.3111063147933208483664,505.797496604202990511112,138.052396638182727883759,162.636901633081180307272
7.03750000000000053290705,-0.254808671358880522994639,0.833822305205804692462834,-0.218589294251901822274675,0.0293966212882457722521679,0.0300103523789301447621813,-0.00284547455495618188334173,-0.00322783926059256893320581,0.00124897738535829807941802,-0.126043451998100963784566,-0.992018571039409158274225,0.0351724645596926330237686,0.0112471557551656400897322,9.76910240131994100920565,-0.0162701044381840173591591,0.0278994169813597120421989,-0.00439261971299322213913019,1.39628191918992361486573,4.46046508842395894589572,1.29236122653049090303057,1129.20087620617391621636,1119.49903214091568770527,1122.49939426512810314307,1122.0768237293382298958,-45.1706735736943869596871,34.3436195375950816810473,317.834472406600468730176,250.406761365416855369403,162.634735107975501477995
7.04000000000000003552714,-0.156018285135190337697964,1.04993074262076735436722,-0.127720805793375247194632,0.0303785117585798104811179,0.0322932796704208172067219,-0.00324910312143033685322591,-0.00327149052765268169226665,0.00120197075567998290339389,-0.126046960588319462148732,-0.992018046968108468952607,0.0336127853680958724180705,0.0102528943279063325388911,9.76971163110402507356866,-0.0160411178554825603614908,0.0279061394667702092342587,-0.00449708803101004847557753,1.39623236279012363780794,4.46052336873854482490742,1.29234360912931700582362,1129.08895434314331396308,1119.7603562271347072965,1123.04274808927561934979,1122.84881811372315496556,-47.7480619113986151091922,156.276050372983860370368,62.5771165284290589170269,299.354538334507196850609,162.632084876788923111235
7.04250000000000042632564,-0.134638849851509978527986,1.1927181175906300669709,-0.0554056178242334773642597,0.0308359277074326636192136,0.0351586810043406847170466,-0.00347503184016011807885849,-0.0033170718209552833496967,0.00115662666595109527543916,-0.126052746159206641163308,-0.99201721799774456034271,0.0317593002443638042220364,0.00924328143006540592363507,9.77059808701347520809577,-0.0158255258897110548388376,0.0279073407083843712250815,-0.00458904715945813741068138,1.39618381435599991924335,4.46058183755425297079,1.29232757434373657368099,1128.96213589661692822119,1120.28041239278059038043,1122.81227984777024175855,1123.57359642101073404774,-75.3508601152150419011377,263.990872518030471383099,-237.743035329054293924855,293.47324037649457295629,162.629837641708462570023
7.04499999999999992894573,-0.162644130821700816369457,1.26102409530415959793004,0.00594598297259074648479782,0.0307116046142055371115376,0.0389672019034303443452139,-0.00336477747690998611404534,-0.00335930153021677183056148,0.00110792866962283243804921,-0.126060924155858761208648,-0.992016092968865059731343,0.0295425793864898186824597,0.00814204552751338767047073,9.77174490573015930294787,-0.0156259447057292451266353,0.0279011092192665878519708,-0.00467071880528976968172117,1.39613513993204430008177,4.46064094611312444982332,1.29231396600757975079432,1128.71220004256724678271,1121.08031058972483151592,1121.85403291263037317549,1124.31618431560559656646,-133.665792050763343468134,357.074046286932912153134,-492.033717496643987487914,297.155036859891822587088,162.627554006927709906449
7.04750000000000031974423,-0.214340150598241935275823,1.2470997102816727686303,0.0535863167038701793121191,0.0302325241020149175497078,0.04305469675047860628192,-0.00291109080767256367047735,-0.00339425582401368204285563,0.00105142461322603052338576,-0.126071133443035943155763,-0.992014737317369887925622,0.0269152841259616762425999,0.00690260825480417533617228,9.77313711948774965776465,-0.0154439198023230972456332,0.0278854096391087415141019,-0.00474492759256475889195759,1.39608567336343591946957,4.46070159033783397717343,1.29230295864211397471877,1128.29380693636312571471,1122.0657826242152168561,1120.35211126028707440128,1125.05937160531016161258,-220.136257904100745008691,421.739561004833262813918,-699.34637209882237129932,302.656944938514300247334,162.625242905843975904645
7.04999999999999982236432,-0.272194253714240386177181,1.12391171646701670816526,0.0832657537338678810368009,0.0294533624948082467520649,0.0466450815405828056459114,-0.00233453108936752893459721,-0.00342169020184612078169795,0.000986635654790223807358851,-0.12608328089604950439373,-0.99201316590809418549668,0.0239219244031038599795913,0.00554404432891263121430114,9.77476177251620548247502,-0.0152800204273490329576202,0.0278582644286769348651589,-0.00481469086358179195611617,1.39603468059896784758678,4.46076352041638735101969,1.29229413750398181015555,1127.61151875304676650558,1123.18900839474895292369,1118.35730105213633578387,1125.82946904029813595116,-367.753780420897442127171,495.605501349256542198418,-929.959927801493677179678,357.379813130054003522673,162.622901857285370397221
7.05250000000000021316282,-0.322343603681139123651178,0.854411191272769987570257,0.104015182992531582395479,0.02831292806621314023241,0.0499558896811333127963017,-0.00194839559066505691418969,-0.00344579314107486180812634,0.000918060362171201505693263,-0.126097556231951984928585,-0.992011335887079348516693,0.02071808505530068483802,0.00416242265877508899052373,9.77660822125455908349068,-0.0151340367179524787344391,0.0278179912033809269289453,-0.00488284315168274144630667,1.39598230398982892097592,4.46082611357687675024408,1.29228646450292239400426,1126.45503803425867772603,1124.54381013096144670271,1115.70231162127970492293,1126.8462706709603935451,-476.66422805065047896278,471.219079723060588094086,-963.010428105346932170505,395.34629097116453522176,162.620062010553283471381
7.05499999999999971578291,-0.331902633655572099069531,0.539829060250550107902257,0.116744214149498759525159,0.027294372409801564982601,0.0519379431532723465081425,-0.00198635623039079963966791,-0.00346955091727784228905485,0.000848362760995780354478235,-0.126113855087784665354178,-0.992009247226592449919735,0.0174223413190368950353992,0.00283730990893539536390477,9.7786697970080318498276,-0.015005169955417336016823,0.0277634418931445026146321,-0.00495172669817081113896595,1.39592919901210432698235,4.46088918987631544155192,1.29227878249230654361668,1125.22819761279356498562,1125.54510379336420555774,1113.54224891160970400961,1127.80620049515391656314,-531.093944266115158825414,342.457870513733723782934,-788.76083900633466328145,407.25746224985374510652,162.617673049914316152353
7.05750000000000010658141,-0.292773741185336611181356,0.150841098059856293378544,0.132318290282253114842348,0.0262063257240642798195918,0.0532209288008416089854613,-0.00225056258095882814190825,-0.00349600051419884710543484,0.000782877914529685019207061,-0.126130515254790798174156,-0.992007095669311333985263,0.0142047486503896550069648,0.00164376508562071033114904,9.78094234784085614364812,-0.0148923353352553525935642,0.0276941088433550093583779,-0.00502296032076738306615393,1.39587584482896143178721,4.46095257786919940912185,1.29227099973266090771062,1123.79956831292815877532,1126.25609948353007894184,1111.75850742624811573478,1128.88255798220961878542,-650.118082942379487576545,219.451931093783315418477,-640.48333105455628810887,488.071261631572383521416,162.615264786396693352799
7.06000000000000049737992,-0.178133246657380117650149,-0.371711858004514450470879,0.154049991210342213099338,0.0247840060105875073515058,0.0537703434402040658657285,-0.00231660687312107600732691,-0.00352666170716575688715011,0.000726760714778929201897173,-0.126145940903249043074652,-0.992005074719498725066558,0.0112259382020368433940938,0.000627210816320923625344363,9.78342381573304287201154,-0.0147941582332837169577733,0.0276102827524544146287067,-0.00509742207902623336440717,1.39582240896058795698309,4.46101558624957750254225,1.29226392633839837209564,1121.97760719808115936758,1126.64236344883329365985,1110.33983225633642177854,1130.24655680331215990009,-665.575521228780075944087,57.2122210711325749343814,-380.535175340454713932559,497.890596979652116260695,162.612357583731409249594
7.0625,-0.0246320591159657591162624,-0.823067962432528221761174,0.167685250221555531835449,0.0237444678574496061129739,0.0529207069706067387282467,-0.00172858003758914378043821,-0.0035592260194795876174223,0.000679310751629306997997904,-0.126158920556298875803591,-0.99200334653255584083098,0.0085196347594303431516316,-0.000229014076441602654199414,9.78611381134144586724233,-0.0147089717328852502553627,0.0275130989857579368040863,-0.00517525617081376031192175,1.39576911998462738218052,4.46107732282408431245813,1.29225790016280206451427,1120.47169070678432944987,1126.54216058888573570584,1109.85583154954588280816,1131.37201096710782621813,-576.554025383041789609706,-117.215623745599032190512,-59.3184850339652172124261,430.796443216750162719109,162.60992446778234921112
7.0650000000000003907985,0.179289184199719120460514,-1.24422245182673618657532,0.166599573183016491650932,0.0233739852421745546162679,0.0500632383520675725008253,-0.000675853492250669501788252,-0.00359043181280685594000679,0.000633776715278937924878677,-0.126168615288604429869324,-0.992002032771751918183156,0.00599442372783937776903329,-0.000948852725218968240383788,9.78901166019524637817995,-0.0146348806875291215928714,0.0274044199686418986361414,-0.00525588318910242668219324,1.39571600971660148005071,4.46113735877988126787841,1.29225176161390153950492,1119.09483707116601181042,1126.05628533010531100444,1110.04323983116660201631,1132.40053901939586467051,-553.301796662947708682623,-268.744799525808332418819,187.479826462826537181172,416.935035943206230513169,162.607485584107877230053
7.06749999999999989341859,0.45685014785229671741007,-1.65896530821147147882755,0.145481335882028578465608,0.0239206811146320912075947,0.0444882111684872794121759,0.000314861949243218255771459,-0.00362059634952285446657383,0.000586200492243485059458419,-0.126173051700313454404068,-0.992001384074528536061166,0.00361543919454806322866247,-0.001498455875562618166974,9.79211325341607441430369,-0.0145700015619969758251528,0.0272865721550223337688035,-0.00533782425041195648929282,1.39566334428175786719351,4.46119553939577784262838,1.29224443574933767209245,1117.70518172346965002362,1125.19843659125672274968,1110.79323068185999545676,1133.45668614682381303282,-453.4391471621444225093,-325.52639525725464864081,312.092340990973127645702,353.570476006060118834284,162.604558604545246680573
7.07000000000000028421709,0.690891224958896987828894,-1.89915060002961699758828,0.11709576560683065959978,0.0250690052246445270467401,0.0386342520909037090426352,0.000634104125871152936484709,-0.00365239483135498159763199,0.000535095429401163252824958,-0.126170444739379494780707,-0.992001617340681374201949,0.00139430308028604815762108,-0.00181020462572595297601197,9.79540986917831091318476,-0.0145124301840133980434633,0.0271621646918668198378288,-0.00541872153403285920780785,1.39561153389412329062225,4.46125220878706585381224,1.29223468781250749870537,1116.82764133535533801478,1124.42865335381907243573,1111.60370153612143440114,1134.16839139942612746381,-284.325250379066972072906,-275.740322008738473869016,304.8225781761240114065,249.168049784389808110063,162.602124134497927343546
7.07249999999999978683718,0.894382400535324473267451,-2.01779971043475647718424,0.0881687680525531508601844,0.0269158788667769703628618,0.032502770407775348482371,0.000599789093375441154445959,-0.00368640830260997306305759,0.000479430647875172329282212,-0.126160993814291716441645,-0.992002704830749149067515,-0.000661640091440013344836757,-0.00186508658154552198205067,9.79888766732899085809549,-0.0144601075660831628055814,0.0270339664807893037545838,-0.00549542552465790735960471,1.39556086649619248696297,4.46130855130594117241571,1.29222228057641075338324,1116.28355547157434557448,1123.81973498121305965469,1112.31734357274058311305,1134.70252639574573549908,-161.03423724480651912927,-190.140876680974969303861,239.870289413789237187302,184.440420893501425325667,162.599700752345142973354
7.07500000000000017763568,1.04584754365176091361889,-2.04605019207214100518399,0.0652785338205179588300098,0.0295481726085397404524269,0.0266597336819698917109722,0.00044532037575681403598904,-0.00372402493942467979759492,0.000421515070237751452147251,-0.126146282789487640396686,-0.992004438302125923776487,-0.00248648661713949531426593,-0.00164373501671939703516756,9.80252628684063687103389,-0.014410816023993607351561,0.0269047290548910869589783,-0.0055643817900717772867436,1.39551052769276417997446,4.46136454068964116714824,1.29220781736731527011841,1116.02247014913132261427,1123.47794897041421791073,1112.80305298319035500754,1135.09059350389361497946,-39.8476633387355363424831,-54.4700088214909925454776,129.818322897315454156342,119.080278697110344410248,162.597291234420907812819
7.07750000000000056843419,1.10462257351966375296115,-1.99630231116263745505535,0.0528760580731127902143207,0.0333703112949896851802123,0.0215156447122251924530811,0.000283772579867350486192146,-0.00376731242997309714870546,0.00036325971619226521489715,-0.126129396177083769048366,-0.992006417564848530510346,-0.00402886622211204997734413,-0.00111965243247940521298389,9.80629891765256900271197,-0.0143620776711619237836493,0.0267771356240755417643662,-0.00562208645046886369700534,1.39545978665047343270089,4.46141977383108034871384,1.29219187384312439448308,1116.08431715488063673547,1123.54738493710556213045,1112.96643518722726184933,1135.29792778923138030223,93.2455207379936723555147,126.276213693384264047381,18.6198238103774542651081,46.3310572216879208440332,162.594903750804718356449
7.08000000000000007105427,1.04590712463910895380081,-1.89827735031739619486757,0.0480417212240321425675837,0.0388353529690709242672142,0.0166473962888533562332061,0.000191162229513209202483998,-0.00381674949866843719534226,0.000306789257257642725834623,-0.126114140034441574167445,-0.992008158223692038113484,-0.00524558576317230018659643,-0.000304444346313187397257138,9.81017251757269548306795,-0.0143112399833945375809963,0.0266537659388671431537343,-0.00566520353050755862134302,1.39540854641907285937918,4.46147407379575700048235,1.29217494831903390029026,1116.48869775282128102845,1124.10933003888112580171,1112.89615210224224028934,1135.32224879000204964541,196.346866820071767278932,271.646779500957904929237,-37.8438435589040551576545,-31.7440161588372049550344,162.592070613852968108404
7.08250000000000046185278,0.895960765883091370120894,-1.82057864946590708399299,0.0473556788049162638576384,0.0429594872725202678309664,0.013668616458886043499299,0.000245268878310889442296433,-0.00387314330892969639272283,0.000255365785060898524156531,-0.126101925374727558137877,-0.992009480632114137854671,-0.00607855741106838598497575,0.000788097135103901780261992,9.81410810990924353802711,-0.0142557695616906936891821,0.0265369216414637100476259,-0.0056908058004655646608394,1.39535664696549122076874,4.46152692664171013348096,1.29215710949368256521552,1117.06605148898097468191,1124.90561883461032266496,1112.77721596943274562364,1135.13920770843719765253,273.809966917002782338386,358.193720299467145196104,-16.8267903190557213122247,-119.126942607911402660648,162.589740499432394926771
7.08499999999999996447286,0.680631011722811374298203,-1.7725716792479102590363,0.0420132965544621761466715,0.0452098358734729158237009,0.0109871476098498607743004,0.000462684572007004361188232,-0.00393962826482527946753143,0.000215069781389418145968462,-0.126094898552054773821496,-0.992010103570910573012043,-0.00641642926689638126713788,0.00217738407754251850345639,9.81806142624425959297696,-0.0141932495939171600396467,0.0264285868093519886456999,-0.00569655687342318032412303,1.3953045217940749367358,4.46157834963709998277182,1.29213810976637244465337,1117.85774758740626566578,1125.9002986403784234426,1112.8120181506469634769,1134.72661407696250535082,392.503301331688987829693,446.153659759293475417508,87.9339130665831021360646,-235.703266454361738624357,162.587447110900001234768
7.08750000000000035527137,0.414971173661173364788368,-1.74685783963784135863762,0.0213772489246037318555427,0.0454990680223309185148395,0.00707160725234615844536634,0.000895655368790099237243096,-0.00402287693442845723651446,0.00019619429695619957873011,-0.126094486220457491221225,-0.992009819593524855285693,-0.0060634217909489238063081,0.00393758650191164405462985,9.8219839677149636258946,-0.0141216075853099927439604,0.0263302297054263216569137,-0.00568087083439211982388573,1.39525252448113445957745,4.46162887791509632506859,1.29211835028999399987981,1119.02856799563937784114,1127.13638713340674257779,1113.21688553476565175515,1133.96069137616541411262,464.579947424373017383914,436.82692640751179169456,218.626761481214202831325,-322.475155770014282552438,162.584742483606817131658
7.08999999999999985789145,0.232522189156024072786977,-1.73247717153620217622745,-0.0113339639828398397458642,0.0442434000155154036337812,0.00303444916544442838332585,0.00133035694101214037494973,-0.00412052096765475831668946,0.000201332178601445159612723,-0.126097003124868684009741,-0.992009101205746479656966,-0.00500149343060954376660732,0.00598387891262724957996966,9.82582699948549276314225,-0.0140392825890954184298032,0.0262426704726676646162176,-0.00564285157742839237060561,1.3952001806762062141587,4.46167836496186076544745,1.2920984908485231290598,1120.18064732452808129892,1128.08443327241593578947,1113.90515195805301118526,1133.11423829811246832833,499.526712200633198790456,343.855790557070633894909,336.179738034486831566028,-371.032669885752227401099,162.582531472631785618432
7.09250000000000024868996,0.117889150227187863850808,-1.69357746033735057089586,-0.0586218138185694848107943,0.0426315785458303841970462,-0.00168529251657771324095225,0.0016405120801907045573198,-0.00422517155576071154476914,0.000227389446155797921933842,-0.126099938632942248917246,-0.992008293230982829413733,-0.00334011303723583813374276,0.00814651984158873410102331,9.82954293732491635182669,-0.0139450095311456963992347,0.0261661129026030184197005,-0.00558248737215637572117721,1.39514707385594771693604,4.46172714426960315137194,1.29207952455454488926989,1121.5262015566424906865,1128.85566608619205908326,1114.89778422493805010163,1132.10552802673669248179,643.194630687653557288286,290.366635029665133060917,470.02538295342765195528,-461.669337393378384604148,162.580368488515603075939
7.09499999999999975131004,0.0479175947301404420164417,-1.58721632766081177656758,-0.121908910310538090571164,0.0416918868208697585009403,-0.00764912627599403319861304,0.00154322781770493445974157,-0.00432779629987489929121569,0.000267589658367221676880943,-0.126102172362569847630098,-0.992007574132432679014926,-0.00126752664747912385800888,0.0102332270361208121922658,9.83308691140060275870383,-0.0138379779420375794568576,0.0261000430255534029977404,-0.00550069754884072604356193,1.39509347553660112417617,4.46177595630180690022826,1.29206194759569559238344,1123.39662047796628030483,1129.53626644756423047511,1116.25527887282009942282,1130.80589161114562557486,732.187291531742744155054,209.444643888586966795629,491.874495815829050116008,-475.111680321616518085648,162.577831843339993156405
7.09750000000000014210855,0.0170374598459339283984537,-1.43801048992755742261807,-0.168840226183703395745894,0.0419285230298982250496387,-0.0123162780755701143503567,0.00108198443378274065766742,-0.00442070025292114199277904,0.000315789387496893210124926,-0.126102828994649446281429,-0.992007088335747355678507,0.00104231636105141245440819,0.012078332681968284578744,9.83641797703342923853143,-0.0137180819382280317492162,0.0260431669293557273292539,-0.00539917617633583861447288,1.39503992447870306392588,4.46182511126898795339457,1.2920462466979756310792,1125.18713801430112653179,1129.9028893056349716062,1117.35715670401714305626,1129.72996962512866048201,760.725305057184641555068,109.941320908575207226932,398.682411779265294171637,-411.097145959756119282247,162.575768956412133547929
7.10000000000000053290705,-0.0265115147684258645188748,-1.23058362675040267042448,-0.196236668817860226976535,0.042849974745446106627611,-0.0160094385078132159239139,0.000415649848060603707092936,-0.00449945538390580501014737,0.000369054989305295081704339,-0.126102867497554033127116,-0.992006734247062871290268,0.00348654628099172997357513,0.013575390229681447151755,9.83950027650248770783037,-0.0135859293013921283294065,0.0259934954688453602467124,-0.00528017741156227172344417,1.39498734730698537020999,4.46187512586684231763456,1.29203260320439405894888,1127.20024700325279809476,1130.08597305210719241586,1118.24869093171673739562,1128.75040588134652352892,829.290777994510222015379,47.2545748442836242020348,304.142271837788143784564,-365.34397040005256940276,162.573760465245470641094
7.10250000000000003552714,-0.105066932608793725534291,-0.98862344236990384871433,-0.199404219147806233136677,0.0439500264919999786283888,-0.0186410024089043550865608,-0.000358335827115007388588702,-0.0045617509858293736960122,0.000424792351665666213442196,-0.12610442417701384076878,-0.99200625280399856720237,0.005976121328116680564424,0.0146632035550649103550214,9.84230484783108927615558,-0.0134427848749428535679584,0.0259484425799355634956189,-0.00514630357914314107148357,1.39493644054279264388185,4.46192744461364121377756,1.29202048345655717831448,1129.33359190427358953457,1130.13916217985638468235,1118.87786806320605137444,1127.90324977312843657273,853.137403444879964808933,-6.06548784212476910226997,182.071564291986106809418,-298.267639927332311344799,162.571797625660650510326
7.10500000000000042632564,-0.238977661684025455279823,-0.725341919801182233307202,-0.167700529290751298994167,0.0446121853002212492844691,-0.0201415819744371685229289,-0.00123583193625020773889767,-0.00460682589774212992300706,0.000475466789116004058275006,-0.126104704197508410423723,-0.992006006099588999447292,0.00833251802412163927735733,0.0153294897236121718808732,9.84481147057502603558987,-0.0132906477396301167526182,0.0259048704038740765231985,-0.00500043532183564592985547,1.39488667081521100499231,4.4619822691574828610328,1.29200880408379914499051,1131.46593402047710696934,1130.05564561289656921872,1119.15904875317664846079,1127.25906768170989380451,888.775470930587175644177,-66.658959918960647428321,52.9671327429252798424386,-231.044863699758394659511,162.569889823680966856045
7.10749999999999992894573,-0.457968202403559954127843,-0.404894160178466633315253,-0.0894773295743925833889421,0.0446075273899100427366093,-0.0210500973305804799096119,-0.0023052703478076805483632,-0.00463581388067747617032222,0.000513448203209553900860929,-0.126100503797321406018739,-0.99200640045897336971592,0.01038430402889783249476,0.0156056283908532350546139,9.8470089521081245464984,-0.0131318349735889770141251,0.0258595348089373823496917,-0.00484548898471119648956318,1.39483766044810564288525,4.4620394529956382001501,1.29199672080564686993398,1133.77746925892643048428,1129.80586738026158855064,1119.14270372692067212483,1126.74802545462966918421,769.420049262969769188203,-117.071440696966192263062,-48.2623642790268903013384,-143.914806862997807002102,162.567663231644189636427
7.11000000000000031974423,-0.67150792349005039572063,-0.140949604860783117565859,0.00188501997525646991342441,0.0438842821656849832456793,-0.0213550204284401086429757,-0.00298788336060814771477645,-0.00465322635425782608897816,0.00053485926923704178292257,-0.126091695889104765671007,-0.992007434032745605279047,0.0120468910410639271080235,0.0155856723739997218847186,9.84889497638307176430317,-0.0129686559615948670404206,0.0258095149930540751492813,-0.00468441309706954783081967,1.39478913793043202140609,4.4620988058088881800245,1.29198378372318312123923,1135.31303426679187396076,1129.47028840941175076296,1118.91773693178151916072,1126.53949364739492011722,497.467480795932431192341,-160.41482573332700667379,-107.78670720251514580923,-41.8531107504813775221919,162.565858821253272026297
7.11249999999999982236432,-0.884647262485945828913714,0.119744912324289604077521,0.10216126571588485250075,0.0420028950441017068229144,-0.0214086424561624258378068,-0.00302396004827979250628722,-0.0046631786260054952988896,0.000539502737774736132458919,-0.126080845373962302513604,-0.99200876338944232735173,0.013312233766003316037807,0.0153523882427005417539156,9.85047680128624847384344,-0.0128032977960396351924111,0.0257525635025779783826572,-0.00452015627596029714863057,1.39474118458342499771163,4.46215953223511352376818,1.29197080161808908194132,1136.26480666290603949165,1129.0037932515949705703,1118.60377019090810790658,1126.53875990087726677302,260.909832821340501141094,-229.948898238540436977928,-126.997717655379318557607,42.9446663827102455002205,162.564105269238524442699
7.11500000000000021316282,-1.09598177655327289059528,0.432073326378535571556938,0.204013332035006600406746,0.0384981509863751431010925,-0.0212119289269385967455772,-0.00214240347062710952130704,-0.00466956069208270940079641,0.000528074536619513811540327,-0.126070495208574856471628,-0.992010049768038082440569,0.0141948225025953431166492,0.0149870388317420305535066,9.85177157090810418083038,-0.0126378497079546944781292,0.025687274774610000666053,-0.0043558824223922116419816,1.39469408650500814594864,4.46222011246208705159688,1.29195908281917803961392,1136.61758343089854861319,1128.32054391821907302074,1118.28274834350463606825,1126.75421697930846676172,-4.95496844555429216683251,-262.454645579378961883776,-88.5215797312885825931517,112.823547121208903831757,162.562056416822940718703
7.11749999999999971578291,-1.20701900159562192094143,0.690386028240856930437985,0.253923029899131791342626,0.0350312598272866093651601,-0.0206959788656217481828126,-0.000876225330557253777145899,-0.00467529218144349060365395,0.00050176700006415459603959,-0.126062426544842343112407,-0.99201105622331375855083,0.0147217702370515193810441,0.0145548762915290730290963,9.85280613580860453737387,-0.0124742651494105308285221,0.0256131524821913841849508,-0.00419492368133479644892736,1.39464828456014688917719,4.46227924693445476833631,1.29194909111461941897403,1136.24003182067826855928,1127.69152002369810361415,1118.16116229225167444383,1127.10287763648329928401,-278.499847230074465187499,-249.62265920717604217316,-3.24207749931708910651196,173.340741855103317448084,162.560392170605268802319
7.12000000000000010658141,-1.22794288637289139565212,0.933952182284265686185165,0.253436855214622225318521,0.0313758583750839079029582,-0.0194958792111149942227755,0.000556884410731996811090572,-0.00468273743649209612388562,0.000467707216827678573523031,-0.126058021816342208376582,-0.992011594387145478890488,0.0150395694047991621000726,0.0140985588287874941126887,9.8536155501118738442301,-0.0123143065984230547227352,0.0255304991221474153473281,-0.00404047011845045864197878,1.39460455967971075352807,4.46233658090530749262825,1.29194161877899782453483,1135.22508419474820584583,1127.07243062218321938417,1118.2665379560080509691,1127.62092068858396487485,-564.990172994296585784468,-252.226234943197283655536,102.694996491556906903497,264.369908190387434387958,162.558768389468326631686
7.12250000000000049737992,-1.13828414348326623084517,1.17804803829702908757326,0.194579897146483049574783,0.027092255643900511885569,-0.016802483549750224511854,0.00212186095965618886846626,-0.00469097062544038267972724,0.000432488183511163212010414,-0.126055841582001254552736,-0.992011848963683884328191,0.0152799448795880518647827,0.0135999579550634269731191,9.85424319418882710408525,-0.0121594836804256849899231,0.0254401062156573154471317,-0.00389538266061614790736201,1.3945628387399089387344,4.46239200658371615304532,1.29193664932670948530813,1133.41508095570634395699,1126.43038884898192009132,1118.67463727470953926968,1128.42472717743544308178,-734.131266588717380727758,-207.438456641379957545723,191.73459566268729759031,318.990090227277960366337,162.556860802646781394287
7.125,-0.970573545406607784968855,1.31114559654670603805471,0.108170800446461726207481,0.0238286912627320296431677,-0.0132651149908885480216414,0.00298220817653272211519844,-0.00470172983217950670592478,0.000404367825148907195781378,-0.126055056280172800287076,-0.99201191299800939304987,0.0156165946772017158461487,0.013089636049839967202324,9.8547382216336920635058,-0.0120107425333173985226853,0.0253429884059602310297787,-0.0037620936060025339520152,1.39452219848466807405885,4.46244615292461510591693,1.29193355866718451174791,1131.55442786180469738611,1126.03523833897634176537,1119.22521093432146699342,1129.21587113972032057063,-777.895756629430479733855,-120.380406463075658507478,252.719637250907851466764,326.64053736680909878487,162.55530046922731912673
7.1275000000000003907985,-0.72160017180838642580909,1.33782970066743800430231,0.00676085795148695725687027,0.02125766237583370799058,-0.00852316475373402111792576,0.00304756508862117974842376,-0.00471740077342006416949438,0.000385607146279692023036617,-0.126054603699779860237484,-0.992011907524387392953713,0.0161091159373206935234712,0.0126257445512632168749256,9.85515499824124852068508,-0.0118683464316291006207527,0.0252401285548434772820769,-0.00364246513490126865367214,1.39448183780890810901099,4.46250026171002911468122,1.29193139243956145456593,1129.52560217255927454971,1125.82848681666655465961,1119.93823546096405152639,1130.05792986426945390122,-806.997240140589269685734,-49.7592968954005883119862,301.223271805526621847093,328.414517258768398733082,162.553764197599889484991
7.12999999999999989341859,-0.424852583431756081200348,1.26405253979964693478166,-0.0862705538533389271194096,0.0194519169953749140877797,-0.00349222174761731896097672,0.00250452199598918219189403,-0.00473698164215099332130521,0.00037492176844155437713535,-0.126051179668520474397297,-0.992012255665725373177111,0.0167395815868441252827203,0.0122086432830811955629891,9.85555108804634372177134,-0.0117319793295241059372103,0.0251323648664784141115724,-0.00353735421431456559249185,1.39444107576290909911165,4.46255412413783147940194,1.29192910425243745464741,1127.51944166110183687124,1125.78644185449934411736,1120.73132729334906798613,1130.85794372601412760559,-757.03493528418925961887,18.7007269326390428432205,319.81353420024561273749,286.026289428088318800292,162.55224264417597623833
7.13250000000000028421709,-0.10159834107421214510758,1.08050018189355512276961,-0.147910275556345532921299,0.0186561040308681445887284,0.000569978377862909862949792,0.00160672733173772806780644,-0.00475959464523154074377942,0.000370774783302697265828518,-0.126044562461921277884969,-0.992012988852513544202338,0.0174844693042426821416591,0.0118401386770472863418924,9.85598401142489777271294,-0.0116005686925960017213955,0.0250204942826427016722146,-0.00344665282920358397034111,1.39439992775531651503229,4.46260747102452448586973,1.29192649359634303962707,1125.74042749613840896927,1125.9219904513297478843,1121.53730313196524548403,1131.48806131140986508399,-683.585548884790114243515,89.3288159693857721777022,330.094731969081976785674,210.351440970866804036632,162.55073196679930447317
7.13499999999999978683718,0.27128502726324499327859,0.778190567328797100365989,-0.16876870374225197424245,0.0190442823979622213870222,0.003237504589016078956204,0.000486363114510784716633396,-0.00478511404781511648365289,0.000373513878819997093786581,-0.126035925678622456880262,-0.992013957840073068439324,0.018356867754081983290515,0.0115303017251570175116804,9.85650845761400162814425,-0.0114725044866884080124736,0.0249052281149536730575633,-0.00336931146135388201456884,1.39435852436450979929816,4.46266037270176951778922,1.2919239748868049932895,1124.1015139166779590596,1126.23308593434626345697,1122.38180095319444262714,1131.90970093086843917263,-493.084759286977316605771,128.866440735239876858031,265.678280868229421685101,86.7599221621294702799787,162.548922763517339262762
7.13750000000000017763568,0.535584509890064119908004,0.499467933044802692155173,-0.137770788181525466464805,0.0205901262865658025991156,0.003733376442689388674534,-0.000383738058814270515534117,-0.004813202993981325998607,0.000380917747189455583711054,-0.126024509373537096923457,-0.992015261886424748460911,0.0193160539310983439542646,0.0112899099522304688369978,9.85717471068463346739463,-0.01134589894431042682299,0.0247871033789439608463478,-0.00330347528950151059917717,1.39431656177917817629464,4.46271271697238880449277,1.2919215225576485828185,1123.27500369970357496641,1126.56632265500593348406,1122.86569453630636417074,1131.92186092222050319833,-205.929148246982180125997,138.407803551195883073888,120.58717350821942204675,-64.1750230011338942404109,162.547412200856882691369
7.14000000000000056843419,0.71733710852850429695593,0.233376958449880600454662,-0.0604165770679247551844249,0.023074056211735062549284,0.00321823420421945465344504,-0.00114479842041138066104089,-0.00484369577077097338002609,0.000386322673958106803208945,-0.126009564614517372005409,-0.992017000515827085393994,0.0202311709400935027525215,0.0111421415918843483283673,9.8580267732567996574744,-0.0112186145326332430832705,0.0246665127824372588938306,-0.00324657957605679111517949,1.39427371359652818583186,4.46276463516263088848746,1.29191881652953100001469,1123.07186817544288714998,1126.92512495210235101695,1122.98473682073563395534,1131.58882581586271953711,42.9797228734069065581025,157.129291325103338294866,-53.138702473189589170488,-201.80128425159156790869,162.545892665157964529499
7.14250000000000007105427,0.816718344176679211798842,-0.0498477914926255885608164,0.0705900580600023197508364,0.0264014568750120803830583,0.002313127578278176537524,-0.00182051161733621591834464,-0.00487501700631367846511255,0.000382396431624642998536173,-0.125992746427899982020193,-0.992018976050649703424256,0.0209507609774530548230054,0.0110818153964744037232037,9.85910020019885102726676,-0.0110883445490905958863426,0.0245437798152276509533465,-0.00319522033696185200207784,1.39422971906027393096394,4.46281664493594565357171,1.29191465350848089244096,1123.4899023140706049162,1127.35196911163143340673,1122.6000010239404218737,1130.91285450096256681718,238.814349202316947184954,155.099921063359602158016,-231.191534450322620841689,-263.593408629463908710022,162.544053295587247021103
7.14500000000000046185278,0.796908858178841605912623,-0.25658275573102812261439,0.192570414158898667311703,0.0290315674259029460335668,0.00164320219846951325048945,-0.00197330388353973229867422,-0.00490696817310850436077985,0.000366517567098470845032843,-0.125976582520002877707554,-0.992020871484649569005398,0.0214148842834574956728311,0.0111166588022063445029275,9.86041951882006806329173,-0.0109529259804760359386933,0.0244191720342396070830837,-0.00314530025199751548173333,1.39418497193786183885322,4.46286931388206653537054,1.29190776100657767067048,1124.26593992145444644848,1127.70062455741913254315,1121.82877914848404543591,1130.27085877271542813105,357.666657701709823413694,140.06737757854651249545,-384.55578367439466092037,-230.828017541858031336233,162.542504076385824873796
7.14749999999999996447286,0.679763650022262688743524,-0.444700865365482034263778,0.296670725071461416355589,0.0313765721934829988626348,0.00112471764304204529735798,-0.00135480208436279453074191,-0.00494284121446039465680444,0.000345750981948451995093979,-0.125960155886690294835262,-0.992022782976971218005247,0.0217580832281826161422877,0.011296908756290906239439,9.8619962615674534589516,-0.0108107586811682261640488,0.0242929163605531649172686,-0.00309232133415393312808606,1.39413985064059664509273,4.46292173297023797573502,1.29189838775463039510782,1125.27823560257911594817,1128.05230599952415104781,1120.67722210556848949636,1129.75871441325330124528,411.119371999447707821673,142.319393831715700571294,-496.219338559978154989949,-154.200733297606006999558,162.540935166541601120116
7.15000000000000035527137,0.496883697950687042155238,-0.626619061444263603100069,0.359622964578333093044193,0.0335032758376558950641488,0.00060536474415715283651368,-6.40975605261045962334279e-05,-0.00498580206784189367691384,0.000327339726670426906830758,-0.125942640930698179779768,-0.99202479562902101672961,0.022115144108209507101126,0.0116676847029904273700396,9.86383048683320318161805,-0.0106606994270528800811126,0.024165374820313723081,-0.00303189944753955251816047,1.39409494115779430956081,4.46297311541173957749606,1.29188685068114805787332,1126.32153678145164121815,1128.41222152657769584039,1119.34768245568420752534,1129.49985510622741458064,391.469117726600586593122,142.715449555137951165307,-529.933658594938947317132,-18.1861816202858115332219,162.539348763289041244207
7.15249999999999985789145,0.262727751599977965568655,-0.804053127916762311322429,0.345291478986083921753902,0.0352235433800520275626766,-0.000205988464598302233521041,0.0019276940460331713940445,-0.00503424174378902869464447,0.000312184390158999202236761,-0.125924314852544738663198,-0.992026880197516502946087,0.0224828281154098516547712,0.0121940486523144098196525,9.8659125924388195727488,-0.0105020624769803366804766,0.0240370537105210092809759,-0.00296010984241436292396799,1.39405061114248773890267,4.46302367271644317980872,1.29187385492900008721051,1127.23558119121207710123,1128.76588324729982559802,1118.02755381259385103476,1129.66778350515187412384,345.906040328334825062484,141.110359269581124408433,-517.813808553830426717468,183.404094940219067666476,162.537740831086267689898
7.15500000000000024868996,-0.0264408343794948728910921,-0.999231469729243926281015,0.220159281209667351264514,0.0361169093828964324344177,-0.00197018026147431895428452,0.0048955151263257098981363,-0.00508328442636603577281518,0.000297622416537611034562105,-0.125904133472783980041143,-0.99202919361429620082049,0.0227789529302056051318637,0.0127839351921847088622286,9.86822350756090393986142,-0.0103347991090932816993231,0.023908446309111250349666,-0.00287376675372560128410293,1.39400682046564772242903,4.46307351370999771944525,1.29186089043885132809919,1128.05106698309327839524,1129.11777332292558639892,1116.75861341291511052987,1130.416875580928490308,247.511067210239900759916,102.15232054001934614007,-374.349338826467601393233,356.913503971198565523082,162.535786659917050656077
7.15749999999999975131004,-0.227740333780885567671604,-1.12658700030615976928061,0.0330876785053719757456747,0.0351694987093567681957218,-0.00438593740841890841059003,0.00713734609570677511203307,-0.0051278278483469358350888,0.000279151870698076949410538,-0.125883535829827031271577,-0.992031580851753802541282,0.022884766472362490230541,0.0133428440853715635228127,9.87073527893737612259883,-0.0101593346309274152466928,0.0237800111418938371621312,-0.00277065050753557817059258,1.39396391660645191379331,4.46312337375137690997917,1.29184870005269392123637,1128.47313652726325017284,1129.27664484999991145742,1116.15580711846155281819,1131.45235102500782886636,126.815189477113534621822,17.0251254932285505105938,-116.768867743396853597915,468.714455240761708409991,162.534137873068431190404
7.16000000000000014210855,-0.334198792610250317025589,-1.18622628401668084308085,-0.200515335163568092502473,0.0323179406359272586302112,-0.00785512337483269124094321,0.00764788394890027548034261,-0.00516450343788455758231581,0.000254017875863724366079788,-0.12586410876054751617481,-0.992033860158958780139926,0.0227211321964783455329417,0.0138037916594277859649864,9.87341177126587510315403,-0.00997666560248961983847771,0.0236520835685546867988016,-0.00264948929504310549606916,1.3939226378248841253793,4.46317377784372748550368,1.29183724058532511946851,1128.68514293047883256804,1129.20289895039172733959,1116.17476907419813869637,1132.76044785713224882784,75.2327344327905507270771,-100.250664227981147291757,160.457365287149883670281,583.166759812911323024309,162.532468135849427426365
7.16250000000000053290705,-0.320013806961722435673323,-1.14969813698219258668587,-0.461506220634763653087873,0.0282262040449878480463664,-0.0125843687356498763751933,0.005633361013091075022996,-0.00519441814622438689103001,0.000225597321217232732633307,-0.125844434314119679729771,-0.992036205697905404399251,0.0223423308395858319364002,0.0141708309669423410115385,9.87620930928256690606304,-0.0097884041256566974020803,0.0235248376960896302123594,-0.0025099018795520099296692,1.39388310903556411624038,4.46322465431565174043271,1.29182664205483255237539,1128.84930019942726175941,1128.77539152885992734809,1116.95809394489742771839,1134.36818482407284136571,74.1605400080077146185431,-213.620009002220285765361,401.605496567671650609554,550.671706774085464530799,162.530440200822766882993
7.16500000000000003552714,-0.20013426692267347051235,-1.02046059772290598210986,-0.610789537247388270024828,0.025673014264948793017318,-0.0161427038524364144245204,0.00247672316037272563504779,-0.00522236708745557609567811,0.000201590480474254539131063,-0.125824807622168494125603,-0.992038554526116334031371,0.0218997572116170699518811,0.0145077220170467049986662,9.87907881228592721356563,-0.00959634433757563382050293,0.0233984485925611968015758,-0.00235233223336638042066937,1.39384503707742846145834,4.46327598800774705267713,1.29181754901965639703576,1129.05594563051886325411,1128.13479890538064864813,1118.18279655703645403264,1135.51380639100261760177,131.185269570735783872806,-302.288548556322950844333,574.806749230504919978557,371.031222888776653690002,162.528729910146438442098
7.16750000000000042632564,-0.0182623418108908835977289,-0.795850095793496858931348,-0.650667324131523949759526,0.0249253611348143888637452,-0.0187049273842369578879641,-0.000979556524030238606401411,-0.00525414679661078808797781,0.000188416509977179931186256,-0.125805476784547259905267,-0.992040845204229526643758,0.0215261734168123372579196,0.0148997920517006665619419,9.88196870885207800938588,-0.00940233418382809514601828,0.0232731262526609181118253,-0.00217794411924613229986081,1.3938079707777484284037,4.46332740459595722626318,1.29181020968358284406463,1129.50522654728092675214,1127.2639487860783447104,1119.83212769104989092739,1136.22334093851668512798,279.825418413526278982317,-407.754151727167084118264,769.003631300045526586473,178.833677501237787055288,162.52699821140399194519
7.16999999999999992894573,0.188120159621073756994747,-0.438697526860241993063028,-0.567497236678488059524739,0.0261861960064989941765479,-0.0205825249878549380866399,-0.0043196664669858100479849,-0.00528979079348726455300778,0.000184318454761944890921838,-0.125787636987073597749642,-0.992042924442939844098532,0.0211840969367000711565119,0.0153385578707236625017885,9.88482839997894480177365,-0.00920808073634089320480545,0.0231491966299932801220951,-0.00198830488469156413042227,1.39377153361391181718432,4.46337824463107146755192,1.29180464059227517736872,1130.45507272258646480623,1126.09602814674485671276,1122.02781471353659981105,1136.4079747785087874945,420.07345486555084335123,-423.056390099609359367605,798.527570994173174767639,-47.5598336458925743386317,162.524894933878130132143
7.17250000000000031974423,0.291745618555347419054158,-0.0879783122813973111897567,-0.408661838932094678700224,0.0286817483554356045249989,-0.0212659264079552746962154,-0.00585276862803114656524928,-0.00532943734329544092226394,0.000187718931839785910416218,-0.125774535239432744271326,-0.992044378223532641314364,0.0208443254370000788378015,0.0158160332056566654834739,9.88760758985633358975065,-0.00901509842319811460775725,0.0230270770710406073866761,-0.00178522851010908065877425,1.39373598393556452634812,4.46342825398397913261306,1.2918007348172866333158,1131.60559382160863606259,1125.14866683558034310408,1123.8247655460206715361,1135.98554177028722733667,516.688593835908363871567,-344.083268874108455293026,667.996322728200198071136,-269.392218204899393185769,162.523120730452973248248
7.17499999999999982236432,0.27824919816216253654062,0.293455320861715773794742,-0.194210820558110508482486,0.0319846581641848246024828,-0.0211221712343260328847983,-0.00617428459182895166684757,-0.00537300479653699848692217,0.000196586401126842223166177,-0.125768238559387429686964,-0.992044944921583460306636,0.0204727126676619089473697,0.0163207700520831833213009,9.89025753610676083837916,-0.00882483204802453867487966,0.0229071394125059182855786,-0.00157057921114750020756545,1.39370193494321426008753,4.46347771322605524346727,1.2917986577074258569553,1133.03851569176595148747,1124.3756118023743511003,1125.36779632717752974713,1135.0610136874843192345,590.881659262426069290086,-264.492389943512705485773,552.655474928053990879562,-423.739827109020495754521,162.521323767086926181946
7.17750000000000021316282,0.16124693594580774558267,0.681338276013628507676856,0.0382128064735527961381933,0.0351037477149920632002456,-0.0202475920931207489794623,-0.00584321900611575479472792,-0.00541761099902999046507013,0.000203707537529529479451706,-0.125766992666519056287555,-0.992044863270086674233994,0.0199307646701585780557586,0.0167997578661702381963572,9.89273295435674882014609,-0.00863869793714214934121642,0.0227895714785776443145338,-0.00134607062638693731997097,1.39366883646594219570147,4.46352624476861503666214,1.29179848822803955421534,1134.56000211792070331285,1123.82620488586280771415,1126.58804292066088237334,1133.86684263474217004841,581.077421778321536294243,-160.492393775806476696744,398.205374824610146333725,-497.251651345788218350208,162.519507771349566382924
7.17999999999999971578291,-0.0491204284671054730582185,1.05117915724427013479669,0.265235409191957038910203,0.0366345911838223334267006,-0.0183143319597008497057189,-0.00489934448641534629059757,-0.00545950648487613949405572,0.000202054950886070905976405,-0.125768065787017269130388,-0.992044501526341937491793,0.0190854113505388792160211,0.0171829873965737497942818,9.8949916043858472392003,-0.00845790715198131183572006,0.0226743182911670476675781,-0.00111302674728899026954099,1.39363605072319129973835,4.46357400165929263380349,1.29179925849588994601902,1135.94390280065749720961,1123.57314983349533576984,1127.35882320130053813045,1132.57475543075543100713,509.08637698277010485981,-57.5733045820482871590684,236.544528966947410708599,-533.505024401176797255175,162.517668935034777177862
7.18250000000000010658141,-0.3315639014468982903594,1.43689374830165661478532,0.507320809114072845957821,0.0357645388663461322176218,-0.0145519464122018816337745,-0.00334584291754155089756995,-0.00549717125430832041083073,0.000186988910379731933112182,-0.125772851450137640449967,-0.992043692835486434766779,0.0178595638353142641130411,0.0174385224903425284370684,9.8969940273683612019795,-0.00828323907696368495756634,0.0225610739053796471864644,-0.000872349555627489241585448,1.39360329586936804169284,4.46362204869383560890128,1.29179973112244761423995,1137.10543400283449955168,1123.53833836295257242455,1127.77076556549559427367,1131.19931751273634290555,300.024234959936109135015,7.35313641066453449468554,75.4262583933150665416179,-442.938808040138496835425,162.51543646295564826687
7.18500000000000049737992,-0.527204317109801867680119,1.68265046139211871256691,0.672809690287090478300058,0.033307755760601527594833,-0.0102861689689577040507373,-0.00195462102151758125578862,-0.00552817365833774276850932,0.000157210375819731530341872,-0.125784040923910406251096,-0.992042111138761950606124,0.0162425210067843953098965,0.0175094123861368744510258,9.89870421816141643489573,-0.00811521189145453583635437,0.0224492486490643766705588,-0.000624409934367480988146037,1.39357057532724670778634,4.46367149714783462144396,1.29179884897532781806717,1137.44402397545741223439,1123.60991551554866418883,1127.73595449326717243821,1130.36006139055439234653,-25.4111503048539759674895,12.5804034934392756639454,-74.9303076566791332879802,-253.902873599195970655273,162.513555195325807289919
7.1875,-0.619196279990345543886576,1.82337619749719248574138,0.790707989531740373934099,0.0300425155711423821913719,-0.00545141239386570230357476,-0.000486533072605593289085973,-0.00555109220441387957861723,0.000116115296995815522928044,-0.12580043088226200431734,-0.992039917363001455541394,0.0143207731348304959095863,0.0173492379172410574050822,9.90008961195826842072165,-0.00795434402931881508191925,0.0223380279606345891196817,-0.000369318155304734720058984,1.39353782714749718785185,4.46372178667045194089269,1.29179641446378390412519,1136.97837825131023237191,1123.60124038041976746172,1127.39611402721220656531,1129.9298031447403900529,-389.508711024526860455808,-56.7564100260836568168088,-199.30186824131365597168,-102.335135566593095290955,162.511653428576039459585
7.1900000000000003907985,-0.572581633257936761793871,1.85259080900084827092655,0.862563372376260573126672,0.0259766106183829600939639,0.000383381663079518397209411,0.00166148806986020011744465,-0.00557098447668050861247835,7.19018453205633184402781e-05,-0.12581870758569782542402,-0.992037500765663438073716,0.0122931410974064445063014,0.0170293756176098237675731,9.90112090440284475789667,-0.00780108355256030165658654,0.0222265987377467076624438,-0.000107469818126299790014833,1.39350507675339585489382,4.46377254208846174776681,1.29179261012728363589019,1135.49648042033481942781,1123.32613346541825194436,1126.73944515206062533252,1129.84838571272143781243,-670.377665663787183802924,-153.122785251983799525988,-270.994934647120658155472,21.8120317894322504059801,162.509349420740363711957
7.19249999999999989341859,-0.402795677619761649523866,1.75479339545575108161302,0.850271702398388229404702,0.0230546807359128837211504,0.00525060420138755059443758,0.0040278363063665570398264,-0.00559273855689694510129328,3.07650356675162099336952e-05,-0.12583605738858349987197,-0.992035188508374132787537,0.0103198462720113307011793,0.0166253029024728687934598,9.90177446575562036912288,-0.00765570845755938079318925,0.0221143453568625539262804,0.000160274794078268598140902,1.39347296871927239791944,4.46382332964692363219683,1.29178833622966893202033,1133.6264899229913680756,1122.83562645415986480657,1126.04113935397663226468,1130.0388633036875489779,-822.341738679069067075034,-233.1477611104268987674,-304.995599259979940143239,95.5657981984152087306938,162.507412800918388029459
7.19500000000000028421709,-0.12768016660643238813222,1.53169163872020863692569,0.747230543987756568036218,0.0215089856552523432664525,0.0100870757319814121494295,0.0070763424842153598709471,-0.00561951871310880073789873,-2.72685520643920693939868e-06,-0.125849935432351456299216,-0.992033284574767248997773,0.00852523248221007806657568,0.0161853735915115370946893,9.90203303286077129996556,-0.00751833949521696787848812,0.0220009056820398007925377,0.000432435565805897633839122,1.3934419067183361207185,4.46387340057586978758764,1.29178491993393640413501,1131.3847717269395616313,1122.16039465986614231952,1125.21446715576075803256,1130.32621470371350369533,-988.328938728294019711029,-289.465457313105446246482,-396.69375934741702849351,109.842504112568875029865,162.505461088043091422151
7.19749999999999978683718,0.260790600145042517077343,1.136401711669292158291,0.515868290030625509245965,0.0216549207634055863869182,0.0151273890841960249181719,0.0109159246889482183795472,-0.00564995700868303057928799,-2.70278358648459363479735e-05,-0.125859533797743394778479,-0.992031898257143884833908,0.0069625521908693241424082,0.0156791393814489574132232,9.90188671802755671080831,-0.00738883605210247790262557,0.0218861452221157902486848,0.000706928387582516216773587,1.39341167854271930082177,4.46392220827518659831412,1.29178324027819235730874,1128.68484522935000313737,1121.388299167594368555,1124.05767055723958947056,1130.5880758242503816291,-931.394116964131058011844,-229.834806444028231453558,-457.925106863568316839519,61.8206326490521362870822,162.503103804834921675138
7.20000000000000017763568,0.580184774410644643616308,0.726942846547259047262912,0.251272719752738293852445,0.0231808488119620119405351,0.0180061370405694767815596,0.0132440633074878740677027,-0.00568248615317255845180711,-4.25190652465364695550797e-05,-0.125866405938316910928521,-0.992030840875605335327236,0.00564550516750073755334327,0.0150799241402076872331506,9.90133264958918957177048,-0.0072667330389401662421589,0.0217700298007956379031658,0.000981000059634835365474093,1.39338202037044300851676,4.46396955697714403754617,1.29178419321522519602752,1126.72780114211900581722,1121.01122062764602560492,1122.9248416214429653337,1130.63531786695875780424,-665.893178454175995284459,-44.7388808656272090047423,-494.287469762198327316582,-25.9902838481553146721126,162.501127967013388797568
7.20250000000000056843419,0.836592216881788752758098,0.279112784205602204590235,-0.0407811169226326986070319,0.0257313788690930640712384,0.0191647266601056090462585,0.0136122774435780968804721,-0.00571823368760978126279504,-4.8762291899717740339612e-05,-0.125872010319847821291361,-0.99202992093908060056151,0.00460869202994807630746621,0.0144154151721213319436998,9.90037443437345565655505,-0.00715134338993711135556985,0.0216524166473989268522082,0.00125140640411678326880673,1.39335269156797059153519,4.46401548472015807789148,1.29178900737106472362825,1125.35537933707860247523,1121.16460476326619755127,1121.58623320842821158294,1130.45812440500958473422,-429.906424415057756505121,171.525114581030749150159,-568.10019384967142741516,-103.887685608381104884756,162.499141317198734668636
7.20500000000000007105427,1.00560269591565210056672,-0.162906033281264267520427,-0.310022037296365127190256,0.0288879390775133582103251,0.0188840005068835886659073,0.012189667327159892443178,-0.00575905471944159006586483,-4.85009194427504170877598e-05,-0.125878262208144880984761,-0.992028885122191006473713,0.00382345394048621417537603,0.0137391764485583559030069,9.89902276097892119821609,-0.00704177241545462639232822,0.0215328913250908970944408,0.00151480397948453721079787,1.3933238112651020745858,4.46406078032758824036819,1.29179741583402396543079,1124.57826902004376279365,1121.86884620055116101867,1120.08434065219466901908,1130.11587943891686336428,-170.280921988209229311906,411.152001638638125768921,-626.107671156446144777874,-161.888823042048699107909,162.497146168672202293237
7.20750000000000046185278,1.04050383472438046084108,-0.556028224199904497204727,-0.503421064055244338319994,0.0325608053052599474841422,0.0169843887673616286693168,0.00922034250777429599532642,-0.00580406400317477495082175,-4.57474658057328332789321e-05,-0.125885624761691489181814,-0.992027680887732188352857,0.00322626640688170734927454,0.0130582360616412485043725,9.89729512226580432354694,-0.00693702559575661188706608,0.0214106200453187678345301,0.00176837920963580528740944,1.39329526041245510548094,4.46410612910779747153356,1.29180820257175055232324,1124.50397472713757451857,1123.22036477145934441069,1118.45569485264604736585,1129.64868028979935843381,90.2641512424016667637261,698.79781304104324135551,-711.638071490248535155843,-210.129967086872909476369,162.495140954336420691106
7.20999999999999996447286,0.912021471724532961644627,-0.932247963035482407612164,-0.615918573008270908708539,0.0372857218056559594487886,0.0132207548343382802480406,0.00540950690131306987512572,-0.00584854202457542673987412,-4.51083257761519611749035e-05,-0.125892294005863603079121,-0.992026566174272428355607,0.00272886087444158126347205,0.0123102404532315704011047,9.89521508932451965279142,-0.00683604887184126232962944,0.0212843152223630045771774,0.00201025466109331155117879,1.39326646840109424907439,4.46415161613407196483649,1.29182009009732312598828,1125.02958977625576153514,1125.36283526575630276056,1116.52615029474350194505,1129.06522960348252127005,248.144844355834550242434,816.566791745225714294065,-670.756473306497127850889,-200.476683468427552270441,162.492722819123684985243
7.21250000000000035527137,0.671569979592457233508185,-1.15431197721476919149097,-0.613556580630976178269975,0.04097192163596768965661,0.00944665033640116474922266,0.00290456630114421321745,-0.00588770827549197402900338,-5.23168630581432884322883e-05,-0.125896050719203123069434,-0.992025853035382820799271,0.00221684342039134979485127,0.0114387798336392926268346,9.89281092826152885777446,-0.00673768281932673671064116,0.0211523294910924107570249,0.00223948904229189860518034,1.39323712262607335432563,4.46419740257384844994704,1.29183140763094161940217,1125.74469894891672083759,1127.30319873018538601173,1115.10191248611363334931,1128.64629687245724198874,280.175066776479582131287,732.905280312404215692368,-492.975621979359459601255,-137.28201416329577000397,162.490697303028468923003
7.21499999999999985789145,0.330843330148152092728964,-1.2895445782278371904539,-0.539603710723816853978008,0.0433817892666736454332366,0.00590983116806372693607941,0.0014388826004547315608878,-0.00591782507858287787350093,-7.22206581174283208327674e-05,-0.12589799990826719411352,-0.992025425634752933135019,0.00159170953799617903579033,0.0104095001317124347117726,9.89011416616450311778408,-0.00664057822426516921460182,0.0210128189310968445380201,0.00245601928409492579336026,1.39320696220630280137698,4.46424430767741142744853,1.29184111533567613783191,1126.430465110138129603,1129.02736166731824596354,1114.06127218484675722721,1128.37881953266605705721,231.320508973435977395638,635.598209241165818639274,-336.898009783460906874097,-71.8337695268944003146316,162.48866025011861324856
7.21750000000000024868996,-0.118216769980051761290696,-1.38068941429194258496693,-0.412645220059964512593353,0.0440930460844030439049313,0.00248514953807844234459634,0.000742964612212428576407119,-0.00593964293664863297178558,-0.00010138578601310099347281,-0.125900483689803860398726,-0.99202498202784916703223,0.000924409665174916184149367,0.00925913201663443319322511,9.88715733934678908667593,-0.0065433483838896197917756,0.0208639209822380870817948,0.00266041616806760548852306,1.39317608993615427159796,4.46429320723069711362996,1.29184905948016681698221,1126.90130149378387613979,1130.48118977639114746125,1113.41742243719636462629,1128.28712802482277766103,84.7013883524159467697245,399.615284230330303216761,-124.657863078985357674355,6.08502382378914496996458,162.486202259963050664737
7.21999999999999975131004,-0.459586011151573992083996,-1.42043915482571780906085,-0.304140993491308242457904,0.0426442882645091322912911,0.000162887802827365880389485,0.000776226464463418441321052,-0.00595637103029699691708609,-0.000132341086989664887072632,-0.125901588404436048929114,-0.992024745120709039447604,0.000366952729960227930217087,0.00806611177501024428915244,9.88397387125917248340556,-0.00644489912940396196538995,0.0207039756738906788324783,0.00285355500894749229343073,1.39314487990337743106295,4.46434334611513961021956,1.29185586531169671609121,1126.85397205190020031296,1131.02543808846985484706,1113.43798286945184372598,1128.40924465178500213369,-117.769155620183269661538,74.4294205353542110970011,120.776226649470871166159,84.0035685405855190310831,162.484143256704669511237
7.22250000000000014210855,-0.691786498616520528770479,-1.43858898640348042974324,-0.215166928345541796918639,0.039290603408735885748726,-0.00215589355008492886828231,0.00100770381556132852460261,-0.00597125387967618100754086,-0.00015632772721428344329421,-0.125900413921668535843779,-0.992024810078312335726025,9.23999922432042208875203e-05,0.00690830272556334362699104,9.8805979839841580059101,-0.00634427296559491107896811,0.0205318808738907884747782,0.00303636481025705085370903,1.39311382236480718610494,4.46439348104592514943079,1.29186251375791050222119,1126.31245571568297236809,1130.85333687906791055866,1114.0213035704437061213,1128.70714586752569630335,-326.932510077216477384354,-211.100345996932190928419,366.352505099564098145493,156.339883219810076298018,162.482074776404971316879
7.22500000000000053290705,-0.786255178383023611843328,-1.43174642267688323471475,-0.138524223854462530391984,0.0341990119057941563407432,-0.00559629193534735575737971,0.00102572062045697283937107,-0.00598771686019756218394283,-0.00016699076724288510874955,-0.12589839689774715014714,-0.992024974447993534987233,0.000223023082393712657189866,0.00587371252358175055530154,9.87706458494527694824683,-0.00624064480121054674516268,0.0203472710479219234813719,0.00320957499493716149827072,1.39308353948208041295231,4.46444306261710543992649,1.29186940782476589184569,1125.21930950151386241487,1129.9699363584850289044,1115.26974539494995042332,1129.19094406788417472853,-438.322129876778717516572,-399.239002730345760028285,525.395080226382901855686,183.598624278833369771746,162.479584653671508931438
7.22750000000000003552714,-0.700310670832608117564178,-1.38779554221745726749759,-0.0962823760148708157613484,0.0300942858826075410050294,-0.00922044650906099320930576,0.000803630489896866727524138,-0.00600740589594046976718023,-0.000164318375845297966631603,-0.125895640089902588476534,-0.992025213309669973149596,0.000748744852387892012579584,0.00503095354300185648721566,9.8734095863207791410332,-0.00613349001950553706502545,0.0201504773008897089536795,0.00337364857546753596148625,1.39305432065532408536512,4.46449164425763012076231,1.29187650173879120529818,1124.12084506629912539211,1128.85714186541622439108,1116.64827897157556435559,1129.62513898891984354123,-424.710716103490938166942,-472.589569517332222403638,584.960114942999780396349,160.153654062563646220951,162.477505890541436883723
7.23000000000000042632564,-0.470084007486380683893401,-1.28434482450704057221458,-0.0682522441371198884674243,0.0271310993335560253492122,-0.0132000156029939384738636,0.000519431189615371683918066,-0.00603257544832860870265279,-0.00014841878635781633366704,-0.125892907857768826529465,-0.992025414223393964263664,0.00165550823114465200935896,0.00445896266401567265003081,9.86966882924857813463859,-0.00602240402680492576542592,0.0199424894980285774548356,0.00352876081499024470480852,1.39302615694457032624598,4.46453912961550525295706,1.29188347879821185948401,1123.09575592099645291455,1127.6069885108984180988,1118.19454596966488679755,1129.99171233819697590661,-359.073449248315625936812,-488.222379969567043644929,614.499944393687087540457,119.764680898745439208142,162.475427776383355649159
7.23249999999999992894573,-0.16507259602359827810325,-1.12294495239163771849178,-0.0459105523933238876543861,0.0256218758627445898634623,-0.0168209277566408639537077,0.000262201239144701050195335,-0.00606446462385350909540804,-0.000121261200219330552503745,-0.125891938205965919772567,-0.992025347437896165558868,0.00288756370286166047511855,0.00421813046295895638371221,9.8658784417110609865631,-0.00590702866987101622708867,0.0197248387777921863062147,0.00367477673828770119712761,1.39299909502487562207307,4.4645859912436529626234,1.2918902749692573461715,1122.32547782005758563173,1126.41602996556844118459,1119.72077869354393442336,1130.2239623934135579475,-210.730113700587878611259,-431.17977961088411120727,565.968412356517774242093,42.5518683047366721439175,162.473354207552546313309
7.23500000000000031974423,0.158581766408834007320294,-0.892658662799937552279061,-0.0246686888902785048105493,0.0260599331961904011334408,-0.019622014381645416780664,6.76152456052851963484024e-05,-0.00610365935272607924161337,-8.37603707991039841615488e-05,-0.125892093587323977699199,-0.992025089239272128693869,0.00440602521116010420465514,0.00434933395474366296662438,9.86207450954648479068965,-0.00578708189128362450459608,0.0194994642515415768369014,0.00381121346661775217690149,1.39297296667558567762057,4.46463205969439425047085,1.29189727853718783201487,1122.04210535249353597465,1125.45108961284404358594,1121.02438803144741541473,1130.20447167972065471986,14.5053768611436133539883,-350.294321809368000231188,478.295951306073391151585,-84.4871506529234324034405,162.471291556769330099996
7.23749999999999982236432,0.474802627532533882970256,-0.548761207302781661709901,0.00467790741881362291676449,0.0283796127550531539218692,-0.0220109126503609496550151,-9.51326942384501440287681e-05,-0.00614990315431881984231666,-3.5927334302826289982695e-05,-0.125892037534799661191443,-0.992024810502405429701867,0.00618580627065969806954726,0.00486941367486308507306347,9.85829312459441098326351,-0.00566221297930314705626476,0.019268659282467352072965,0.00393720099462663980505184,1.39294752011503208954935,4.46467684571053879949432,1.29190541680235626564865,1122.39800470436330215307,1124.66455835652163841587,1122.11225845007425050426,1129.80152664014894980937,251.19774433479130948399,-223.401913559933063879726,299.391641662766232911963,-216.83030754593809774633,162.468835988717870577602
7.24000000000000021316282,0.62101461752174491603995,-0.219483348109380527191092,0.0344860626434550024410619,0.0312752214920074406157013,-0.0232201249135792660294175,-0.000180508664374003498188578,-0.00620265488838372264224219,1.82631333944420219304004e-05,-0.125890785125328447113802,-0.992024639191491863776662,0.00812222880530612950655822,0.00579326255237266884989822,9.85457085867557047720311,-0.00553196780199738911976137,0.0190349854646826056880915,0.00405144786105072259724258,1.39292247291488346938593,4.46471957542752662106977,1.2919160673047485055065,1123.29809407416746580566,1124.33408004504440214077,1122.52134623976121474698,1129.12032014199098739482,475.090570660005255376745,-73.8239518575044115777928,55.9508856204059270567086,-339.870600571392003530491,162.466810874622098026521
7.24249999999999971578291,0.600636710478498314635942,0.133626349973279157090644,0.070373125298743038902316,0.034640263894902739716386,-0.0235778632966335069398589,-0.000213250662434073150804797,-0.00625964134229702127282247,7.22625427398854034083744e-05,-0.125888077740700515816386,-0.992024622416113777134683,0.0100552487159389011828203,0.00710148269393272302263398,9.85094457764696862511755,-0.005395802523379776907686,0.0188010875856114006987596,0.00415255190941244464036819,1.39289738347417135777562,4.46476007476656100436685,1.29192964184045733233575,1124.77345755766327783931,1124.29543859723412424501,1122.39201287817627417098,1128.10217363729202588729,752.656743383265734337328,29.3546983780749428660783,-162.429812221402073646459,-505.714333299385430109396,162.464813234033954358893
7.24500000000000010658141,0.368622804942874915390405,0.555419291850772545160453,0.117975306533058516000878,0.0384352901314929246145979,-0.0228963668569731708390957,-0.000162193309512627235500701,-0.00631747797188418093450313,0.000119538447806332589714619,-0.125884651963789645501279,-0.992024688609018046037136,0.0118222760368341187064978,0.00874583651637195896855204,9.84745063915595864045827,-0.00525315586305293187596721,0.0185694770212797323483134,0.00423937069953013705853051,1.39287202109036933883601,4.46479879482824681957709,1.29194513016988898890247,1127.06137779108371432812,1124.48085353693477372872,1121.70919717865422171599,1126.59174847549411424552,893.478275996036586548144,87.9816518547930854765582,-313.487715926972782654047,-578.382832323587194878201,162.46245380188040030589
7.24750000000000049737992,0.0187259770603588893145286,0.87991842917842555404917,0.157178275860317434586833,0.0407886419604514272041484,-0.0213622399964671950967077,3.68603367669903008610597e-08,-0.00637354495221408197391799,0.00015643563385568198765771,-0.125879499324224958245466,-0.992024982857999559904272,0.0133194625991645207441216,0.0106792002363529994757307,9.84412360178141376820804,-0.00510366910448896947405384,0.0183423250246099525662125,0.00431131409104190069930818,1.39284637966024749111682,4.46483658810332872945992,1.291961079328061812177,1129.24084893764415937767,1124.73534685650815845293,1120.82457429854116526258,1125.21025947567363800772,881.441004670087409067492,99.4624873796077082488409,-384.91701267886037385324,-543.231693928976483221049,162.460523171585151658292
7.25,-0.442226168218644688501229,1.14283135631196586246006,0.187956779563147935441236,0.0416172603946420513465476,-0.0188151747166190597138069,0.000359472835920786478423883,-0.00642324426731127797601806,0.000180607498093307892008189,-0.125872102481943831664424,-0.992025601023659886479322,0.0144648640219425597686076,0.0128058616203442568459714,9.84099582876790712759885,-0.00494725575396788661702852,0.0181213691006595900567788,0.00436857156429355710652862,1.39282073072709278171999,4.464874305733134818297,1.29197675310878756782529,1131.46858281443405758182,1124.97816597383280168287,1119.78461211525996077398,1123.8755900058492898097,930.575646976760026518605,77.6973970112083662797886,-455.831892949627842881455,-534.712806494928827305557,162.458634086710958399635
7.2525000000000003907985,-1.03045170422059317871799,1.34787740201983696763932,0.203683149694670190266166,0.0398057060070868273804479,-0.0144576608837055330114563,0.0010958875608695938571463,-0.00646162274353545215688222,0.000190800880609207437494518,-0.125861731308909374771332,-0.992026668599714445129223,0.0151990696086054463687098,0.0150143357854740366885693,9.83809633672837335893746,-0.00478422728861492389806909,0.0179079291543965471444899,0.00441204907560885199735434,1.39279514930788450577381,4.46491204831838572886227,1.29199174793858917453804,1133.89372717252786060271,1125.12383384156419197097,1118.54541483379307464929,1122.53669544319905071461,804.0746675665276370637,10.9873431011694790981892,-430.295921499109738306288,-421.497613683786653382413,162.456420247193136674468
7.25499999999999989341859,-1.47050804507702648216139,1.40329971244460005586063,0.191355336349682936258887,0.0358167523272143670243217,-0.00982305293361966300191845,0.00197109979967116958829432,-0.00648734292908946866274,0.000189065482605743975796919,-0.125848693609442424667932,-0.992028155083876317377189,0.0155389474565839555419977,0.0172498011752991384226696,9.83544894687999615712215,-0.00461528610489685825468698,0.0177030230657771320279537,0.00444317221995007248513954,1.39276968515968291306706,4.46494974846898440290488,1.29200584785464567261215,1135.48895615226660993358,1125.03310268933864790597,1117.6331325077644578414,1121.76810193743040144909,505.524784466308005903556,-97.2516031840334846947371,-320.477936002005208138144,-216.232464378440511154622,162.454623051809221578878
7.25750000000000028421709,-1.77089687609484869312837,1.32769776416044305022979,0.147959382471300693318028,0.0299115167647356870739284,-0.00479906150864242188325282,0.00297953257297624589036711,-0.00650074039470026690534787,0.000177963860254536039356629,-0.125834604224992069321232,-0.992029853707061093359698,0.0155191449058295280472031,0.0194836464448659985038148,9.83307190733931868464879,-0.00444159064440279895136232,0.0175074324587380508733148,0.00446377931662589842731759,1.39274474462409503239257,4.46498765261510666135791,1.29201897523700104386535,1136.42135109485934663098,1124.63757582564403492142,1116.94302515378308271465,1121.45553312130687118042,241.856036729046223854311,-214.353696334596889983004,-231.132007989577147100135,-46.02446639023681029812,162.452879205287644026612
7.25999999999999978683718,-1.90846272256835081115867,1.15432546395773294456433,0.0814833646595359284425797,0.0229093967814904160562595,-0.000247011951900903746568577,0.00381561993627559667766058,-0.00650395879066939693047278,0.000160004229161223737471637,-0.125821330219780175285749,-0.992031514407071490779799,0.0151821091779974284841082,0.0217183414043003106264074,9.83097713150856300501346,-0.00426480959695021543537363,0.0173217698066993053274132,0.00447596019675728165609918,1.39272081181077500566801,4.46502570020986055965295,1.29203147597510370481189,1136.6982363359118153312,1123.96133420766568633553,1116.47747246781659669068,1121.53797960547922230035,-52.1945061617782144480771,-332.458929308093331655982,-131.878038182733774874578,118.511548307381218592127,162.451182305440937625463
7.26250000000000017763568,-1.8281667613329093402541,0.901216352481585936118336,-0.000892206577411080309358837,0.0152503327273041215661475,0.00279328242871786135495538,0.00408671902526380227682612,-0.00649833727118712903975117,0.000135923317702127605718226,-0.125810685699308949514474,-0.992032899582281135764106,0.0145387026283532796999687,0.023941503959081233965378,9.82917018685266796751421,-0.00408709245736056398651259,0.0171465181723822225612341,0.00448199496058281424137881,1.39269880828054626320522,4.46506374712678955063438,1.29204364815863148585606,1136.1603785640504611365,1122.97528117910360379028,1116.28363496286942790903,1122.04809086284376462572,-401.757855218039310329914,-480.926395563180733461195,-37.4399697675867741963884,295.753629328827798872226,162.449545078070940462567
7.26500000000000056843419,-1.50948090713701654763668,0.574375553154022444601878,-0.0960197713831549004570576,0.00718052759986518435164626,0.00402484939308083398967764,0.00367693741836944533799003,-0.00648838433132292290855814,0.000109013141956407642245257,-0.125804578609635370201048,-0.992033738540522902482621,0.013662749038615897012594,0.0261934562043624336036274,9.82764878173886202716858,-0.00391085825324392899471349,0.0169820877267955056000304,0.00448419240674195231088905,1.39267972004841755762072,4.46510188402803009921627,1.2920553992288870137628,1134.68944705982130471966,1121.55670222984940664901,1116.29027261897863354534,1123.0167477521235923632,-640.889738127648342924658,-531.271268574585064925486,19.8628701671172755993666,387.457306550421947122231,162.447653083170052923379
7.26750000000000007105427,-1.12206201325859367123883,0.332121343688961900841861,-0.156388601269154270401174,0.0030677432876112906319499,0.00351119297933480747908597,0.002851415718797128961981,-0.00648092991016878915144783,8.52173297983178674053911e-05,-0.125803669633478165668095,-0.992033903800322525157185,0.0126907786078152631792371,0.028551386414096741050983,9.82640275243056926512963,-0.00373855278089921206838286,0.0168287784889193485493575,0.00448485194787876656485892,1.39266368911917348683005,4.46513985661498580270745,1.29206665548725507797201,1132.95592987341228763398,1120.31892483623073530907,1116.38294931370501217316,1123.98537739559583314986,-741.573371259726059179229,-467.073196791908173963748,19.6214365274049313825344,387.372024310215294917725,162.44613949474759806435
7.27000000000000046185278,-0.714337574143277809213259,0.16001222533925213431516,-0.184648105289865777089986,0.00207359749253476378233474,0.00244226499225583953966989,0.00185183089732973205944477,-0.00648140899558018353243671,7.10830693137493171366442e-05,-0.125807195233798241318368,-0.992033457343811542195056,0.0117725597560676895070308,0.0310627593386283706866635,9.8254150716234249784975,-0.00357231431215889946861886,0.0166867009783461840710661,0.00448627853150808299925734,1.39265001792973097671791,4.46517808173207608746225,1.29207678829642724771531,1130.98158020352275343612,1119.22133624588991551718,1116.38837980161565610615,1124.95360787367462762631,-855.287630841321515617892,-407.214258624398610209028,-55.8165692073101169512483,394.46805457233426750463,162.444694158457991761679
7.27249999999999996447286,-0.322184308923963547144353,0.045462071248652861921169,-0.178709523550672766400993,0.0034703923737767631077511,0.00129780087162921628149426,0.00083932954580010551027397,-0.00648951703798569118353257,6.64292021897864898207636e-05,-0.125813658036785541716185,-0.992032589730987290899122,0.0109168299114530201188167,0.0336794697130043119148723,9.82466394889820904268163,-0.00341369369133337399041528,0.0165557270481368201675565,0.00449071077913379412827055,1.3926372578377093081059,4.46521707533877609819228,1.29208563038348023255253,1128.67949171920577100536,1118.28285354310878574324,1116.10386646766846752143,1125.95771766845746242325,-790.854840773743944737362,-258.676532454870596211549,-167.565091297050400953594,327.998955251821541878599,162.443041643047365596431
7.27500000000000035527137,-0.139348259411593927703521,0.0147079338307402242985722,-0.14553734829137546236133,0.00589726677470468058084307,0.000755847353511808505745206,0.0002559277393929642588008,-0.00650224754847120167688956,6.73099970875281185343081e-05,-0.125820379974548951507174,-0.992031659201748849952196,0.0100557777987753602100263,0.0363105831912854948306801,9.82412270928447028950359,-0.00326344841812032781386277,0.0164355679949888741631092,0.00450008631242627011453949,1.39262394729105176693906,4.46525619565689080303628,1.29209366744770148827115,1127.02730599965411784069,1117.92795358361559010518,1115.55055434513042200706,1126.59360264993370037701,-573.660193106537462881533,-45.3356218839881535132008,-280.825679237028964507772,208.806808423200806146269,162.441734894006486911167
7.27749999999999985789145,-0.135889722239208199372484,0.021879345941322434626608,-0.0939859232538137467916073,0.0083203966016076515849198,0.00080301776362084152649512,-5.81076521238435230896566e-05,-0.00651369258401688407816854,6.83654815771487508547014e-05,-0.125824881014686251745616,-0.99203101850036867759286,0.0090894375085726966667643,0.0388132032627636486266098,9.82376049304743759194025,-0.00312149352521662055287566,0.0163258720535229898129792,0.00451591518826655480972621,1.39260892085628262826447,4.46529460380738907332443,1.29210117304901861423616,1125.81119075367314508185,1118.05617543368884980737,1114.69973807148335254169,1127.00175171057344414294,-423.369351147957729608606,150.116096794457490659624,-406.883206544452662001277,137.061677395925670452925,162.440503822873807848737
7.28000000000000024868996,-0.313452530171626941868368,0.0341163455112964558724187,-0.0259199564499053257404793,0.00997342811271093553082689,0.00157660514365723868589197,-0.000178264050549269603609254,-0.00651845324941999204604315,6.54399337448049003059664e-05,-0.12582646126818586296281,-0.992030791684744173153376,0.00794427858966951366825882,0.0410530005659362623449127,9.82354247490805043696582,-0.00298705238510099148341315,0.0162262991336763091887452,0.00453909100935816385569144,1.39259178160541097213354,4.46533140805053729849305,1.29210868157631253438922,1124.91045924391437438317,1118.67853406758786150021,1113.51613831240820218227,1127.27891103691331409209,-244.649222878302424533103,278.315684702471571654314,-422.562249151051105400256,79.3859922088375782323055,162.439117407918274693657
7.28249999999999975131004,-0.561583880998640760928708,0.0221842976514489698125487,0.025083818909828567433884,0.00995652169358575596380678,0.00274058831601294407634417,-9.99874492629193638510224e-05,-0.00651472938697448926415046,5.75854567029907449694087e-05,-0.125827481030011151252879,-0.992030690522670566267038,0.00661916452678319028324339,0.0429600526278414718284182,9.82343023623772815255961,-0.00285895909483418900545737,0.0161364982737447378025042,0.0045697730696909006839479,1.39257324239082325156858,4.46536670515855238505765,1.29211696114016061365248,1124.58794463928165896505,1119.44775385720117810706,1112.58692682572814192099,1127.39868167161762357864,-61.7383773687847181577126,318.759719269662582519231,-312.224261465150732419715,40.2247349194576102604515,162.438040456113299114804
7.28500000000000014210855,-0.828731393971522622976522,-0.0285203172669576260345181,0.0582734103341854547952749,0.00815797685693748705904049,0.00413529530034659371928729,0.000141599798613063060630929,-0.00650277407171304805411083,4.66110220250852991274483e-05,-0.125830400493831096042641,-0.992030400782125232339581,0.00517203467911949571478303,0.0445009445439111528397547,9.82338325235384957068163,-0.0027361171220692255372231,0.0160559572830472167825899,0.00460748312734333281825982,1.39255448723404695599015,4.46540081341958128291481,1.29212656846801943189007,1124.6017673570704573649,1120.27233266393614030676,1111.95501700508248177357,1127.48003471151059784461,40.8949179470646129175293,311.011692902908691849007,-174.893540225202684723627,32.8534377745148518101814,162.437048305311577678367
7.28750000000000053290705,-1.04189394093623843851049,-0.10764258646642478611799,0.0691728955943148593465963,0.0045843613611337959493075,0.00522044845345987894996709,0.000510510595612236332992151,-0.00648487590368926683503936,3.64247112810002669704319e-05,-0.125836470448214443607071,-0.99202974861562143171767,0.00370651932623520391496541,0.0456809368999331333327518,9.82336010847103935361702,-0.00261776264770766185080442,0.0159838700082767688759322,0.0046512480364640533189724,1.392536672415455090146,4.4654345883937649475115,1.29213794723285202437069,1124.79241922901701400406,1121.00281232171596457192,1111.71245912460199178895,1127.56294886049022352381,96.1489672663012697739759,246.933373435791310157583,15.5034029878610120078974,32.942098179911020849886,162.436129226190445251632
7.29000000000000003552714,-1.11726753035596981789013,-0.19669803561114651557773,0.0468292386054833878472614,-0.000900196444008843172854273,0.00507029905969961624395692,0.00100314870840051114167513,-0.00646424207830137084740407,3.03905750186445317679532e-05,-0.125844457667279530088678,-0.99202886967719228206164,0.00231726759680824651033149,0.0465295657660772937758153,9.82332000712786879148553,-0.00250355989437194264429776,0.0159190402242421619183332,0.00469982730705470301557636,1.39252019338502441847538,4.46546892985595356151407,1.29215081786384522466449,1125.08251219340195348195,1121.50699953111507056747,1112.0325340200217851816,1127.64474520241014943167,130.811334889725060293131,158.826282518206170379926,271.376365904421959385218,25.2755101377266271356348,162.435301819552734059471
7.29250000000000042632564,-0.998239469304623927570219,-0.270660833945363721309008,-0.0208971624492259311356435,-0.00824330304912768152547642,0.00332896176725653789030268,0.00160977277301748745996779,-0.00644319217178333791817835,2.99111436623163795100588e-05,-0.125850578228355575172159,-0.992028229174229392306472,0.001057602090356234147972,0.0470695568438299072333564,9.82322408277429204304099,-0.00239350942841889133619326,0.0158598699826940844892498,0.00475197681494217861325469,1.39250457546496164695782,4.46550394605538514269938,1.29216418390081311251549,1125.44647590346562537889,1121.7969437343069785129,1113.06934095412407259573,1127.68932641117885395943,130.909393727827648490347,58.7321937769060014034039,473.773169007209730807517,-4.15128079130235860816356,162.434419803429591411259
7.29499999999999992894573,-0.733571209085554509776728,-0.277354182855603204060913,-0.107443559811494851463642,-0.0135380744808506828236183,0.00144932321777212821251046,0.00191842074941347344278764,-0.00642320070288014081244521,3.77054218038939969754458e-05,-0.125851204202732963599587,-0.992028278057562773462053,3.45382611421224394732121e-06,0.047309752873450905408248,9.82303571628504634816181,-0.00228769895497038045287241,0.0158044360412073064958705,0.00480661469763986933662059,1.39248934152270020803144,4.46553923296272881060531,1.29217792170528444906097,1125.73705916204107779777,1121.80066049999959432171,1114.40139986505778324499,1127.62398879845363808272,117.686610514286044804066,-29.8445131005798423018405,598.657248316261757281609,-61.3296240343074146039726,162.433780878530029667672
7.29750000000000031974423,-0.364667364891402001614296,-0.212048139406656704908372,-0.212820835537390617986375,-0.0163051437074840620267135,6.88965943548173283175057e-05,0.00173831316367499956292153,-0.00640472415232008415730824,5.35250795383113552191288e-05,-0.125846459412819550172102,-0.992028997604062934279057,-0.000830551270428497856457284,0.0472523312949791191028837,9.82272151814642491274299,-0.00218615583095326752177678,0.0157505802067795068477363,0.00486285034596396856937384,1.39247443640367762895949,4.46557504752890821464462,1.29219214322506914527366,1126.0349089560370430263,1121.64772116880408248107,1116.06262719570531771751,1127.3826782910073234234,144.406508763498436564987,-72.6417527826485667219458,761.52609742868469311361,-157.475750910501744783687,162.433245840417555427848
7.29999999999999982236432,0.0711845541082445354419406,-0.0543280040578921277760749,-0.339686802178688962428055,-0.0158254903079149689126837,-0.000843170611134685574726555,0.00101182988493570902646668,-0.00638659511766808546395779,7.34241654373134596455949e-05,-0.125838585458416946094573,-0.992030111029896799479388,-0.00150708385749416529097999,0.0468831751455435208342237,9.82225188029329743244489,-0.00208887187406718230486824,0.0156959671629912436707777,0.00492004038625104122423037,1.39246004789658739397851,4.46561156123636582293557,1.29220637161674001269773,1126.45909170585855463287,1121.43745173608635923301,1118.20903035220112542447,1126.83661004390114612761,173.72625042112673554584,-57.4886117383369708022656,777.106223412755070967251,-242.893378716922313742543,162.432728026944829480271
7.30250000000000021316282,0.330625809082983945774714,0.13176735453044588486371,-0.428312489821437936132753,-0.0125442898622843967970653,-0.00109157724412177383616074,5.36042672889182024984801e-05,-0.00636821622553251746878811,9.3429160226451968534328e-05,-0.12583000530029617158867,-0.992031315360814680559542,-0.00208947467461801511534603,0.0462056977569903076785707,9.82160052099395919356084,-0.001995778743872546161231,0.0156381887596031207698921,0.00497776691678685628827949,1.39244618317480073343972,4.4656490245604967270765,1.29222053697958849660665,1126.90354020814265822992,1121.36027811011240373773,1119.94815831276901008096,1126.16821139742273771844,196.724356296185419523681,12.581444327134063243534,643.896901304074276595202,-297.89461855621721042553,162.432402573727387107283
7.30499999999999971578291,0.395729847188486472120417,0.354757869965369232456709,-0.478431883737150176472142,-0.00745494895214930241439388,-0.000846529494669419628645468,-0.00131358036188094660576264,-0.00635029565987531036813651,0.000111744431674043549133739,-0.125823865848023463964722,-0.992032207247466990551743,-0.0025971545797867298666084,0.04524934282838317944897,9.82074446067038309138297,-0.00190664096326992977756265,0.0155748962280431516025381,0.00503580690583897531975577,1.39243258440749628768174,4.4656874470134146903888,1.2922343792408501617075,1127.44271348733946069842,1121.50035895772202820808,1121.42851485872142802691,1125.3471369511200919078,222.709546953006082503634,100.577456887642583183151,521.353176280547131682397,-332.458481201418010186899,162.432189657244123281998
7.30750000000000010658141,0.278096959147823008517975,0.589360150435496166210214,-0.483011453259148126893052,-0.00241935102143088715323516,-0.000119247596177531338564048,-0.00305806657101125685047083,-0.00633361645186336294499618,0.000124162512817174312861404,-0.125821411640372138318611,-0.992032624215415381740968,-0.00309854324285127602500722,0.0440566310475797029422296,9.81966503892907560668846,-0.00182112848579993433402457,0.0155039286809249658716237,0.00509407532521798100955124,1.39241917239350065926828,4.46572654373855826293038,1.29224751552065630910704,1128.01708794290766491031,1121.86316539455060592445,1122.55492419417169003282,1124.50591899141568319465,217.47758465791105209064,195.626987318352234979102,339.549262865413425060979,-305.389545935893238493009,162.432071470227327836255
7.31000000000000049737992,-0.0226201624070099804875156,0.809556150327305545921774,-0.422974287135871152010225,0.000310087854926322404203881,0.00137215537292050297410451,-0.00513419986635684118259082,-0.0063178767520278887939722,0.000128000247827285976642483,-0.125822290686573301510265,-0.992032613358962200855728,-0.00363744930560452872647659,0.0426499759405979672610698,9.81834814333202743341644,-0.00173873747842404014971041,0.0154234372940462612089352,0.00515258268782435580046553,1.39240566603574289494816,4.46576628128338892764759,1.2922593568611642211863,1128.5301014106291859207,1122.47849389431394229177,1123.12626117304876061098,1123.82018922144038697297,176.062715968877569139295,308.423783444284026700188,105.952021326586404370573,-216.030577801534548143536,162.432068703452245017615
7.3125,-0.484628203819427727516711,1.01517501135431231773509,-0.279689872604191258620432,-0.000646941595296117791247248,0.00426264731806953994092124,-0.00735132202278174912146724,-0.00630188857998213551592226,0.000122338098833805716033479,-0.125823612117454269876404,-0.992032549485041381664985,-0.00422818955075577457281,0.0410340472899534680628619,9.81678461926202494680638,-0.00165881729441027777130491,0.0153320099386757696668937,0.00521125193507062170472643,1.39239183681947009674218,4.4658064902290162123677,1.29226977545103882683009,1128.89740152275203399768,1123.40528431177199308877,1123.08468430080461075704,1123.42576610240803347551,66.1521791700593411178488,346.130538808081951174245,-134.700586754573265579893,-43.7237274509707489755783,162.432199704865865896863
7.3150000000000003907985,-0.857746602238099620230116,1.10721717036075850693067,-0.117600753234759422549693,-0.00427918536956278187238789,0.00756208693298538337651538,-0.00819334350969204948389457,-0.00628342700305336860494565,0.00010755779708138691057491,-0.125823438893814643080304,-0.992032692960128859027691,-0.00486501489950398602335468,0.0391924837860231634056873,9.81497088355079227994793,-0.00158050443737067628814652,0.0152288024230952390158933,0.0052696924390267536192356,1.39237765606190944112086,4.46584708442394529015473,1.29227904736984822164914,1128.86086230647947559191,1124.20914658835431509942,1122.45275823927590863605,1123.60157058418553788215,-111.423512190278970024337,290.039359609597170219786,-357.243178780944049321988,190.050138122073320801064,162.432421029126714984159
7.31749999999999989341859,-1.12331939435945105110193,1.08898817080549514813015,0.0575571512090528383809307,-0.00894602904588120279028018,0.0113658317270294399736752,-0.00772296430744753761160615,-0.00626109570796526057612219,8.97069574577156754035395e-05,-0.125819753118486116205688,-0.992033307450340240407627,-0.00543270388072533000345388,0.0371123261478324278916929,9.81290879239727331651011,-0.0015027696868007141099699,0.0151136561171060796598953,0.00532696365317219741597476,1.39236298552917836524045,4.46588767405481146255397,1.29228825732822794059018,1128.34028396180065101362,1124.8554811098199479602,1121.29846840689992859552,1124.376016793018379758,-352.624919115085731391446,200.905895071177582167365,-587.277918181019913390628,461.574843009712651564769,162.432758739377362644518
7.32000000000000028421709,-1.25293796896757192449456,0.927728698878339419486849,0.248544459404798412371917,-0.0146712571356986225257213,0.0156684797833119351939679,-0.00623337041608031279527058,-0.00623612744498085094096984,7.51005568463440555549565e-05,-0.125812352633872553964167,-0.992034409285948548529177,-0.00580730571135321810283259,0.034830990874888709263324,9.8106064470514677822166,-0.00142449694443135032109748,0.014987200605819931548135,0.0053813772891347401439166,1.39234831431040428917356,4.46592719633102941401148,1.29229865060016102518148,1127.09773771090408445161,1125.21367606371018155187,1119.51636864837087159685,1125.90944479923405197042,-551.263609207456170224759,32.1542061974475927854655,-681.257657607571672997437,626.962526615229535309481,162.433298315927743260545
7.32249999999999978683718,-1.18563936990017082528936,0.685000941100197269229,0.376534220804022934370181,-0.0191462836927966083278019,0.018426311270038336215249,-0.00466686499880727707206818,-0.006209803053952537600646,6.58013603806440979838988e-05,-0.125802687394663242903547,-0.992035805097154499421208,-0.00595047035868264545532824,0.0323960371935082536154482,9.80807951620593421182548,-0.00134462199817559973843983,0.014850793790302505015255,0.00543060180471182339656533,1.39233445723213633549165,4.46596453168290619117897,1.29231045157700830117165,1125.58396591576342871122,1125.01625214080718251353,1117.89218011886214299011,1127.51082942609446035931,-677.612472481647159838758,-202.873170359184541666764,-630.727996326745369515265,645.493588329659473856736,162.433859616993487406944
7.32500000000000017763568,-0.94415080135554674267695,0.355520730726134437382768,0.468443822668340670301035,-0.022806660509482032384021,0.0200335935793419309125518,-0.00328188531974419684181243,-0.00618304457488832049510963,6.2215694086915722654102e-05,-0.125792851738759370316956,-0.99203722262390525710174,-0.00585973855851952551976325,0.0298499923170541386907573,9.80535129550702144740626,-0.00126217387638539210552302,0.0147063043455054470731724,0.00547186657919195105354015,1.39232165101692983988357,4.46599889211858780413422,1.29232392101837523235019,1123.70967534849592084356,1124.19931021191428044403,1116.36272866673721182451,1129.13691274088228055916,-858.943814215310680992843,-500.260866611610254039988,-604.903228355393366655335,642.611438515941244986607,162.434536335352959213196
