t,ang acc x,ang acc y,ang acc z,ang vel x,ang vel y,ang vel z,quat x,quat y,quat z,quat w,acc x,acc y,acc z,vel x,vel y,vel z,pos x,pos y,pos z,mot 1,mot 2,mot 3,mot 4,dmot 1,dmot 2,dmot 3,dmot 4,vbat
36.145000000000003126388,-0.129501864749412332056266,-0.321468855888110138785407,0.576645401654515832312597,0.0752296181320997736641232,-0.0207378542978680427411042,-0.0540753165663165960563852,0.00679983578867511019583336,-0.00102451549420991272487669,-0.0462446014375177266719774,0.998906271779362753271414,0.0134633334255357377945428,-0.0106805005798758095858503,9.88739140271957950290016,0.0150805007682984684030947,0.0740143028777082295777134,0.000331110317133997034307058,4.57259472022142876568296,-0.976722915048147233285647,1.74800199298287917137884,1146.16564006098587924498,1134.57424747477216442348,1148.76867968207898229593,1143.3333988284491624654,524.038248913625693603535,-152.173067314892620061073,-267.37004407514143622393,-120.07575619607673900191,155.885681604781581199859
36.1475000000000008526513,-0.238246282570342637896488,-0.159446181823787030973349,0.554054810236583539229116,0.07484393027059328684647,-0.0215436118492687879444336,-0.0524469983585447926954792,0.00687811525881781241770208,-0.00101851674885052251653961,-0.0463098218674235576064468,0.99890272984780092979662,0.0152007066832627445868154,-0.0150575553168932896319632,9.88686944078219376308425,0.0150607842576658008254542,0.0739608421495095008646459,0.000548079108641630992002081,4.57264638632784681249177,-0.976536437065130713541805,1.74800995544070225662381,1147.22116121499220753321,1134.04573005589986678388,1148.1531171875524250936,1143.2768862660345803306,343.536369383349267536687,-266.336956814999496145902,-225.263528474238455601153,58.358062005762221247096,155.885260999945870707961
36.1499999999999985789145,-0.324860025580327671512748,0.037669004969226572987484,0.491071354233274637302031,0.0745316192623557277618929,-0.0221009446014398189261918,-0.0508290654511941303317357,0.00695689663924769791797376,-0.00100032516867184237754906,-0.0463765372888427784836551,0.998899115349248467587984,0.0171160041047912631073658,-0.019216713640007307417612,9.8860240610960303797583,0.015057386562636573476559,0.0738759884442519582092856,0.000755304611681813101511929,4.57269724402707655741551,-0.976350785412469446278294,1.7480171829601547361932,1147.8833219079010632413,1133.24256269069837799179,1147.64236203970881433634,1143.62518913847770818393,181.225635864664639029797,-379.165694786558333362336,-176.45569874998795967258,224.975932904384023913735,155.884803525190676509737
36.1525000000000034106051,-0.412859780735649828375955,0.302114325002364514372033,0.382484441103973504816338,0.0737523745434531113884802,-0.0222482420763433982879853,-0.0492974359306717554995991,0.00703501861545452640556153,-0.000972086915489212477145542,-0.0464426734211688327369494,0.998895527744480871135124,0.0191829396412425412510316,-0.0230758584934995514270639,9.88488942736712239423014,0.0150718015677463543916526,0.073761858591850415489688,0.000952060210848250550175198,4.5727482221728878997169,-0.976166807015874216091333,1.7480238832309797913922,1148.12728939431599428644,1132.14990158196610536834,1147.27083869380203395849,1144.40176593055707598978,-4.4881441971460622752943,-386.662099616053183126496,-85.7144889029330272478546,318.780988579074517019762,155.884207931501947541619
36.1550000000000011368684,-0.475722758270384626921867,0.529772559306046941784984,0.278705919439358185130118,0.0726102204908142950801064,-0.0216314104009926733152014,-0.0485975764847527899603641,0.00711012068421598003586936,-0.000931975757046679177154902,-0.046510400340967601728881,0.998891882223170601839968,0.0212951368701079918333008,-0.0265860946676601539451212,9.88350325995022593872363,0.0151042681374127310545141,0.0736213277639659186002419,0.0011383243749462615586332,4.57279961214973251770743,-0.975984750983810878111058,1.74803064419759190961656,1147.86088118691532145021,1131.30925219261712300067,1147.21378959519392992661,1145.21909408137389618787,-191.674223184501613559405,-280.638908294559428213688,29.0957340311516396980096,328.544458090508271652652,155.883669830023762870042
36.1574999999999988631316,-0.529891480333093523036325,0.738632340109417806495173,0.179135993542225396835121,0.0710008071873751422931065,-0.0201061315708958854298061,-0.0485644288032054810555493,0.00718050820502215414453673,-0.000879892560251102954192726,-0.0465810580925932610218965,0.998888128055594792797933,0.0233792342592477331297829,-0.02969209567153580087151,9.88190478058921861759245,0.0151545716841522716544777,0.0734576600768010873343528,0.00131418326781331125906183,4.5728508292653078370904,-0.975804390449963254816623,1.74803769528228336582742,1147.16891827839435791248,1130.74670704049458436202,1147.41631736395765983616,1146.04448822100812321878,-373.639164226906189014699,-149.891435784607608638908,131.944997996811963503205,333.584453091327645779529,155.883085287158650089623
36.1600000000000036948222,-0.592499959557344135774315,0.933262392787164607454997,0.0790335275181036772673693,0.0689733702562310285744118,-0.0172570195443103625854153,-0.0489055595127545345013331,0.00724361012483763257174818,-0.000822032290385188435521968,-0.0466542825362256385890447,0.998884294891996704635062,0.0254881126020365944562229,-0.0323603533045332542039674,9.88013340787640537143943,0.015222220797959845617342,0.0732742639535207823664464,0.00147983585955761137720188,4.57290215885162876219283,-0.975625279455864635735907,1.74804542214754965456791,1145.99268536577983468305,1130.55979501369370154862,1147.87351458517832725192,1146.88701634683138763648,-463.080681338523845624877,22.3121749234791870719619,182.603288056222737623102,271.07265089525526491343,155.882327197387525075101
36.1625000000000014210855,-0.653657737528085314160364,1.02631645714766372989857,0.0146744236799304702406621,0.0676494615063526344433953,-0.0140991191071400626816379,-0.0492495064952273575720199,0.00729668159393062794315643,-0.000765741115966147179588974,-0.0467306504504613334782803,0.998880370367976166967594,0.027699998310279728974681,-0.0345715102602378587803855,9.87822772881777844133921,0.0153060595418201637191169,0.0730746147635941561970796,0.00163568727536043652739939,4.57295473242196237606549,-0.975447001943969604909057,1.74805434810116055999174,1144.8535148717005540675,1130.85826791511203737173,1148.32933380423924063507,1147.39985147548509303306,-459.258904892303007727605,206.048815642776446566131,169.167449671403261390878,161.255070147636843103101,155.881646526328239588111
36.1649999999999991473487,-0.73892151966922792194481,1.03087563500106393910016,-0.0352498831119632885511272,0.0668678190050746995565234,-0.0105591986085220614077773,-0.0494972405031468831726471,0.00733983518736144088107087,-0.000717265366285679438138057,-0.0468072092165905395688696,0.998876487839109539201843,0.0300728139201804287039543,-0.0362642264785333345855634,9.87622404213229820868492,0.0154050030214619524532305,0.0728620495911263543753478,0.00178205924594562617815918,4.57300904757132631317518,-0.975269229981647556293467,1.74806370955151546553452,1143.69639084132040807162,1131.59003909190664671769,1148.71935183353457432531,1147.6932916975688385719,-448.242230838284626770474,346.48331194403465360665,125.161059809742795323473,82.9881475474424519234162,155.880913502548025917349
36.1675000000000039790393,-0.849268202103224623122912,0.96132573026636514157417,-0.0816495664974848239792138,0.0661951490561337174689527,-0.00739431599015846069411495,-0.0496272489697681049025668,0.0073807270655325985658779,-0.000678641496625552540639115,-0.0468825067714314300260092,0.99887265656196733143446,0.0325793692268866452721454,-0.0372464441600114798402998,9.87415490357518166320006,0.015517462583292365024823,0.0726399405921065444147189,0.00191870063185381879537761,4.57306467840572317129499,-0.975091365148046618216426,1.74807371660854560246889,1142.61230371750798440189,1132.59068447483309682866,1148.95513910328827478224,1147.81479221322251760284,-401.730846380291040986776,433.354526165391007452854,40.2862077945222480934717,12.3857461852303760707628,155.880136271539271319853
36.1700000000000017053026,-0.98046728127671367580831,0.815348019776705346117751,-0.135617161990023271656014,0.0647731372385194764662586,-0.00522204021770892364701089,-0.049633593355051415507706,0.0074232028557850810931984,-0.000648892451305855297132019,-0.0469584797754470859021403,0.998868756817026692829131,0.0351424034210392477461937,-0.0374189949182852504838692,9.87205043537102966411112,0.0156412610608410093671061,0.0724117907360098261859704,0.00204642122479502296464315,4.57312096871066664505179,-0.974913141455799436840834,1.74808409591498192803272,1141.68773660941792513768,1133.75681172273471020162,1148.92078287250728863,1147.75522042849502213357,-359.670413530429584625381,506.483372021654304262483,-84.8601668072977730616913,-59.8880306057343574366314,155.879305231988098512375
36.1724999999999994315658,-1.13120524237988506754959,0.57583504459730061597611,-0.221468749318200625042508,0.061755493831602351062493,-0.0034684790447877477358174,-0.0495830624618014137450217,0.00747023559872412885179971,-0.000628231523032877136811236,-0.0470377858570007953420422,0.998864643196960888538172,0.0377156172055131827525187,-0.0367143791044848566418324,9.86993675466105635507574,0.0157741502066965876005522,0.0721812829655733428912967,0.0021665129065035100552894,4.5731776988906567282811,-0.974735181195717004243306,1.74809364586286264398041,1140.81395164985747214814,1135.12310133493906505464,1148.5308382692521718127,1147.51535206019411816669,-278.42813796173084028851,465.347324019092638991424,-194.550406818362318972504,-109.365311240606828846467,155.878245718761320404155
36.1750000000000042632564,-1.22343858120409976208975,0.339046597309799635500127,-0.314499497067365296754105,0.0585188052911604153494274,-0.00235633141693333868563198,-0.0495967548479833916785786,0.00752419456196169299938559,-0.000617841456548313093521951,-0.0471233214788263007899438,0.998860165801711108457539,0.0402794308700840097969831,-0.0350919564287756058362788,9.86783552937854224751391,0.0159139192197128194472544,0.0719523581216484908740227,0.00228062162796891648719466,4.57323450148875920717728,-0.974558230093714894515244,1.74810151823772841339633,1140.2955959196085586882,1136.08354834283136369777,1147.94803083841497937101,1147.20839387229170824867,-164.757293973168373213412,319.021482015178264646238,-266.845047962760759219236,-136.208559575310005129722,155.877311286722601835208
36.1775000000000019895197,-1.25163018603046194421324,0.0812479156662439666591879,-0.425451727568877668961278,0.0550711698394693860425519,-0.00177892323258333623359206,-0.0498468038693441681252772,0.00758847877600266670222728,-0.000626471428342936613453684,-0.0472131585119029764663345,0.998855388691136325540754,0.042969845045958333928926,-0.0325000841834481024594794,9.8657628234576968395686,0.0160591625969264510664924,0.071729054229211441917613,0.00239002490209592240860692,4.57329183255651106065898,-0.974382859201459061715411,1.74810737291679618721219,1139.99016517999120878812,1136.71820874501577236515,1147.19661302943768532714,1146.83430926231721969089,-89.3716261878029172294191,183.124577100246028749098,-339.571590641471232174808,-168.226399250277808050669,155.876324361653956884766
36.1799999999999997157829,-1.1870932059606476016711,-0.231168325157917076140279,-0.560999258369699438375733,0.0509169895176355136179325,-0.00196594751142131068943897,-0.0506864210571692647144815,0.00766712569088097515429547,-0.000656860235189823341711568,-0.0473038366271384264072353,0.998850447179009504061753,0.0458109836586515356549043,-0.0288959279559573151141549,9.86373074216088596699592,0.0162087329745992415885869,0.0715155066175169051856386,0.0024958888560812795762156,4.57334963985269560282632,-0.974208953801185217891145,1.7481114188082713667427,1139.84873778866995053249,1136.99917122833176108543,1146.25017288520916736161,1146.36726187604108417872,-18.3765533833760628112941,15.0716706295634796930472,-334.615554098022244033928,-163.967699637727463368719,155.875081134880900890494
36.1824999999999974420462,-1.04085260326165496280737,-0.477755114163327165854867,-0.654703129844271147774748,0.0475751238282912172761208,-0.00284632954609938433609972,-0.0520362748668875482738194,0.00775626930862781827774599,-0.000700801922242998143186554,-0.0473935181451678524955362,0.998845463725419047129606,0.048625686171833271131959,-0.0244174467928656435677937,9.86175045729413390915852,0.0163612872081310006810995,0.0713158620770490969675848,0.00260035955804500821045289,4.5734080152935154828242,-0.974036819188590641260816,1.74811540991629210672897,1139.89828241307441203389,1136.79356709816352122289,1145.52353525894909580529,1146.01447076412932801759,48.1903699431067167324727,-175.512981466500860960878,-262.60771522306851011308,-119.181380265020337105852,155.873997738400817070215
36.1850000000000022737368,-0.796233799416606435883637,-0.690993632806023105885629,-0.698405183179191535458585,0.044557573384741103184048,-0.00443729374716805499700989,-0.0542111676389204905079922,0.00784983701343435792685543,-0.000748539969162921895937113,-0.0474788679893660622854945,0.998840651683567504193206,0.0512153553136827643932349,-0.0192615725350112898528465,9.85983120147171021585564,0.0165158227847755495476534,0.0711340346624996788804651,0.00270522462645232967745623,4.57346677651933575248222,-0.973866650839072756085102,1.74812136209890356397523,1140.08968963838560739532,1136.12160632099880785972,1144.93713430909315320605,1145.77135497471567759931,104.825136074024186427778,-396.605836853020207399823,-221.340574643113995989552,-64.652909226891665639414,155.872867719051299673083
36.1875,-0.402047012127105640733049,-0.888824756837877094639566,-0.663283827800129510698923,0.0419110219535275690949661,-0.00733268749514192578337068,-0.0575876084742311597497455,0.00793937975243571951444732,-0.000787359772411425897983839,-0.047563392808158515279171,0.998835919332095700795549,0.0533313954570198145432869,-0.0136864707183887573949121,9.85798160182540428309039,0.0166705049794072177049564,0.0709737841618591075443234,0.00281207052796950303374945,4.57352507149894194071749,-0.973697986943636406564906,1.74812888927063214694613,1140.42240809344480112486,1134.81053791389740581508,1144.41683238573295966489,1145.69120621799470427504,125.318148621113607532607,-553.010270237203258147929,-164.100061226794508684179,14.9807050142180564478167,155.871461370880922459037
36.1899999999999977262632,-0.0105898795795387103829688,-0.99599619538954409225795,-0.551564514838083552739079,0.0411836585893923592949228,-0.0103646728191915931532874,-0.0604350991739582635298156,0.00802293530006796713760497,-0.000814068817976043059003732,-0.0476465386503827428854585,0.99883130686271737186388,0.0549127674486867556336023,-0.00782465506006324584831191,9.85620693729710417585466,0.016824259948460148356153,0.0708382197735841351304842,0.00292073839956492799924126,4.57358289826728814375656,-0.973530579856656919091051,1.74813692315622670747643,1140.71628038149060557771,1133.35655496981530632183,1144.11663400295992687461,1145.84625849978669975826,99.1786110404920862038125,-634.442318155918769662094,-100.201451586320800402063,111.689842184875644193198,155.870250520100995572648
36.1925000000000025579538,0.413345270935083775043495,-1.04322624290314158734816,-0.364368956798002407992954,0.0420877975501416368153684,-0.0134934830720443328655467,-0.0623581612637495591444647,0.00809957055424300430279683,-0.000833704664196345058072013,-0.0477213768905585394852764,0.99882714219401924626851,0.0560652359068612854420266,-0.0017899181844850675648928,9.85451093614822326571812,0.0169770122366952706804977,0.0707295330145005229915967,0.00303026270847535968838704,4.57364164225899916260687,-0.973364225909249536350387,1.74814557221911637263645,1140.91830114864751521964,1131.63832632311618908716,1143.91582512780109937012,1146.24965542891936820524,48.2472944074951186621547,-709.990313074468417653407,-69.0559219995622299848037,199.884600838856897553342,155.869003438923300564056
36.1950000000000002842171,0.840542365071733743597804,-1.0500476052701817053503,-0.136417828761339288146104,0.0439670601609791836250629,-0.0164667808048287699074219,-0.0632442011783966306914806,0.00816854792358863782131273,-0.000848390980792778129880582,-0.0477880483285946650040543,0.998823416790670104425942,0.0568408130713514980758561,0.00429980543189753539046194,9.85289808522003340840456,0.0171277068479188041005834,0.0706493295267186655062019,0.00313949030886415125785049,4.57370230338433358951988,-0.973198374592062043220153,1.74815498794136092719498,1140.95751685352820459229,1129.80660340444114808633,1143.77135439296193908376,1146.84568150398149555258,-39.8525884738681739349886,-732.001481888602938852273,-48.9958192386884476832165,276.916959198321762869455,155.867729685097373248936
36.1974999999999980104803,1.2490813497077772886712,-1.02825436632271793868654,0.105897915229042294260609,0.0466771283021728822237861,-0.0191472173484571149548739,-0.0629456221555854539273511,0.00822805774516479314362183,-0.000859021500835439812300554,-0.0478483633035055658244694,0.998820056444839288189996,0.0572716703116238207149635,0.01030105425908264815682,9.85137427120434416849548,0.017275234883371442390354,0.0705983852632160874263079,0.00324726574846028294765721,4.57376435123498392698593,-0.973033059229594043948453,1.7481659631359358630931,1140.71903820627835557389,1127.97831891367650314351,1143.67084603160787992238,1147.63424022490971765365,-177.202888579768398358283,-767.166290666790246177698,-41.1090860920711520520854,375.765419773541566428321,155.866427997951376482888
36.2000000000000028421709,1.6942230746479705061347,-1.0012196365056835745122,0.36963093187715923004788,0.0506580838005327924178367,-0.021833329808452310583089,-0.0615982666047977800438673,0.00827975884850651148993972,-0.000868421547001941218288379,-0.0479052850221023465704384,0.998816904617087386597518,0.0574272751171941014947109,0.0161398036001924038984612,9.84994534158942691703942,0.0174186968865769342684757,0.0705766391231443385168021,0.0033518086980753019482604,4.57382615306478079730823,-0.972867551575624101012352,1.74817887163463825395127,1140.07150241062890927424,1125.97077195110523462063,1143.56580896250147816318,1148.72450860285016460693,-292.08809381133113447504,-679.157013222555178799666,-44.1921112771753001879915,407.243434456377997321397,155.864839286860330958007
36.2025000000000005684342,2.01031133294862796034863,-1.00163990203601849238169,0.541121235794757127202104,0.0546890092810326799988019,-0.0236995709624507645829627,-0.0599313180963857231042802,0.00833369206221355740549228,-0.000885295340842535212651232,-0.0479611276058749605444298,0.998813758457913203336886,0.0574867856603770988055402,0.0219142875832562256110947,9.84861485506154110680654,0.0175577181623157475842678,0.0705831894288394684489063,0.00345006908719093768195263,4.57388724791816780879117,-0.972700883102806002078466,1.74819283825150195710307,1139.25859773722095269477,1124.58253384756199011463,1143.44988547522189037409,1149.6704573971926492959,-363.401554076848128715937,-467.385471961567759535683,-67.5648620707466420753917,358.963522550183313342131,155.863497318858350126902
36.2049999999999982946974,2.24429675137238371362969,-1.04828830839454112400233,0.64150078431121626554301,0.0598425936276483355635847,-0.025451435731285984576111,-0.0578401916159450926735452,0.00839437673241847336080834,-0.000917344856547663367943302,-0.0480151851303645196833436,0.998810606007974444153774,0.0576163886508471168035328,0.0276172072423957748465995,9.84738871701498830191213,0.0176926246937656982127773,0.0706162205541256138285888,0.00354011863378853215700293,4.57394821058577338845907,-0.972533181904347454604931,1.74820713525601756366257,1138.25449464024632106884,1123.63384459129952119838,1143.22798465214805219148,1150.51932621559944891487,-455.821570007077411901264,-288.920651440537312737433,-144.379775471651356610892,311.393184001940255711816,155.862141762119506438466
36.207500000000003126388,2.39805686940730966583146,-1.17097558486535935351469,0.668834028962417281860553,0.0672392695124995887212549,-0.0275959778948303147139143,-0.0550392292600488455822649,0.00846479503830990971657844,-0.000965288772773497771688411,-0.0480651349585096698824316,0.998807533861042373679595,0.0578472218279783151340112,0.0332111293194153611718633,9.84627467496616048947544,0.0178240611693743500332232,0.0706732185066944185170001,0.0036209210186940394074484,4.57400913349072535396544,-0.972364915303112642419592,1.74822152238638750532118,1136.97948988718439977674,1123.1379305903585645865,1142.72798659786326425092,1151.22742331720314723498,-455.905580538904871445993,-64.0034177681300207041204,-236.693432175267730599444,177.644581570575667228695,155.860505518789352663589
36.2100000000000008526513,2.40162012761850451880719,-1.32772507444078935456844,0.616074298189091318356247,0.0739111754296881001691233,-0.0295363919607674746403703,-0.0528324112284052974097825,0.00854656143752175606609356,-0.00102336629459547838287559,-0.0481102304400377114856902,0.998804570918213285857234,0.0580842294804230635518749,0.0386348660889396511297633,9.8452817126476652731526,0.0179524439993110629387729,0.0707511908306922843170383,0.003692293270384738174128,4.57406953954025041753084,-0.972196422447520025578171,1.74823573237336304941891,1135.97496673755063056888,1123.31382750245870738581,1142.04451749127110815607,1151.40754912345278171415,-364.646959317965070113132,188.94979624600540546453,-335.642749404301525828487,-42.1955083372651600370773,155.859138598779480844314
36.2124999999999985789145,2.26664713690573282889318,-1.5242771103848453684293,0.499256800505574083182125,0.0804438098997156542102616,-0.0319684250095973662708637,-0.0511903137032825306107497,0.00864220222583066133292817,-0.00109122213521897814050843,-0.0481579555795490568681494,0.99880133533182768879044,0.0583361560359474951020786,0.0438622409737435547949502,9.84441689367892180939634,0.0180770041146666136933074,0.0708469813067826026387053,0.00375403823449619190172344,4.57412906806820451777185,-0.972026651931023888408845,1.74824934235364093382259,1135.15625509059623254871,1124.08267957158773242554,1141.04977285084328286757,1151.01644577551701331686,-294.154470548105166471942,445.87224455999529482142,-495.120058843278002314037,-318.523204671574433177739,155.857773778665375630226
36.2150000000000034106051,1.95394031985220473224274,-1.76576296519352182734508,0.311933172166686922821555,0.0875605470992633083682222,-0.0358949687052262308983863,-0.0499597751777713927623381,0.00875354721715179869001577,-0.00117737205986666727645928,-0.0482130476422251708079614,0.998797572569082525717477,0.0587866387948864088652812,0.048873963906922918143394,9.84368459726625744110606,0.0181972153977252165679701,0.0709569513413635111209743,0.00380592261794491636822668,4.57418842095928468438615,-0.97185552682571652027832,1.74826235375463001631147,1134.50419438480935241387,1125.54318872525982442312,1139.56891719705345167313,1149.81493310009409469785,-171.345886981865646703227,587.718652613029348685814,-562.306666860089308102033,-556.52604399491519870935,155.856144905460837435385
36.2175000000000011368684,1.58766933105810892357113,-1.93079264451593979323718,0.138756155649185669576084,0.0923821328244695400000452,-0.0401821950677095987569665,-0.0494788293577624674335347,0.0088767782927171648421627,-0.00128452384040878366845695,-0.048270911655956746932894,0.998793528832976118536635,0.0595114517738277587488582,0.0535467759289150191381879,9.84308977656067263239947,0.0183134843874912037198222,0.0710768314804688383645725,0.0038488886517237270307179,4.57424917822449295101706,-0.971683930704556719781806,1.74827548073066574296774,1134.29952565568646605243,1127.0212728346543826774,1138.23823951654139818856,1148.2338155555410139641,-0.392222383198161161921291,587.81810037056663986732,-501.011775918096645909827,-727.456508048933301324723,155.854799486501718774889
36.2199999999999988631316,1.14739313557720867819967,-2.00333801932455735084204,-0.0259380435740960424428891,0.0956566571668965304198196,-0.0455223274419932627532503,-0.0494650197139559072434523,0.00901024189951680001819945,-0.00140734464017378078232179,-0.0483276867535724977131828,0.998789405746083880366371,0.0604254137566760801680843,0.0578069288417962512394155,9.84263492272793882875703,0.0184257322748015289759493,0.0712022451297603387043722,0.00388401492925021570717936,4.57431209449243691977927,-0.9715121520831661028339,1.74828989899976883215515,1134.50223327289336339163,1128.48227922710998427647,1137.06385831746524672781,1146.17765055985273647821,154.706893534796989797542,535.670525601698159334774,-400.818480508882714730134,-872.492104183547098728013,155.853471673168115785302
36.2225000000000036948222,0.676536351245933809117616,-1.96100752362897345904003,-0.165138130027377288966406,0.0976888849549113480463802,-0.0513697590214771127037352,-0.0498071976912962677275232,0.00914879388101635937502465,-0.00153353650282159756704226,-0.0483812413962377424470063,0.99878536413148910622084,0.0613085247450323028717278,0.0615204027567360645090133,9.84232128885835777509783,0.0185334616682236927309724,0.0713287463119085807239372,0.00391334887011287636815471,4.57437687684822957834285,-0.971340232069424214245146,1.74830574645625635987756,1135.07306012336084677372,1129.6996254626642439689,1136.23414711399595944386,1143.87135503462104679784,321.797267680011827906128,379.721023041826299504464,-206.170355986054374852756,-942.367642758808756298095,155.852162139775856530832
36.2250000000000014210855,0.204993704508334900760147,-1.74721738689930261578809,-0.253067488400730844499975,0.0983187283012419699357309,-0.0572877062579743509540542,-0.0505991427059488754758299,0.00928980478570817953809513,-0.00165317728986491118553515,-0.0484332247222110309770038,0.998781359607720520266128,0.0619832222756450806899764,0.0646199978830806487373195,9.84214458525416624468107,0.0186357819248593285788029,0.0714519748159433421008657,0.00393882857985722572430332,4.57444254208436440478636,-0.971166985391143433581362,1.7483227221288504260599,1136.11121961129424562387,1130.3808843423200869438,1136.03300653753444748872,1141.46581234605628196732,565.490385918897572992137,135.017491680523590957819,82.3022143095225118258895,-1029.8314754715463550383,155.850878882993924889888
36.2274999999999991473487,-0.320736687999644942692612,-1.2759316964221087964404,-0.276998870448896317153498,0.0975283232755071449737727,-0.0637788050283903118486961,-0.0521057471355755724706782,0.00943272863343648688971843,-0.00176412545800368214012066,-0.0484863849039303615451324,0.998777267093615361837067,0.0624212567457391176439785,0.0671011652204047959191513,9.84209353643288942237177,0.0187319958536656880343507,0.0715676627317216595969285,0.00396225181173872134654523,4.57450864568695347855964,-0.970991329837564975946407,1.7483393169415464285521,1137.90051205295276304241,1130.37471292106624787266,1136.64565818554319776013,1138.72219765726799778349,740.356491678115617105504,-147.654483157536503767915,358.138916770848084070167,-949.939582767197521206981,155.849374550276422723982
36.2300000000000039790393,-0.701826389719355070440088,-0.715249438076793531138264,-0.21892007892540776836654,0.0957926515641546322266109,-0.0682191495115028329054851,-0.0537678116871256051023664,0.00957295153722418148967144,-0.00186426523137432783271128,-0.0485438374508903869308796,0.998772984170058331088171,0.0625969256192204920319355,0.0688926525716419824174608,9.84215299940005472478788,0.0188216901752254472945936,0.0716717969000907478838158,0.00398650340609622583915028,4.57457554122525600348581,-0.970813532616797592034175,1.74835453690656272840442,1139.81300206968671773211,1129.64261192653202670044,1137.82370112138960394077,1136.71611443221786430513,832.947987342305623315042,-426.356598287393524060462,568.391002234584675534279,-717.044678589442469274218,155.84815418634877914883
36.2325000000000017053026,-1.00459893919034337628204,-0.0247328244418934389825537,-0.0818580701349537892541619,0.0931956612449004739850977,-0.07077552379390331105391,-0.0555057230820330746445812,0.00970868542958690933231125,-0.00195582032274612370448263,-0.0486037422888772191464923,0.998768615491964273367387,0.0625661885207139806253096,0.0699942155989304592988987,9.84230040782114201647346,0.0189055665799188893361205,0.0717607707740867684087505,0.00401423855460667292072152,4.57464339544801568138155,-0.970634068747323164316754,1.74836778149485150279929,1142.06525198966642165033,1128.24292992962818971137,1139.48761319671757519245,1135.13697426431895109999,1029.86451007816845049092,-723.186996532306807239365,771.239349872777211203356,-581.883505592469987277582,155.846972397520175945829
36.2349999999999994315658,-1.26666388669393814581099,0.863379735464173680981048,0.145967966897958739691532,0.0891411915275133748259861,-0.0704327952704568438502264,-0.0566618495963267382320439,0.00983344625885326610592596,-0.00203704103544052883556503,-0.0486621073826971756171034,0.998764424776539039285694,0.0623095779440886732292171,0.0703194534644968893832839,9.84251016362652997315763,0.0189850251388285935771894,0.0718316719159669547778435,0.00404904354909829070768845,4.57471130347043164476872,-0.970454593265161924442452,1.74837942159339676528873,1144.96232462007287722372,1126.02667694387378105603,1141.67989787074998275784,1133.80669690425816042989,1056.74684282808402713272,-858.617710275136232667137,779.878050135868193137867,-395.253740978867142530362,155.845603041074696193391
36.2375000000000042632564,-1.40114132440500305243347,1.56977414211185428705164,0.351134774834569285406616,0.0851831767358532526701609,-0.066496403658286740157024,-0.0558901370657690979570908,0.00994224444846962714106287,-0.00210023491990540692522793,-0.0487170899557706482685404,0.998760570799181013335044,0.0616865002512609755802586,0.0698141752574269747189106,9.84275196112062999986847,0.0190615347815009314458301,0.0718825843182352708371496,0.00409437339781544128863855,4.57477824419054091009684,-0.97027616749814371566174,1.74839085068370203579491,1147.34898620380954525899,1123.94984137825031211833,1143.38700344739891079371,1133.16070555942360442714,900.55555563102950600296,-827.298596474824648794311,603.246220776155155363085,-177.206183710086691007746,155.8445049205052725938
36.2400000000000019895197,-1.46104266314822872629975,2.1454852886174440307343,0.520620027169722776605454,0.0813386280929844773801562,-0.0590010591976174378348041,-0.0531585542381147052592993,0.0100313514242198597442579,-0.0021389832934450934281978,-0.0487672294550445875604971,0.998757182478910321421495,0.0605777761406062625892943,0.068456430795291262070279,9.8429904743002190059542,0.0191368601514363169402433,0.0719124212278444280288525,0.00415309511063352478771327,4.57484403356685831454342,-0.970099101517323036958373,1.74840232497785397214329,1149.4651023982303286175,1121.89018396149754153157,1144.69612897463230183348,1132.92066598570727364859,821.036161169305160001386,-855.180395239954236785707,451.589340872443756325083,-40.3283910799385267864636,155.843453218628638978771
36.2424999999999997157829,-1.47375108655596021023371,2.61764554653002967654629,0.642753784822863272196969,0.0772895388776050629164871,-0.0482039692728653754172363,-0.0490088184828980505391982,0.0101022042418022778981213,-0.00214647681030099082843954,-0.0488179339370401338404903,0.998754003149340818801249,0.0588481858834252191670089,0.066330286117214587449098,9.84318521200941454196709,0.0192119182848366314153576,0.0719210094108606173834985,0.00422695353278623731085872,4.57490724353468358742703,-0.969922462777388583177185,1.7484139351370540094166,1151.45416700965233758325,1119.67393940205442959268,1145.64495015175907610683,1132.95906360402409518429,616.031461736716664745472,-746.948749036616391094867,245.450398562339103136765,45.4991271657904690073337,155.842245594084602089424
36.2449999999999974420462,-1.45668647406152085288511,2.82391514013125410897942,0.674002731896250817378302,0.0741083006761888013480544,-0.0395377046065094953086749,-0.0459570757501607599082583,0.0101629931471260651770772,-0.00212420987305206440329264,-0.048875696373497971858324,0.998750634363008704674769,0.0565178005419935403086384,0.0636626881453238313568477,9.84329014368059773687492,0.0192873754675446061612742,0.0719087341138434088527731,0.00431591998695785798029201,4.57496713378967179153278,-0.96974460706039222746,1.7484244141628122459764,1152.54525970691111069755,1118.15544021631785653881,1145.92338096744288122864,1133.14816162153601908358,312.662961997124625668221,-521.69399753457264523604,32.5934365786739945747286,85.5136300236171393862605,155.84128427719429055287
36.2475000000000022737368,-1.43291672398666980470239,2.87596393420722185041427,0.658388967607427488815119,0.0708699597557355814858582,-0.0323648830620840502469981,-0.0441534638915502472555907,0.0102157638874909462850527,-0.00208339392515991027668432,-0.0489409101160464474200573,0.998747011771035531069174,0.0538044251863691869175454,0.0605686181505495080390489,9.84326052294453290869569,0.019364264995447751094293,0.0718761581789188613855757,0.00441983154167564437631022,4.5750259050156367734985,-0.969565510816074671573972,1.74843291741242423675828,1153.01748181963876049849,1117.06546941438023168303,1145.80791733465252946189,1133.38663175414239958627,95.477197682336097273037,-354.507083766066500629677,-79.1545797662870143085456,93.9419864688690324783238,155.840368320536100554818
36.25,-1.41674999371814780424472,2.8474500219716385451818,0.635197723884715625963793,0.0677747713454259353982323,-0.0264173465780799913982246,-0.0435853682305431880394941,0.010262287554836843281314,-0.00203548047624652669179701,-0.0490104249386565590795861,0.998743247605316741832837,0.0509319822598930799228967,0.0571560573306234831481021,9.84305413051274769031806,0.0194431673484805229989991,0.0718242904322484443380148,0.00453772811055695030058033,4.57508548185734564839322,-0.969386340942828050870617,1.74843997907550297021828,1153.02264569532303539745,1116.38290479748661709891,1145.52760806861124365241,1133.61787155388060455152,-86.8862299822802839344149,-161.283019546509677866197,-112.273585074728799781951,89.6386479005192455815632,155.839488187712134958929
36.2524999999999977262632,-1.42176314521540136937006,2.77522582490880376226983,0.634931273458412492871616,0.0648264307924005661609712,-0.0214400777964818337051334,-0.0438852109708914514540901,0.0103019450505090655323404,-0.00198729523181856437830106,-0.0490780630604863432608909,0.998739637386724887768708,0.0480377262935293564138917,0.0534783264106937217263749,9.84263475994286807235767,0.0195240019586225208025887,0.0717546654136961420400453,0.00466809894135706681533859,4.57514671286990459719846,-0.96920890795488456870288,1.74844740684922550499891,1152.58305066972775421164,1116.25905431664841671591,1145.24654940927939605899,1133.83482499364458817581,-257.853916469462035365723,90.3903503161010632993566,-87.8367829780932822814066,100.742992335875285903057,155.83864819112048394345
36.2550000000000025579538,-1.46052230479777289673393,2.68053738153490028750525,0.674289576530056278258485,0.0612394320116127696684849,-0.0156068786956415732347647,-0.0438638216120498247718729,0.0103388723571344112728276,-0.00194142438412868976495285,-0.0491408719172147859244326,0.998736276804806366591549,0.0451728493281498208467006,0.0496742925634463816653152,9.8419713696629518295822,0.0196052675794915545748331,0.0716695631187816151186354,0.00480773968951599475762926,4.57520979933317661902947,-0.969034036868488213301021,1.74845679489892247282512,1151.73337611297506555275,1116.83485654906735362601,1145.08842415372055256739,1134.12158651556023869489,-338.058935549415593868616,335.970481208242745196912,-18.8090526864829534758883,118.553266280271884625108,155.837681985515587257396
36.2575000000000002842171,-1.52013723350886831298112,2.60225522498743222499229,0.726208413374902383985443,0.0582273798868423106411818,-0.0102912145582463362275538,-0.0429452981115840057291244,0.0103771700234108338323225,-0.00189867350804594822027971,-0.0491959558240281091823221,0.998733262984317859967121,0.0423568729384816849981021,0.0458753519018675892660042,9.84104125465598045252591,0.0196847863848959164778663,0.0715715779571315102725038,0.00495244817512234883349898,4.57527497866928012371091,-0.968862834508886883178036,1.74846923912135232548337,1150.89275599197981136967,1117.93890672269048991438,1145.15250414584693317011,1134.42759132504625085858,-339.949799865362308537442,559.471521252507500321371,56.819909501934326101491,144.940675940365451879188,155.836908512502049006798
36.2599999999999980104803,-1.60019478673004966751137,2.51128902291757150067042,0.76233011899600000571553,0.0549326039835666760091648,-0.00438219476463949653144425,-0.0408187802195998372667418,0.0104239154089265737695991,-0.00186028196628370938447983,-0.0492444350191314009212995,0.998730463379545296831452,0.0396182090234905512349251,0.0422666031527745011953101,9.83983007080941085575887,0.0197594798612041357144253,0.0714634071952894162071956,0.005096839987856540202249,4.5753426057609445365415,-0.968695195383224794127841,1.74848608623544210516343,1150.03362711364979986683,1119.63221415532734681619,1145.37252370122996580903,1134.84628989526140685484,-370.434260825087790180987,842.877883062897922172851,103.487926599420262618878,214.811645202125106379754,155.83616488575972880426
36.2625000000000028421709,-1.70090376523568531652586,2.35979535713670607322001,0.74196818186746538170695,0.050117026171785011845472,0.00320276296053426936735753,-0.0371797705371820358388746,0.0104824427430724505944104,-0.0018295150287800405076305,-0.0492897155313583301694536,0.998727668315546934785232,0.0370324259175083825290642,0.0389560277006382460474043,9.83833487355057378920264,0.0198260166435155378572563,0.0713472769767372616556145,0.00523573317202053085950286,4.57541280395610172604393,-0.96852953070676328639621,1.74850655440242119809113,1149.04058468785342483898,1122.15329613800713559613,1145.66994377884429923142,1135.50164955105742592423,-358.769579437237723595899,963.949651165201203184552,88.9669474620859119795568,265.92203564855520880883,155.835304373055237192602
36.2650000000000005684342,-1.77247697836434880969136,2.18046275064249517328108,0.649982781309161983251954,0.0453394689312564616590073,0.00961204357566310639560125,-0.0340746075967137407314311,0.0105517236214163027951951,-0.00180777001144463863278877,-0.0493356307120049880632351,0.998724697586385490311045,0.0346462500357710007081735,0.035958740944692174634767,9.83656489996915972540137,0.0198814189991138624835632,0.0712245455442041958127319,0.00536495041575680165629736,4.57548460469617168655532,-0.968363641771269434421754,1.74852905619776577417213,1148.23977921646269351186,1124.45196241115581869963,1145.81735843854062295577,1136.17590007350486303039,-322.741249559178640993196,902.057633045526017667726,12.6674065759404292919044,294.317521346005662508105,155.834612451455910786535
36.2674999999999982946974,-1.81798986852326849295025,1.93732539000662851158552,0.476426952243644674656053,0.0405356182808355863800287,0.0152883771659752185079206,-0.0317025085606393655646151,0.0106281799781962008749625,-0.00179476538808167121463732,-0.0493852838336603233715394,0.998721438993152355045879,0.0324789112436097079927855,0.0332333504758353381891567,9.83454047418852006501311,0.0199235282789727539964897,0.0710956122890318981122348,0.00548143621704662645233164,4.57555739322225552001555,-0.968196615552453399011767,1.74855252148372564136025,1147.42687844005899933109,1126.66358430323066386336,1145.73328081172394377063,1136.97323715778611585847,-371.965018563915464255842,888.688603012588032470376,-103.724788557739572070204,375.549224927079876579228,155.833945730883613123297
36.270000000000003126388,-1.83925930183614871893383,1.58028460201651776984022,0.195596066093790932338692,0.0353102439819626551242848,0.0207658192966893202779932,-0.0300045070577113354159948,0.0107061938168364779305763,-0.00178793261623823350817131,-0.0494392663545993177320881,0.998717930611115023431523,0.0305087853292513450087498,0.0306920114088100048910235,9.83229200818608006784416,0.019951424786728171045791,0.0709600049132326077261368,0.00558339462535669545095729,4.57563083840772044652567,-0.968028137947249400774297,1.7485756802805629828157,1146.37995412364216463175,1128.8954054262210320303,1145.29873449575165977876,1138.05364619814122306707,-402.957715716887207690888,713.249466121031900911476,-211.223242657598518690065,412.961879939728248700703,155.833174608109118253196
36.2725000000000008526513,-1.83044883951704040470077,1.24268223728677895678629,-0.0714459719415653365937047,0.0312980396539977653858067,0.0243053740786524467842877,-0.0295706211826073477044741,0.010784117497725358506,-0.00178058727189297225437792,-0.0495022305947890178812187,0.998713972539994498944793,0.0286295760515367023191224,0.0283177014890797218438223,9.82985700832285758110629,0.0199645416191769793645694,0.0708169734737657680101464,0.00566953340569897271811195,4.57570357835823493530825,-0.967857393142968702726137,1.74859773638400795015002,1145.41208986147353243723,1130.22983163383764804166,1144.67716459843541088048,1139.03804655748581353691,-413.424879252910102422902,406.341957685350564588589,-285.281125550486876818468,405.304253651188730600552,155.832556563630561186073
36.2749999999999985789145,-1.79247790818814234370393,0.884738285167304239209329,-0.33293817873568848364485,0.027407542915247891379682,0.0268524568018164294658234,-0.0301546457969663478371203,0.0108572454277712452525018,-0.00177022503813979172580806,-0.0495751635463573883666477,0.998709569897204940680524,0.0268196169586543131657663,0.0260342319761261431487753,9.82728013620803331207298,0.0199638207118970935349811,0.0706654400468093579767981,0.00573951377870674395859085,4.57577465787741832770052,-0.967684595379341594423295,1.74861846238569706990518,1144.31282972737949421571,1130.92711521464593715791,1143.87232886800052256149,1140.08016746639532357221,-465.361080237187934471876,178.081620567490830353563,-334.694649840604824930779,421.977534548307289696822,155.831965109594563045903
36.2775000000000034106051,-1.72429103259634719513826,0.527082437279069115909635,-0.558713172019239645571531,0.0235098918681846021094817,0.0284400950868746553445998,-0.0316066203823237232284349,0.0109168961890171167805619,-0.00175353267522377741921558,-0.0496531866776698041499039,0.998705062303160029379967,0.0250434997929473157629587,0.0236836714495593236851079,9.82461231601016748982147,0.0199517493568038307982793,0.0705042467555884039276393,0.00579409587923905306655614,4.575843885033248348293,-0.967510847053829170505423,1.74863885911521044214112,1143.08528446028640246368,1131.12023973667555765132,1143.00369134923153069394,1141.14793423022842944192,-525.945632113738724910945,-21.2220129815596578737313,-342.118948628065083994443,430.434561312684195399925,155.831396803991964361558
36.2800000000000011368684,-1.60697538159324926354543,0.189786900842656425236754,-0.707617608174355039452053,0.0194660195782931262631354,0.0287907032432032465585348,-0.0340974045189430391422647,0.0109591577112962933193696,-0.00172890899539324040951049,-0.0497315563520952519382945,0.998700728263086423552863,0.023291162703423060054142,0.0212008373529814775348967,9.82190609967266858859603,0.0199312468137660611655626,0.070332751323707115576056,0.00583363722741805403038118,4.57591140064049195501639,-0.967337497880504826319736,1.74865886142730397878609,1141.68310156680945510743,1130.82100514973808458308,1142.16173412485932203708,1142.23234027295984560624,-660.494910217731103330152,-205.62167238509175604122,-343.449069631554664283613,483.278843701448977299151,155.830857999676481995266
36.2824999999999988631316,-1.39146974604463879998661,-0.171872560016149311667988,-0.767923444883782835290731,0.0143713652957283173627889,0.0279302773732960710195705,-0.0379710125159503364411506,0.0109800588887498922624486,-0.00169872430975497447185052,-0.0498085290966880159246877,0.998696692386363049642739,0.0216256990073410496067119,0.0185205949615139531250207,9.81921534221900138561523,0.0199050255689048744001113,0.0701509694426886432072621,0.00585857211762477476241218,4.57597779962741135761917,-0.967165644375460931136956,1.74867888404731441909234,1139.78280990920075055328,1130.09213137475103394536,1141.28644600107531914546,1143.56432844873347676184,-732.265179966987602711015,-300.025102560113055005786,-288.62449362580957767932,499.552276904495556664187,155.830247919998726047197
36.2850000000000036948222,-1.14183251357497672628938,-0.431509245199683977300964,-0.715015305407919243840809,0.0102078076842156539177919,0.0264110042214102010149634,-0.0412477154373108167995099,0.0109802348156326917694159,-0.00166490871644403418995461,-0.0498847913453538474581883,0.998692910660629262764587,0.0200916528890249870831219,0.0156646866691272090843512,9.81659248702279541021198,0.0198754090102300426390336,0.0699595261644715971094399,0.00586893977187366230885424,4.57604315693958429989152,-0.966995095954008787586531,1.74869940909164567344192,1138.02177566697264410323,1129.32087963693675192189,1140.71861165672953575267,1144.73010165748360122961,-733.627947479351291804051,-313.62592477578215266476,-188.006696897031588378013,487.28969668934576020547,155.829771899144901681211
36.2875000000000014210855,-0.825131258092295594153143,-0.653857805135053982148463,-0.574253836887217428142094,0.00673378676961629545755228,0.0245950371638809645036261,-0.0435037546138019454167178,0.0109656777022880281419193,-0.00162989132984642064172487,-0.049959276307719922838313,0.998689369879750876712876,0.0187327187218339144547663,0.0127567472171446205653211,9.8140866839791112141711,0.019844785519496782599802,0.0697593540122966870864474,0.0058642764000422994974393,4.57610783523790587423719,-0.966825645229000163460853,1.74872033950911731636779,1136.11467017180211769301,1128.52400175087132083718,1140.34641251658968030824,1146.00077693218145213905,-851.758252165747535400442,-330.570748007067379603541,-118.718812924060983959862,591.25976288422975812864,155.829332127443336730721
36.2899999999999991473487,-0.398001213721387747668246,-0.89831219144419982569616,-0.349240681461908009097783,0.00399061264394678927303062,0.0225845283629077867026957,-0.0446549671403618786413858,0.010943569027320361464195,-0.00159574064555297479711671,-0.0500305675377583011775862,0.998686065131167421959901,0.0175787595572308094626912,0.00993939796043302736805458,9.8117434880138638675362,0.019815298981287175067445,0.0695515816853530671748373,0.00584430863075072800499887,4.57617238581685548126643,-0.966656685597361509110215,1.7487420918632121669134,1133.76298440614777973678,1127.66802589690291824809,1140.12501759210977070325,1147.68640047190206132655,-848.482051967059987873654,-281.686329427285784277046,-47.4602228495071400971028,645.387638649469408846926,155.828849735160076761531
36.2925000000000039790393,-0.0389914793096158493468373,-1.10071837715415576930411,-0.152105995683035705168251,0.003205534114182357480205,0.0210288654503346904289796,-0.044621082563383429597792,0.0109175926561633773737015,-0.00156702846479958644680675,-0.0500946471284822170133566,0.998683156473182620516127,0.0167068903442968985650907,0.00728490017753577467907178,9.80960435953688225652058,0.0197891631270395440544974,0.0693373358922344251720205,0.00580956706563198060910835,4.5762374877364990766182,-0.966488311051743487212207,1.74876460411001466432879,1131.8722599119646474719,1127.11557010373417142546,1140.10911140234202321153,1149.22771512543044991617,-704.931893818960361386416,-171.60754993788347633199,21.3074355005465037038448,637.347178876135785685619,155.828488260195882730841
36.2950000000000017053026,0.271362288159782916174834,-1.31416444292035627938731,0.0177890937928509990095804,0.00419455300935788182731256,0.0192102331213995017322738,-0.0436898047004988868136088,0.0108961470991661719259769,-0.00154424243396477549675194,-0.0501509602238278673347338,0.99868058443410268054663,0.0161043264340982872351304,0.00494971936275462320864449,9.80770324449403751998489,0.0197677653598640930276975,0.0691180699766136691364338,0.00576069881496217225946843,4.57630317793658480951535,-0.966320590708092175269428,1.74878807830841864756621,1130.23832493705117485661,1126.80998814721306189313,1140.23155476961255772039,1150.87313636628437052423,-612.966583957461807585787,-62.0376980781311786472543,77.535893346591848285243,729.15247337476023403724,155.82817234250768478887
36.2974999999999994315658,0.532310704288384117788269,-1.5776826334354037140173,0.165426749381451437814761,0.00713913750559060523298571,0.0161105159027190789067241,-0.0416668532425261486928925,0.0108836239903930646899521,-0.00153200525947498394571666,-0.0502038891629282280071322,0.998678079608739222017277,0.0158386386105548379599206,0.0030116879227874704394452,9.80606707129259902444574,0.0197516724395392639923585,0.0688955219644495214792457,0.0056994200636407699178676,4.57636874985016728345499,-0.966153160372183794635248,1.74881169803841229892782,1128.80742699218012603524,1126.80538161334379765322,1140.49679086907462988165,1152.87347749230093540973,-405.619554454844376323308,65.4779332838763110657965,113.570904541426088485423,718.638827539912881547934,155.827849999430924299304
36.3000000000000042632564,0.631752371862489225939896,-1.78582373851654607754824,0.241515020534481150704664,0.0103718731622965392585867,0.0124349527205608809121706,-0.0399486809958751534765931,0.0108837409331337207213375,-0.00154114234300566500628082,-0.050255747288380177295597,0.998675470769501805179402,0.0160960803301653104790958,0.00153735474421001772071804,9.8047135235250522100614,0.0197416735330890151522976,0.0686714932076497308610641,0.00562804706663608093897277,4.57643422664886756479063,-0.965986127800011917798884,1.74883373773678174600832,1128.21022716477591529838,1127.13737781363261092338,1140.79940929231997870374,1154.46633050398577324813,-90.2121807498581347317668,200.908423046837015135679,138.785820181303222398128,595.136622864097489582491,155.827631564574261346934
36.3025000000000019895197,0.606637193525052631493111,-1.95126250053768446335312,0.291292815934368454211523,0.0134186700286098910955834,0.00772367943128218423232134,-0.039362730948308562173299,0.0108930119054421754160034,-0.00156906529741168915617622,-0.0503050399647856222307141,0.998672867970001765236532,0.0168046744145925533442387,0.000435075383952571170809165,9.80365312449746362233327,0.0197387750345577039912115,0.0684477163939508082002305,0.00555119400920750429712092,4.57649994254848646590972,-0.965820631354758041275943,1.74885311595852588339994,1128.3563660884306045773,1127.8099237285784965934,1141.19071996998150098079,1155.8491606066229451244,186.785662138378739882683,314.183279300472520390031,175.197502803871600463026,497.386715251648070079682,155.827468535106362423903
36.3049999999999997157829,0.498216642808020304666883,-2.05742418284261852079453,0.344305465095407825515395,0.0158960040293053585236382,0.00256612382901337185425739,-0.0399720232545816636648972,0.0109034234931650805822123,-0.00161023033428424832379233,-0.0503487163271083906779246,0.998670515625228016887149,0.0178373358194790151975972,-0.000481700241453802968649711,9.8028875329271425442812,0.0197440467069973125957549,0.068225904680458984707947,0.00547462772818426476190146,4.57656557090523019581951,-0.965657478960654125366148,1.74886951283339464602307,1129.14415547546695961501,1128.70829421013354476599,1141.67539680633854004554,1156.95326408024175179889,455.158899312487108090863,386.434814777054668866185,223.174243854030635247909,350.576309737471603966696,155.827353832686753776215
36.3074999999999974420462,0.334027624165551928481221,-2.06793417621245989579393,0.420730225537336632868346,0.0173864600073925928969132,-0.00293704225883126973650761,-0.0412079006990994645143189,0.0109097461415630613001948,-0.00165844059975242758345204,-0.0503865987588522565299165,0.998668488609405824441012,0.0190505358102694699606872,-0.00134816759048853040958704,9.80240779589074762156997,0.0197580643797185574739306,0.0680078028563758651969806,0.00540378611460185127868261,4.57663022930585672298776,-0.965496612087878514074646,1.74888343531341661218903,1130.63216058499097016465,1129.74209780246201262344,1142.30659118925063921779,1157.60204215530870897055,771.384664715620715469413,436.846884782020651982748,318.68385813333657097246,156.719073114219867193242,155.827300173238342040349
36.3100000000000022737368,0.145333783435597524436034,-1.94857330898318692469218,0.529528757978412700779813,0.0176631743304767122038079,-0.00998604443000727405588268,-0.0416030508060880530041281,0.0109115684261892643969194,-0.0017054923926662227465223,-0.0504234305350960768099533,0.998666564810391510498278,0.0202567530127498451886225,-0.00220870246702833950003253,9.80219481176085594142933,0.0197805567731563179678655,0.0677950209047108870441534,0.00534318992504141752203362,4.57669269984655802119278,-0.965336959996413557227868,1.74889485027469815392465,1133.00107879904703622742,1130.89252863404476556752,1143.26881609700603803503,1157.73685944581325202307,917.657984837191065707884,366.661213821629416997894,387.721523439115060227778,-64.844743302649959559858,155.827309782214001643297
36.3125,0.0493630870946493161000035,-1.73517259650711874741091,0.601672171211072304153333,0.0166040495252960766670025,-0.0159246037400546242013277,-0.0401742454488432723658242,0.0109142782262264970843946,-0.00175150043896222119138573,-0.0504616478880912586180152,0.998664557208007397370864,0.0214271146532598738554398,-0.00298655823016524823998452,9.80221976874471678797818,0.0198113048415590256579044,0.0675885462046916796197138,0.0052954914424721841528787,4.57675322861837141630303,-0.965177871929250308369319,1.74890426094688544722544,1135.22045050917927255796,1131.57540387157109762484,1144.24519880644720615237,1157.27781843879529333208,871.403016014275067391281,173.335359994255981064271,419.265390862273534366977,-293.651745967457486585772,155.827381853091878838313
36.3149999999999977262632,0.0679201686211321487007808,-1.42044792121302032583685,0.604044425183319910743762,0.0146058516077180438469396,-0.0210740868020544147576345,-0.0370395088055584451036673,0.0109180154452790372648918,-0.00179684104710796312305565,-0.0505012661132556786580672,0.998662457313108653522704,0.0225456902098096351183543,-0.00370687398616967311859582,9.80244930416245097148931,0.0198497785817141614295167,0.0673885154428212479471583,0.00526302188975768907297503,4.57681336977984809522013,-0.965019211767232598653266,1.74891336934315821949326,1137.35809387911444900965,1131.75920543401525719673,1145.3651430513154991786,1156.26860071597729984205,843.98028000889576105692,-64.5857500338149037588664,505.736629532580536761088,-539.136377666815633347142,155.827523097202885082879
36.3175000000000025579538,0.245454403625090605833847,-0.976047319384719558321706,0.486201617181657830268904,0.0122011270039249618973853,-0.025487505321943788177963,-0.0327995182626688239202473,0.0109242987523258394677583,-0.00184093097391199419024521,-0.0505438080283545990156746,0.998660169528320040832625,0.0235800106083382532418113,-0.00436667145080535390455623,9.80284606094004828946709,0.0198944169531618357538161,0.0671944264909993260737053,0.00524679905037734629902335,4.57687498864688535604728,-0.964860317094501596102418,1.7489226023949133725921,1139.44035190922591027629,1131.25247512140185790486,1146.77388195411140259239,1154.582136550459836144,634.846014258976424571301,-309.885356759628564304876,506.875203758422571809206,-662.499108450881408316491,155.827775172088365707168
36.3200000000000002842171,0.507834922047578074533192,-0.602614815225793853947778,0.285781339504773190807185,0.0114408562854869545050152,-0.0273389580611948651567289,-0.0301402395374836366837012,0.0109336382314990775838082,-0.00188177048986660610391253,-0.0505903401923759946101633,0.998657638274069614503503,0.0244755786321276189165808,-0.00498086372614595096486312,9.80337170575639937908363,0.0199429535834223098378359,0.0670051048110451574757462,0.00524685804420641117851165,4.5769391473782574664142,-0.96470117280832545780811,1.74893313315097964633082,1140.53232395041095514898,1130.20977865021632169373,1147.89951907010890863603,1152.95610517372119829815,263.592920187887614247302,-523.963666561097852536477,413.970713080210771295242,-647.063612056033093722363,155.828055512576412411363
36.3224999999999980104803,0.838018449688240463224531,-0.29475371986132703483463,0.0102308903182976723700293,0.0131135202105508216069429,-0.0273566790510800759983479,-0.0292181389526281476420877,0.0109452522474804674751381,-0.00191569114110838015392624,-0.0506407728820555472215581,0.998654885975164274825033,0.0251519996915565424711048,-0.00558697450686207464087829,9.80398941832264725348978,0.0199927626505565642078821,0.0668188063528163816995331,0.00526241344538970132194144,4.57700509877733541230782,-0.964541937709303076609046,1.7489453590189159015722,1140.75831651016414980404,1128.63265678859875151829,1148.84373551951057379483,1151.34681849018261345918,-118.201838750777383779678,-764.750444144801690526947,348.728741824246583291824,-648.120481929923130337556,155.828409999950110886857
36.3250000000000028421709,1.23718086898437817922058,-0.0694671358991448550934678,-0.347139077383309457847105,0.0176178871720945179335516,-0.0258420332034442548629904,-0.0300337137276616358838588,0.0109618557675971711046214,-0.00194382435040856482375005,-0.0506937009159179954864705,0.998651954867186053554917,0.0256253455114019285110416,-0.0061440625589003483586481,9.80466444915068180421258,0.0200412430035034859476806,0.0666334031364166773370172,0.00529112806733202534897886,4.57707231562718597217554,-0.964382310660662711576663,1.74895816578244511774187,1139.94131475665676589415,1126.38602642949035725906,1149.64316277923103370995,1149.71550276406992452394,-472.68399965117544070381,-833.798683979312954761554,227.758357631930152820132,-514.578346553080791636603,155.828921812358316856262
36.3275000000000005684342,1.52674227308955923199107,-0.0328448663923727179891898,-0.621151225231921788605405,0.022507877406902809108713,-0.0240308336831925595244996,-0.0320548098537087391979306,0.010985243214468986411303,-0.00196927783215302808911273,-0.0507481513800187022944499,0.998648873096852240927035,0.0259572473866023084587695,-0.00662131677959509890030176,9.80536742840121533504316,0.0200857703895182086728521,0.0664465516856075216756139,0.00532998789188867186372711,4.57714038110334797693213,-0.964221975339685899442088,1.748971399667542225842,1138.394896511907063541,1124.46366336870005397941,1149.98252730767080720398,1148.77392675741589300742,-764.136616577492645774328,-720.659563034697043804044,67.7428457309977147815516,-264.856290103457354234706,155.829420406338755356046
36.3299999999999982946974,1.74194631119364684579409,-0.1599818319777765451839,-0.825608927838734851789582,0.0276117029049220349956606,-0.0226714160371541267879891,-0.0351260992763346574507821,0.0110200359212480614168328,-0.00199950405260860067380158,-0.0508022183980748609499756,0.998645674271686711875873,0.0262972791836947050736484,-0.00692204845324022322028412,9.80607487223507767737374,0.0201240550268517552623404,0.0662558480831213353345888,0.00537479038131197586758425,4.57720979473830880124297,-0.96406141317963367498578,1.74898594358350534250235,1136.12063167377277750347,1122.78272861432014906313,1149.98187700788571419253,1148.39122131355384226481,-989.513574057803793948551,-596.783081901152627324336,-49.9824989306688465262596,-55.7758074124818676864379,155.829993352525434602285
36.332500000000003126388,1.89134841774873940778434,-0.405921554197880951608823,-0.952504801109604115616492,0.0325601092236399644597178,-0.0222279599168672299669414,-0.0386103608313174764821163,0.0110649540295786677490675,-0.00203628242932396216757773,-0.0508525396277238403430765,0.998642536217280718524592,0.026694711588575684158009,-0.00706469099577324011196566,9.80677329369270189829422,0.0201542458548149075459044,0.0660588640498882689877647,0.00542187915765122551564614,4.57728047930519466035548,-0.963901467369855380340482,1.74900225744776238734346,1133.44732864161551333382,1121.47974795919276402856,1149.73261481301733510918,1148.49504772035334099201,-1103.63909983564485628449,-405.389723600748709486652,-147.56852226739010802703,145.442035385183942253207,155.830627201245675905739
36.3350000000000008526513,1.97026179414698066061362,-0.754483034600531676794333,-0.982109992885831339926028,0.0372774083619445209536458,-0.023203702433802691346143,-0.0417833855851373128786896,0.0111213902509195577961165,-0.00208008601271226058540553,-0.0508985798413595647016194,0.998639465259804071095573,0.0271742751822441064302183,-0.00701076730838921802213548,9.80745734633361365695237,0.0201745769922152227981993,0.0658534918126840174146253,0.00546704352339119972747916,4.57735150265263612823219,-0.963741806240841714092937,1.7490215919553702139666,1130.60243617459173037787,1120.75577999631536840752,1149.24403439654838621209,1149.11843149048013401625,-1206.16030746442106647009,-180.178509222405580203485,-254.26700176658803798091,353.10632461774105195218,155.831333141806965159049
36.3374999999999985789145,2.00145092641056487892115,-1.22523233138725951008041,-0.921395524821578160157287,0.0428984888631601807285065,-0.0260414033986462872816148,-0.0448389370454060146031772,0.0111888364593604617419631,-0.00213516841187642554891757,-0.050941421253503295363263,0.998636400080493813469218,0.0278390435385376042165539,-0.00675016867106631446304732,9.80813052342545965700538,0.0201837201046480840815889,0.0656378876140853301235367,0.00550622548492226988187115,4.57742308503826933474556,-0.963582376308253829577666,1.74904406451602745242724,1127.41652710429889339139,1120.57885541308155552542,1148.46127980418555125652,1150.26057934344044042518,-1072.02473823017226095544,35.6464376338680679623394,-309.52491678042486000777,440.05945715912497462341,155.832261571218907647562
36.3400000000000034106051,1.98799211443121670583878,-1.61017273784043379869502,-0.810237699688540868869779,0.047689926690117290242199,-0.0296276490212495635656609,-0.0468841778069437609133274,0.0112651280883037975544259,-0.00220363555362844973709024,-0.0509873735338395583926996,0.998633036757810232941779,0.0287523733529098102223998,-0.00630314823005229118990655,9.80880497342334578547707,0.0201803262550681698772603,0.0654106849616929442170488,0.00553619019149667167950524,4.57749583072868748701012,-0.963422385151945670500595,1.74906841570534177243701,1125.24231248343812694657,1120.93401218448479994549,1147.69640981264547008323,1151.31872877627688467328,-714.835959872469061338052,213.893870153405885048414,-319.547545299856437850394,383.883793962180845937837,155.833101404765130837404
36.3425000000000011368684,1.94940497497486164846237,-1.9290669041128034599808,-0.661380931677397088108705,0.0524377871257026978435434,-0.0344239000766301400657809,-0.0484369570093839407753933,0.0113443395522035660183402,-0.002282317262838972227873,-0.051038607003123223626595,0.998629337088632551555634,0.0298772420503128494084777,-0.00576636691302870318942553,9.80950115040183590053857,0.0201643493009891552891766,0.0651707219481834909569073,0.00555529820154480099420047,4.57757004967733749367653,-0.963261981558367508249319,1.74909369140942905218594,1123.84234730493471943191,1121.64832476384913206857,1146.86354207768545165891,1152.17999831325232662493,-399.843576783905348293047,352.522306995572307641851,-373.743418928437449721969,266.899918866844814147044,155.834007844470335157894
36.3449999999999988631316,1.8932277956748084779548,-2.17626660742408306603579,-0.46591150097616718106508,0.0575492575204329115390323,-0.0414937665527056881442647,-0.0496644312922282088473835,0.0114207742944566117276883,-0.00236554176052766827048623,-0.0510937720039826986928588,0.99862544700273470077434,0.0311248278711442616373262,-0.00523344296994873725559216,9.81024502800400099999933,0.0201371646825084030241193,0.0649172801017082468089114,0.00556306166943411947028997,4.57764469659197370532411,-0.963102010058728863484134,1.74911923290856097246149,1123.24309459952041834185,1122.69662371946105849929,1145.82769271800498245284,1152.65322837060989513702,-32.9191240344075453094774,386.669154526618967793183,-380.7210931022253816991,44.8772712691377435589857,155.835170031686345737398
36.3475000000000036948222,1.85039034156547188558761,-2.23702620309419275557161,-0.304824337261903999252155,0.0609946662665899960731331,-0.048025694430034460147283,-0.0502307090398081204640768,0.0114972912766090219066628,-0.00244687004421353286945373,-0.0511551447764607702950457,0.998621230100419809971868,0.0323783035286287282361606,-0.00463137640384245208302616,9.81106396146417125692096,0.0201007726532330156798967,0.0646505828098920126700833,0.00555908114311226379811171,4.57771775983970297119185,-0.962942160412963765736549,1.74914429195263942951044,1123.67775168476259750605,1123.58167053648321598303,1144.95993661217335102265,1152.40438466959813013091,352.803073147607904047618,331.551571167723068356281,-340.398143792625432979548,-251.759066994426007113361,155.836198600509050038454
36.3500000000000014210855,1.81509015208080715098049,-2.12736192171875382328494,-0.158653042408830130538533,0.0639017911910906150074752,-0.0545410626586106325741632,-0.0504714290214594504813128,0.0115787988709833578743202,-0.00252416447741639652854739,-0.0512238528655218836038721,0.998616575769480152580115,0.0335974258783032636577204,-0.00384481074232442820992617,9.81198569702445411166991,0.0200584061269698937790551,0.0643715854817714649982463,0.00554361820665162652321811,4.57778742534696458932331,-0.962782714753721013956067,1.74916739136633436757506,1125.00710996525936025137,1124.35438157530052194488,1144.12570199904098444676,1151.39443303563712106552,752.014844938732494483702,300.618677669536396024341,-344.686384770006668532005,-610.424828817358843480179,155.837287039751430484102
36.3524999999999991473487,1.75954370650577485157839,-1.80312403355406569716024,-0.00862286327117326584223989,0.0678723589532256588174874,-0.0616590889663951591259661,-0.0505293925383096045877984,0.0116691738740905791293923,-0.00259120142182723937895883,-0.0512976320879792863083324,0.998611569171265478495059,0.0346563639906508486054904,-0.00278656908176100337470871,9.81303780399201563966471,0.0200143500447254908680694,0.0640818598351207413532649,0.00551819389031216363250554,4.57785221594858438010078,-0.962624347574234429103512,1.74918804750588385843457,1127.43782590945284027839,1125.08476392482953087892,1143.23650468832488513726,1149.35226052551411157765,992.58003063868420667859,232.98275440785704404334,-291.624450385403122254502,-861.727276666684019801323,155.838659313894424940372
36.3550000000000039790393,1.66926768982037176947131,-1.39342310817982006909688,0.0924213380205679974066513,0.0725333140248991814491575,-0.0663354990652127440853292,-0.0504441468293792480426241,0.0117676391091889858547814,-0.00264877575692351293137894,-0.0513720254473235340975101,0.998606443167298185592529,0.0355645918593978441202275,-0.00145895383264341149676113,9.81424555292471190171,0.0199733398591274008415652,0.0637835297040301729687428,0.00548519808720906304477793,4.57791319569481025553159,-0.962467404986592112159371,1.74920581182466383651786,1129.97001011845532048028,1125.51929534734040316835,1142.66757974711322276562,1147.08579665230149657873,1069.10359449852762736555,138.487163832380332451066,-168.517293321979394704613,-978.431547384388636601216,155.839855643026425013886
36.3575000000000017053026,1.49065821212396154571422,-0.880905162954674469943939,0.166334203284952297785537,0.0783564041007395600813012,-0.0691958062069269186356024,-0.0502247950788897792873122,0.0118693308165064535797395,-0.00269946305354277962113008,-0.051445600067419272605207,0.99860132066669826667038,0.0363638292633487181237939,5.11154709060823719823929e-05,9.81563057975905550733842,0.0199392261486970173711697,0.0634793460724089458890873,0.00544766782982768812265695,4.57797244283602733361249,-0.962311609542222501367803,1.74922186745574226307554,1132.78334388194821258367,1125.77719974399178681779,1142.39391822171455714852,1144.46010278858966557891,1136.45560525472910740064,72.9488744193740359378353,-42.718171840026769814358,-1070.21475447797479318979,155.841103787281269887899
36.3599999999999994315658,1.22237332421355904266136,-0.321150104576456929539319,0.21546023151978341281243,0.0837772982674228061661381,-0.0705244361705926608996364,-0.0498544538566462122619605,0.0119687648086936691133042,-0.00274337059669110339479858,-0.0515201572901293758377506,0.998596175190159973666937,0.0370420709743876502839655,0.00163487855655850000680118,9.81720909323417778580279,0.0199144993877351968170064,0.0631725988503746699320729,0.0054087296258194198644853,4.57803093514038650369002,-0.962157330196670379507395,1.74923828960595684200996,1135.65228814472379781364,1125.88403971943694159563,1142.45398888791328317893,1141.7347228799164895463,1122.53406443248286450398,1.28835561545136023653413,121.152577192407861161882,-1067.59847765442782474565,155.842392574889800016535
36.3625000000000042632564,0.857590268073805894744055,0.249407257023655681837937,0.230579931768800927560648,0.087466866364845186065935,-0.0701047749250325591408028,-0.0492295849285910372405972,0.0120610156639876404949252,-0.00278086069112799165806149,-0.0515959725319104500762535,0.998591054746727935231831,0.0375871875551812006932551,0.00318689915345260477153033,9.81899024807741582776544,0.0199007590792075021723928,0.0628668132881475549833539,0.00537123439617915188898367,4.57808993580286038849181,-0.962005506256807585430124,1.74925611482081722058979,1138.39601420411349863571,1125.78364152206904691411,1142.99968110767690632201,1139.12211040031479569734,1136.64434414064157863322,-101.197611403761655424205,361.082456619303115985531,-1076.40040131549949364853,155.843727412233192808344
36.3650000000000019895197,0.355286535666955061163463,0.893492128015351938508104,0.204372196424948859849735,0.0895300754109665669622231,-0.0676721421458423150196992,-0.0481286003748985433126073,0.0121438809258346668701334,-0.00281023632935640740870831,-0.0516734937637218783024196,0.998585971991781118362042,0.0379409030872327190930804,0.00464528011017442676866551,9.82097502310194059305104,0.0198984766446452278343404,0.0625656596627846006697382,0.00533772715443634089560465,4.57814984836521166045031,-0.961855951098709804902853,1.74927525217312695993144,1141.33550986542991267925,1125.37805166241787446779,1144.25940117101072246442,1136.35272087333623858285,995.509141653015376505209,-201.421140841240600138917,556.900976896810675498273,-935.623579697617628880835,155.845378433644640381317
36.3674999999999997157829,-0.072183342842684031226419,1.3655199497364798322252,0.145261709083123663477366,0.0894156240914964345334326,-0.0641297182249978420243153,-0.0469750079505565909521181,0.0122212003026669624450307,-0.00283773789566951328139366,-0.0517481437556007867195618,0.998581100159653400893944,0.0381934737033584881249482,0.00606726548287706002327013,9.82315371217559096805871,0.019907898309169735212576,0.062272550689819038127748,0.00530978840215398477375697,4.57821087301227791499514,-0.961709452730435288003719,1.74929439582574453027064,1143.37355991237404850835,1124.776535817863759803,1145.78418599215842732519,1134.44399250183096228284,711.121791425749620429997,-295.280884183644275253755,686.716878079175103266607,-679.128816989422489314165,155.846792219364147058513
36.3699999999999974420462,-0.457447769686991523307995,1.74662853169205956049836,0.0564619706433093226927156,0.0876702745348867384933556,-0.0594254570793046055232622,-0.0458905609249468451893428,0.0122964433778246784445543,-0.00286760532648962836871354,-0.0518149498322562837571148,0.998576643693850130034662,0.0383970058587365797864166,0.00749478170168663138106524,9.82550840572833728003843,0.0199285335349938981519546,0.0619904747401074165957802,0.00528940634525176117675116,4.57827297139065159115034,-0.961565980487323224146223,1.74931303225591827654739,1144.8911188225554269593,1123.90164724150099573308,1147.69298556140347500332,1132.95707678839221443923,538.075229568855661455018,-436.609132214929957171989,887.953687361232823604951,-576.670941690986751382297,155.848241527782704451965
36.3725000000000022737368,-0.82796283082158983468446,2.09068598953127882111858,-0.0575325059218735057608995,0.0841632672748619525826541,-0.0532767439964778599659212,-0.045455839728343189198867,0.0123659069046755422383033,-0.00289966608453419687901897,-0.0518725787037947611013422,0.998572717575484269936226,0.0385266199746787940672021,0.00882019263035274669881858,9.82801523244564201320372,0.0199588435073364232896775,0.0617217535645276788036639,0.00527989001319952022672766,4.57833610314716654698941,-0.961425501659827763667465,1.74933002567547379868529,1146.0639360602197029948,1122.59349015678799332818,1150.22395442896686290624,1131.56063779337455343921,323.094377342038796996349,-506.102503713841826993303,931.530794407968642190099,-469.649712485885004298325,155.850017063063461364436
36.375,-1.04613640078954595047378,2.28745882664932054240126,-0.130497497297407227812016,0.0806179481379016987796504,-0.0479734800555334517380146,-0.0461818582185420725694236,0.0124283711095603596058501,-0.00293201089129053408394165,-0.0519190709900147623345745,0.998569444477047762909194,0.0385247632511904330998576,0.0099802038073563414943834,9.83064193898945859473315,0.0199970013600897049410587,0.0614676394941568310370528,0.0052844082105762300513585,4.578400283816688620675,-0.961287457537243539285043,1.74934483642562166316736,1146.50659070926644744759,1121.37113472293049198925,1152.35063953344570109039,1130.60882822596158803208,76.1609503863166139581153,-488.436167005546337804844,806.740250862919083374436,-362.866784782693571287382,155.851523389531990915202
36.3774999999999977262632,-1.17618504221120279140678,2.40149831740760744125396,-0.148076957511696638558618,0.0771150036717472980862809,-0.0423318885003617223494743,-0.0475101992720486920873668,0.0124862012412210298534232,-0.00296448900815387108090282,-0.0519572030549470681437541,0.99856665282500234326335,0.0383697873942313999462428,0.010983643470619947057898,9.83334799543797366538911,0.0200404605004371877408076,0.0612282588709208569488496,0.00530542685477427850698762,4.57846521698340502837254,-0.96114999195086281424949,1.74935746635345590327404,1146.44474081215093974606,1120.15130932176248279575,1154.25765568327778964886,1129.74630386946273574722,-121.033577356849420425533,-498.4892260334341926864,732.80012939138737237954,-378.096665022337504069583,155.853052964247979161883
36.3800000000000025579538,-1.25986828464443822994667,2.45658386413353158062023,-0.0830417137495557122761625,0.073533593634263108573812,-0.035262480491856498798775,-0.0490437819155116472291667,0.0125429199189272810865958,-0.002994647444725017683409,-0.0519949212693877615976135,0.998563894478421865130713,0.0379996838077375290176896,0.0118620922707552145514143,9.83608689942047220711174,0.0200860003165390689494618,0.0610024992767650917069311,0.00534486703704780026502608,4.57853016008025104355283,-0.961010852412177873915766,1.74936827329908939354652,1145.90142282248189076199,1118.87868859276204602793,1156.01464018040451264824,1128.71834490084893332096,-252.988383950658032972569,-408.803878469707399290201,517.711619974678569633397,-378.493666292513012194831,155.854909877984113109051
36.3825000000000002842171,-1.29716888929130380603283,2.44544007621810655095373,0.0451872069630245218330167,0.0711256128525074443613718,-0.0294112167286109012220852,-0.049969246501709724261886,0.0125981167820458823947138,-0.00301815908131414624773758,-0.0520344243331445077682673,0.998561073134401122608494,0.0373268205533114488803292,0.0125720422529755071483493,9.83880913386860456171235,0.0201311112161300653777829,0.0607876803842075028039282,0.00540438830462824492534279,4.57859527440100499973141,-0.960869439203736019905477,1.74937852038098728968407,1145.17979889239700241887,1118.10728992941290016461,1156.84621378315250694868,1127.85383553799920264282,-307.021489129881047119852,-225.293906741740357801973,163.521664111261571861178,-337.888322028209472591698,155.856471005997804013532
36.3849999999999980104803,-1.32922373658349757263863,2.38917716465340301823517,0.237492530719032757247078,0.0689139901009588884406298,-0.02365913887600438678116,-0.0503155818883365135718577,0.0126509245364284546309097,-0.00303590913708505320822706,-0.0520753084760677623088476,0.998558217857117735860584,0.0363740584994949114894247,0.0130725320538771228040531,9.84146228060675021254156,0.0201736650250892400604297,0.0605800791821385978264125,0.00548443520806711232867814,4.5786611677140554022003,-0.960725861615657872327745,1.74938937654673187793719,1144.36631537683388160076,1117.75221905905436869944,1156.83224850096007685352,1127.02890329070942243561,-330.545170886411199262511,-48.3106489358513755405511,-227.044891476200319857526,-332.956947683772057189344,155.858041184209383800408
36.3875000000000028421709,-1.37831199552225469595612,2.28591378045575188693306,0.511088766147890227742323,0.0658233033478258233728297,-0.0169178274179423472622918,-0.0498416374269282438924655,0.012698475464439452908838,-0.00304714389653080964734388,-0.0521170221130697330913506,0.998555397619531270869686,0.0351418941592802763773662,0.0132894615338206290022782,9.84399417807676968550368,0.0202115482998249905433052,0.0603754347669799434905613,0.00558470242085049028979427,4.57872778445236416899888,-0.960580400865359451678671,1.74940187239956346232361,1143.52707303796410087671,1117.86573668473351972352,1155.71098932577092455176,1126.18905079957949055824,-251.882891141675202106853,128.1482404778925285882,-594.734213347160675766645,-267.01445025814774680839,155.859929583835423727578
36.3900000000000005684342,-1.42919484173027577789128,2.18238668138701097376497,0.743627282543536050063437,0.0625468711328739379595731,-0.0116443590297593702748147,-0.0485223880997122658520482,0.0127366748357324050672235,-0.00304923642622726472767303,-0.0521591978900684191677861,0.998552694252699435395471,0.0336029647967220762572182,0.0131315336420645967230314,9.84635469102712512778908,0.0202426657167717495566794,0.0601693793472892479723413,0.00570417457133552338599536,4.57879438743739353157025,-0.960433110657014976752066,1.74941650569114459656817,1143.10690092112486127007,1118.39296026144415918679,1153.85857743422275234479,1125.69383103941800072789,-81.7016777098903759224413,283.730591675779351135134,-903.499282033547842729604,-140.735377301771904967609,155.861501967979080518489
36.3924999999999982946974,-1.48584335012526103092512,2.07520001826774258546493,0.938508712362359220904295,0.0586742254164059340304505,-0.0071374255823187567754351,-0.0460594343354398041978648,0.0127681561028462498691427,-0.00304235578450166377698083,-0.0522003847863589318101241,0.998550149533933728562829,0.0317854100657259594497894,0.0126519040125586956779813,9.84849481486610045521957,0.0202651547342221072245394,0.0599578610808890119510117,0.00584019897653464351711117,4.57886107680582554735338,-0.960284258735027096420822,1.74943308089079585521119,1143.11856464941502053989,1119.28438964311112613359,1151.19349291560729398043,1125.4853739130712710903,84.1983910101613588494729,397.964002392951556430489,-1160.28359253209350754332,-28.6329345103548753570522,155.863067097089015078382
36.395000000000003126388,-1.54563721922808938735727,1.97231407012991266647361,1.07190599773123707016964,0.0548126074523346204503405,-0.00325672129982690697347358,-0.0426675181291038888020672,0.0127951945709877338425153,-0.0030261539064809412670487,-0.0522418232154408038181437,0.998547669962529416132213,0.0297142827119702065963303,0.0119054929918804563993007,9.85037067685752099066576,0.020276881506363739204879,0.0597375627307424744705244,0.00598972764152138400367553,4.57892839420056141364057,-0.960134853419049139056085,1.74945063923921373394421,1143.52789287617588342982,1120.38278027340993503458,1148.05715947155931644375,1125.55066636686615311191,248.231381732794375238882,464.959512787562232460914,-1302.11333928283920613467,97.7386419238382728735814,155.864621642645943211392
36.3975000000000008526513,-1.61200463852639686024304,1.87219577895406885659213,1.10557722822912207760737,0.0512692353612296536358173,0.000450033909792785073462201,-0.0386619124238424538564374,0.012822844362698619311014,-0.00300292283807056465186336,-0.0522850237978197338040154,0.99854510476036695276747,0.0274696771593327393468087,0.0110131873257537649113402,9.8519437169586101532559,0.0202758124369468439862629,0.0595060867836487497606335,0.00614896892538665217065041,4.57899700675548437800444,-0.959986479768600298179138,1.74946870504381335464927,1144.35972155807962735707,1121.60918720705012674443,1144.68292621918976692541,1125.97406712269071249466,420.790753369347669377021,542.883943954250639762904,-1444.67438264627594435296,275.227170959783734360826,155.866158041929281807825
36.3999999999999985789145,-1.7026945431377917827831,1.73466731675446350635639,1.02148547979887371894847,0.0471151231522218549851999,0.00524497053868258882730613,-0.0343230804825710583694232,0.0128499972025782911028147,-0.00297590299791625862921296,-0.0523293271877181970230808,0.998542492513054491531932,0.0251616181863985807765083,0.00998305424813727970700938,9.85318440170181553128259,0.0202604342826714113601216,0.0592618087288342976215461,0.00631459045684367847178775,4.57906680591764647658692,-0.959840669350063624420955,1.7494878225686025796648,1145.63184664302070814301,1123.09719999317871952371,1140.83378755833450668433,1126.92680222166382009163,464.066712844340997889958,534.847207250913129428227,-1310.22833675489255256252,427.457479349604511753569,155.867974397759951443732
36.4025000000000034106051,-1.78506590613080518004097,1.58238959224597297570369,0.858240872817435440644829,0.0434166723924961153735502,0.00964930874660208798276884,-0.0316400482953001979669061,0.0128724996814858754640154,-0.00294535092961933009023112,-0.0523765161793332545414614,0.998539793422224541963317,0.0228479368113140846041631,0.00876637519508677298674115,9.85407224077829724251387,0.020229352062018812752342,0.0590039461790599975565819,0.00648360536768236451338199,4.57913736316324193609262,-0.959697680271056619005776,1.74950864117285487253639,1146.68005512230251952133,1124.28342324330606061267,1138.13178453541195267462,1128.11135451943982843659,350.964053004102026989131,454.467459423671584772819,-907.929525803764818192576,557.242146992517973558279,155.869461115141319851318
36.4050000000000011368684,-1.86387650778294045039729,1.36445891833363952549973,0.623229430592194710847309,0.0392552822663110034806522,0.0140306826618207328150056,-0.0299848579355035289861764,0.0128856402344142122878834,-0.00291033905591034326373889,-0.0524268207422620979851757,0.998537062687045451347956,0.0205656095017266102309428,0.00730688169144125265752621,9.85459506985342592599864,0.0201819777435027110368271,0.058732152855942174052295,0.00665314964631601949568429,4.57920832549331269234472,-0.959556834292449645218426,1.7495314912489272618501,1147.38666690804211611976,1125.36953729029823989549,1136.29413992931335997127,1129.71301295662783559237,164.991947165040073741693,452.753872901532986361417,-559.94422763447801116854,797.225664259392260646564,155.870915524980887312267
36.4074999999999988631316,-1.93541774630295004833158,1.01006050219064014150661,0.290675839100545396753716,0.0336969230561921656574853,0.0183907992797796154826884,-0.0289389672723050148106516,0.0128889445067087958507468,-0.00286820916790976555496573,-0.0524825274073201716862336,0.998534198946856355050272,0.0183131826861149954455144,0.00563316827267104636156603,9.85474754573556843695314,0.0201182198763682242026452,0.0584464887017148229664265,0.0068201778885861744430863,4.57927863095507348134561,-0.95941631298880103440041,1.74955630606414302974372,1147.50501485812696955691,1126.54719260781166667584,1135.33206339724210920394,1132.09748284073316426657,-108.121751772604682173551,414.022910442933721242298,-136.989281122553563818656,941.75602784586794768984,155.872619104321898930721
36.4100000000000036948222,-1.96148984532686365689358,0.636705285596256831404105,-0.00718901532960657552867589,0.0288238284347578817279345,0.0210056384491301186001611,-0.0286676488568357624997507,0.0128893162585937207098574,-0.00282429080529779255939737,-0.0525438169657051201699716,0.998531087631790104097718,0.0162370573201386925177303,0.00392902128913455439551683,9.85452915288583319863847,0.0200391318713385342686895,0.0581472285472040342768629,0.00698090567159621346038367,4.5793476961929817647956,-0.959275270690741255208422,1.74958241899452904277723,1146.84605814917881616566,1127.4396518425139674946,1135.6091935237002417125,1134.42179309585958435491,-425.86440108631035172948,346.384976778931729768374,309.393693507423392929923,977.510063408954124497541,155.874001276336599630667
36.4125000000000014210855,-1.93857811222286757768529,0.193304838890575036991493,-0.303904504288546872814436,0.0238834711964264131967006,0.0225017742260527064956932,-0.0289268920665845287454321,0.0128869305587082476349803,-0.00278613102110191000054806,-0.0526075637758323458315068,0.998527865593788255260677,0.0145306368191241656179225,0.00224832456514370560007876,9.85394769813632542820869,0.0199468819377734314646222,0.0578347111461388410647011,0.0071328892582080867523775,4.57941616504154502820256,-0.95913451361592272359502,1.74960913889479008354044,1145.37569285269432839414,1128.27911749170721122937,1136.8790318647800177132,1136.98503315778043543105,-801.95654420113169180695,368.527767945459800102981,718.174316031280000061088,1142.28869603729640402889,155.87534185087920945989
36.4149999999999991473487,-1.8436773957217886810156,-0.394814607070067269400937,-0.631934918848876758801225,0.0179245243168416959478328,0.0228393790259273747611513,-0.0299519338201500451290826,0.012883170764695884083495,-0.00275872825130247731340027,-0.0526721209956353617065439,0.998524585891716665031481,0.0133304900070093153979789,0.000664933920662635902232296,9.85301629961367808618888,0.0198440066917764564025095,0.0575097480018420398328871,0.00727442230489845631513646,4.57948441812223183688957,-0.958994460105424328943968,1.74963603313642690473273,1142.83627542817680478038,1129.28229068223959075112,1139.2000651038533760584,1140.13323657604087202344,-1016.04793749568534622085,373.825547964988572857692,915.312574117601911893871,1129.1281307743381603359,155.876899955571332156978
36.4175000000000039790393,-1.70586756110305004519034,-0.905945348253109017377938,-0.859563518327622566594926,0.0130748590358771375058433,0.0217123194096018497234457,-0.031581393308249113005548,0.0128789025473792576037546,-0.00274180223212577801536471,-0.0527354542782943400136553,0.998521346123637187908173,0.0126629597104533590107289,-0.000765571897058947570258169,9.85175268323581576623837,0.0197335382699769003311818,0.0571735685723239808742058,0.00740486260814686349934766,4.57955155065886820864307,-0.958855483628926141825843,1.74966250487538133029375,1140.29545316521330278192,1130.14824523153311019996,1141.45559473537036865309,1142.63067381165501501528,-1037.22244332208583728061,353.824270029736908327322,884.262848871187657096016,927.498457729032679708325,155.878154665899586461819
36.4200000000000017053026,-1.51284857561310026596857,-1.40104113200337532241235,-1.00978515561542270262407,0.00874260896677876882254754,0.0189580815863270614463065,-0.0342307864364818775770871,0.0128767648756792276593108,-0.00273656549112834702325303,-0.0528009092921708153567373,0.998517934740406953864067,0.0125738568342739030075927,-0.00195506901476349970181445,9.85017690152710834183836,0.0196183727031135866913925,0.0568280682206912524101483,0.00752398619462969417415188,4.57961621161454601747209,-0.958717261755463234784713,1.74968771509064091596031,1137.65016321156372214318,1131.05141203238918023999,1143.62137934821157614351,1144.77072886468840806629,-1022.76435604432913351047,360.748161533511620291392,799.971299286789871985093,769.693974292995108044124,155.879362279711301653151
36.4224999999999994315658,-1.28542110528727526741477,-1.85177612280222270157992,-1.07475626004406432656424,0.00519498882358585250401672,0.0148027059055507292234521,-0.0377233633759987418976323,0.0128793888193022218469075,-0.00274881687903615144069613,-0.0528690676918626215052832,0.998514272539913094739461,0.0131903521507496703651929,-0.00281583057768880484772467,9.8483104685161837466012,0.0195020490838806424827023,0.0564754250344733227384708,0.00763188056960802108097397,4.57967837202562400022998,-0.958579629048490700071739,1.74971119948548925471243,1135.1816313849963080429,1131.95198603919902780035,1145.45545123180068003421,1146.47914368311649013776,-889.688600270937513414538,341.781833697594038312673,619.904439117636911760201,563.135676828763507728581,155.880529622015529866985
36.4250000000000042632564,-1.03543127159994008401611,-2.21369027492552561398043,-1.02217857875039230819425,0.00279083577097556222862407,0.00907891954779630437621929,-0.0417135300660327612565226,0.012883216026215969784996,-0.0027754612612174369042084,-0.0529371266000850382305032,0.998510558430391603756959,0.0144617105461849870112756,-0.00339699111553437571586755,9.84617765782637732741023,0.0193882864169988844427195,0.0561179427223166479854477,0.00772997061224851064048513,4.57973858866358440877775,-0.958444028426460481462357,1.74973304249941419286074,1133.20172021020675856562,1132.76032120087802468333,1146.7209015438013466337,1147.58640724883366601716,-710.18988578825928925653,302.846172484559815529792,424.348766202011859149934,352.779479204401980041439,155.881647014445690047069
36.4275000000000019895197,-0.73168370825799988743654,-2.51167196109702128836716,-0.828900068438015003025043,0.00104731820601115192120867,0.000981317856635295030637289,-0.0458345322599872234681229,0.0128861292453080252679021,-0.00281258162224096251030625,-0.0530036288545752409806511,0.998506905317319004566912,0.0163101796428588713405716,-0.00372660277164449382780731,9.84380236895463767154979,0.019280297805041368697232,0.0557582334536000506775011,0.00781951242230207246852736,4.57979795943531531321469,-0.958311330098394531518124,1.74975431286492932869692,1131.63068195605319488095,1133.4662169016226016538,1147.57719506281182475504,1148.24304107913940242724,-428.100996042010706332803,190.55593226798060868532,229.479895646208632342677,148.322861787435897440446,155.882928446788525889133
36.4299999999999997157829,-0.484718442949831740396149,-2.6354921484203650550171,-0.582438605547148768870613,0.000118036426317650458626789,-0.00622793125317247075328764,-0.0480915130076604649400629,0.0128846454268575529023,-0.00285572695014324777137982,-0.0530669749764887260790047,0.998503454993534544925637,0.0186399179129128067522458,-0.00386682891605705236770518,9.84120837695135541878244,0.0191808341577352249596178,0.0553988629733687468204018,0.00790169768342395030524816,4.57985725690454881231517,-0.958181695718043235920902,1.74977581881185995094086,1131.06121522999865192105,1133.71310086221706114884,1147.86830102203134629235,1148.3280215577701710572,-82.7663195098764532531277,4.40649825614346468682925,78.6440325420504819931011,-27.0624271060360683804902,155.883945609175611934916
36.4324999999999974420462,-0.245180922866239880963946,-2.63530149814838754451785,-0.289431290593432311020194,-0.000735111786496556347814124,-0.0131952967913798492605171,-0.0489564592541165619077326,0.0128813626918141393290496,-0.00289987952961204883267632,-0.0531312888674767280772215,0.998499967230163987252922,0.0213292112804919636870338,-0.00376748068164045601946555,9.83841721339127239787103,0.019091521775379056286015,0.0550423917535651577304101,0.00797679058537499943715154,4.57991594806434676456774,-0.958053582024180450105177,1.74979833045382626721675,1131.21685035850418898917,1133.48824939290329893993,1147.97041522552171954885,1148.10772894360934515134,202.369961844566347508589,-221.279161811094610357031,64.8770634454772334720474,-124.445828203834025771357,155.884908833905626579508
36.4350000000000022737368,0.0380279408102294352866934,-2.51615621090998242692649,0.0630509388778003609932199,-0.00153729282273274998199541,-0.0206696859070817015591182,-0.0485645528883144467213739,0.0128817747184174578173321,-0.0029458059184170625778576,-0.0531973065661658223168828,0.9984963274884164352585,0.0243593916365904966658817,-0.0033218597731101695558209,9.83544837899957968829767,0.0190140071683638951782758,0.0546907719724938207184195,0.00804428147345589462935411,4.57997425424695858708901,-0.957926198396317762906449,1.74982208947920581110225,1132.07306503922200136003,1132.60670505316102207871,1148.19268633925889844249,1147.7057924167506826052,392.794097535424100442469,-422.892196057375372220122,138.042622219447679299265,-143.383584577686036709565,155.886000912089230041602
36.4375,0.270592340819184096201155,-2.34080839542675001041516,0.32416679293243472192998,-0.00164599156725013517910128,-0.026163847706552622457421,-0.0473117675911597437843348,0.0128890442113521706823942,-0.00299332911835888983154152,-0.0532627755882369019468925,0.998492615167601460512969,0.0276890116204920669340517,-0.00247604750000543494259375,9.83232101949643322313932,0.0189497907823242481284431,0.0543452258618774691756315,0.00810389058813559479133026,4.5800332072100191638242,-0.957799311949371845464896,1.74984683336777990803057,1133.18082084618231419881,1131.37378841261534034857,1148.66062833661931108509,1147.39081102072054818564,484.483882405888380162651,-579.244781153674239249085,277.213683097195087157161,-98.6583348310420262805565,155.886856827641935296924
36.4399999999999977262632,0.492412161336761522445471,-2.11180645997616611708736,0.523626769242226286493747,-0.000626079601422573181652986,-0.0310221161005873186100601,-0.04541466836919560989827,0.0129034848288230325624726,-0.00304013651383288610249855,-0.0533263790445022839437073,0.998488905612557542390562,0.0312321526135196994578003,-0.00123955956306573411573879,9.82905423274817202639042,0.0188998314552489138362645,0.0540064263987761541963017,0.00815579507793810082327823,4.58009296035430590876558,-0.957672684524307427089695,1.7498713318576164521545,1134.49548445124924000993,1129.7104811473952850065,1149.57875475474361337547,1147.21250074259592111048,583.421484983293225923262,-796.481867426793542108499,517.432709998555765196215,-32.3967776568513485813128,155.887655418792519412818
36.4425000000000025579538,0.734132868800853488622238,-1.79650631128753834886425,0.677302991130363407634718,0.00178819016810072349381311,-0.0362394582860107450361653,-0.0425443179588305131488823,0.0129207396050947335292003,-0.00308367741378623742495857,-0.053385986399829270243611,0.99848537850062157872344,0.0348988494229004395097427,0.000281653265372577843450586,9.82566757250886624319719,0.0188648935628314938506289,0.0536744816173302663475653,0.00820075942333686573604279,4.58015287158531769762249,-0.957546522181842996168655,1.74989510223983790737634,1136.09792827110027246817,1127.39137907547933536989,1151.24779188661341322586,1147.22882713243620855792,564.964474283835670576082,-874.00562494977600636048,693.23761660130912787281,46.9399871044730332414474,155.888546232382992684506
36.4450000000000002842171,0.910992942625508117515665,-1.51048453506452928785109,0.736242935977269752356733,0.00417537528495283850188402,-0.0400957221562255328173308,-0.0400927436842156634244638,0.0129425883943759950645003,-0.00312277453637975314915121,-0.053443614945769449264823,0.998481906353346770899293,0.038616555481126392523894,0.00209998887681187018650064,9.82217833136371254454389,0.018845115401971628682487,0.0533493908162734759015322,0.00823884334597909870345767,4.58021217142304415403942,-0.957419895920917030096575,1.74991846329999778397735,1137.32030682266986332252,1125.34045302264416932303,1153.0449428377519325295,1147.44720067811840635841,440.543417215476949877484,-810.261310782298323829309,763.626563027413453710324,124.590502946534428474479,155.889231484355377688189
36.4474999999999980104803,1.06575814690417947083745,-1.20931153332095719932227,0.740392335667274581467723,0.00659031412338716843235531,-0.0435844982187645821336552,-0.0383913590686349170955083,0.0129732006358760695169385,-0.00316270630922787458066958,-0.0534994997369654737284783,0.998478404980951750324891,0.0424348915821995548158796,0.0042782936836457396978517,9.81860207653474148514761,0.01884072735077087917821,0.0530308932839541752324308,0.00826948472105415444133314,4.58027057681982974202128,-0.957292543383487348762628,1.74994083063035699154852,1138.30064535717565377126,1123.34007252157152834116,1155.06592470174700792995,1147.85177964716831411351,339.439040138594521067716,-770.500809212641456724668,801.120415397599003881624,183.745412035656642046888,155.889856517448151862482
36.4500000000000028421709,1.20810509988056558050573,-0.903030816318421081234646,0.716733002559944765152977,0.00905028657536854734544374,-0.0466842567197011185098354,-0.037369078674373640280848,0.0130168599710834501786971,-0.0032058671342526201368528,-0.0535535858061186170742118,0.99847481326146447777603,0.0463458881608563300069648,0.00687592203598913487283539,9.81495442701678832975176,0.018851614614864519586801,0.0527186746110800893982962,0.00829202330865458706044002,4.58032800729047462340304,-0.957164683804677118850179,1.74996282073385289734802,1139.01750202336370421108,1121.48794897657899127807,1157.05054491474197675416,1148.36592773829715952161,215.543844208494874692406,-687.495338781548753104289,721.083856730405727830657,216.572935420188684929599,155.890430933741185981489
36.4525000000000005684342,1.34133380086812392661955,-0.605863180651825983247249,0.675063936589606505833672,0.0119025382779288993462252,-0.0488577814607439528393762,-0.0364419977097910005592318,0.01307259156234882174763,-0.00325548021756359978046147,-0.0536027954910251042131009,0.998471296713458578153677,0.0503637118564422281430382,0.00984753623825443402672875,9.81125248241843728180811,0.0188775380281951364602744,0.0524123628213056802493952,0.00830598169532474964182889,4.58038554669913455796859,-0.957037311741162244338454,1.74998483119612524561148,1139.37836457821867952589,1119.90259582766202584025,1158.67134398540088113805,1148.93464432426981147728,74.9603934610831430518374,-624.448777435804458946222,546.212306137291534469114,237.659378857904499682263,155.890943531960260770575
36.4549999999999982946974,1.49404226695303554706129,-0.288749271974325705247821,0.610153647667247889252451,0.0159290677016053899839321,-0.0501016467766509238090933,-0.0347171003226019597720509,0.0131364501515755498911586,-0.00331060928191508323931158,-0.053645408892621093688291,0.998467999307155573696093,0.0544255492022503312155024,0.0130833829566722459336603,9.80751531133390486161261,0.018917516098270796554015,0.0521118360294905366703055,0.00831099246373227795725569,4.5804441216923779123249,-0.956911392326569631983091,1.75000755228812798769411,1139.39230399066877907899,1118.36570508940280888055,1159.7816064454259503691,1149.55422463258560128452,-60.7288292526990005626431,-502.258137835967772844015,216.960728012034422818033,194.933797417834597354158,155.891486239083349119028
36.457500000000003126388,1.61635400656725791712631,-0.0813076594624555920587383,0.542225028890087945576681,0.0194707264191031521882724,-0.0499247055219579280449516,-0.0330123709459729172688291,0.013205608404548169892978,-0.0033709621469860057488277,-0.0536834681512002517833615,0.99846484686396419494514,0.0584823453619584959772837,0.0164949736709330829764752,9.8037625917552801979582,0.0189697398789174208333375,0.0518173727073861015157696,0.00830622233338533869084763,4.58050378257992019115363,-0.956787211266253989627728,1.75003171581692140712505,1139.07472043195502919843,1117.39130513848090231477,1159.75614762546160818601,1149.90931331135948312294,-185.041984708091973743649,-334.452467804805451123684,-244.197750877504063282686,79.9302879231209288946047,155.891877610205341397887
36.4600000000000008526513,1.73340186632965420621133,0.0441585467611721460556851,0.46020481516833111612641,0.0230406402250357689176496,-0.0486176543946860648115482,-0.0315528779717916749159023,0.0132771792486798684285176,-0.00343638508183789553526721,-0.0537176868412410218889264,0.998461838420700464880042,0.0624909583126121714879986,0.0199913479247437742003513,9.80001511561544980111194,0.019032260724743291918637,0.0515293421603900750338489,0.00829067439488724231000383,4.5805643733747727353034,-0.956664893724839537902938,1.75005714571428638848261,1138.4670940671278458467,1116.69344275037792613148,1158.56061769103780534351,1149.95387607220141035214,-315.192481507088075431966,-260.932775028696539720841,-793.587125033985671507253,-84.5141819100577009749031,155.892205523696816271695
36.4624999999999985789145,1.86141253712102727746469,0.093946911900289503671857,0.351920257695867322311756,0.0274286335249367824173916,-0.0466417624430202903962339,-0.0302806811517968114955135,0.0133498076801036487382124,-0.00350463938567165296522621,-0.0537488210977914090960006,0.998458958350923131419563,0.0663694605013703947671289,0.0235081897127626671117895,9.79629461699233239357909,0.0191029653979135800867528,0.0512481497061304872020493,0.00826332183401099970576631,4.58062564658265269912363,-0.956544016983696177014451,1.75008309513937510004666,1137.49875802442102212808,1116.08664126333860622253,1155.78821200029528881714,1149.48674240180957895063,-375.737478007011873160081,-199.310604455866155149124,-1201.85853677014529239386,-275.691546227058040585689,155.892525926026792149059
36.4650000000000034106051,1.94564999570700236652954,0.0667888968749622419229794,0.260724069523990797936364,0.0312197032859806329618824,-0.0455527123089268584643641,-0.0295890542299813430471289,0.0134220449643920308052669,-0.00357696065969297181258435,-0.0537751718320265345574249,0.998456312901961906547399,0.0701080631183339519907349,0.0269818337748087277994102,9.79262308039116646796174,0.019180067911404433123046,0.0509739931809455662503616,0.00822318286688577398946265,4.58068801538794367900209,-0.956424572802362593648695,1.75010955108377164179956,1136.58840667709182525869,1115.69688972809808547026,1152.55132500718400478945,1148.5754183410654150066,-356.77208957540580058776,-148.678575468799294867495,-1403.43018305166924619698,-477.91002163965566751358,155.89273259262520809898
36.4675000000000011368684,1.98082953692164798198405,0.0063759835375354900754985,0.177550605573373598833342,0.0354328128739840597649646,-0.0455473480687994605742297,-0.0291904413968453423089411,0.0134920593932792987068581,-0.00365358245975837573824019,-0.0537944118314322219931434,0.998454051880620419012757,0.073681777826583277901662,0.030339345036688419865456,9.78902305038199571640689,0.0192619752725832413253748,0.0507068267222114607561956,0.00816965294097152239238824,4.58075142296821802290197,-0.956306471877489960853325,1.75013712005106247815434,1135.71489757654308050405,1115.34324838599422946572,1148.77106108503335235582,1147.09719229361007819534,-337.267154183098000430618,-161.601884573121054700096,-1659.77009793319643904397,-757.839203389637873442553,155.892877769100209661701
36.4699999999999988631316,1.92403308762764746475682,-0.0520288171559892126394331,0.0957996217666485100350471,0.0416727121162933436537834,-0.0464362610303609840700645,-0.0290056461917929178651043,0.0135578698379547630398223,-0.00373283829970294262629027,-0.0538096261814392864963885,0.998452041337789863995056,0.0770321316341243539360661,0.0335031795083169658955313,9.78551714871407796181302,0.0193468012507505525421347,0.0504465210627335278181782,0.00810264853301937738871974,4.58081486308110719107844,-0.956188843856597414649912,1.75016474474895744606329,1134.90207090617786889197,1114.88888030523321504006,1144.25247451752557026339,1144.78622232412067205587,-230.759256864548831345019,-177.592304158270138714215,-1555.02400241605323572003,-899.523692458564255503006,155.892982776412452494696
36.4725000000000036948222,1.76373439320931146845339,-0.0559966301000580091162817,0.0471679990304580479265617,0.0480403664160331880794708,-0.0476217525400246810551863,-0.0291044710953545608667081,0.0136220804723389335433303,-0.00381758542781559552514725,-0.0538244340355266970288284,0.998450038142402740426462,0.0801876104628640035132392,0.0364903990433039504548418,9.78212461510142361476028,0.019433039316826130477045,0.0501927422307343190643891,0.00802195507713504563085394,4.58087802543798172649758,-0.956070923000618466680578,1.75019174305922686762926,1134.56110129221974602842,1114.45528686520242445113,1140.99594107294910827477,1142.59957383131495589623,-39.3046542076061911075158,-186.192764340144350398987,-1096.29546309355032462918,-869.961144361660103641043,155.893014360348757918473
36.4750000000000014210855,1.47057133407651630108148,0.0111317698810441539913896,0.0204167612136336718009488,0.0544482607460271272881158,-0.0488232883852751167741424,-0.0293383474302815472345429,0.0136865206195273866190965,-0.00390877715271667740964956,-0.0538422604379237626504029,0.998447827915475927262889,0.0831432289855613682050262,0.0393013319662104398943825,9.77886331968628041977354,0.0195194929411286015319416,0.049944914978229656976616,0.0079280351913303456073967,4.58094097083198725783859,-0.95595216570646179832238,1.75021803526647379278813,1134.70554763513973739464,1113.95791648353201708233,1138.77099720205501398596,1140.43641660231014611782,149.860080886582977655053,-206.119474139865019424178,-670.912657443678540403198,-818.526525479609063040698,155.892990426838537132426
36.4774999999999991473487,1.08346578524907699581092,0.141898157730460550141061,0.00942356981827514698923931,0.0592926012714764527622435,-0.0496810480309807719900839,-0.029541368268233305499626,0.0137522022249375423796902,-0.00400552602116938799570178,-0.0538643019400070963143001,0.998445336572441055622562,0.0858615716556852121010834,0.0419188910899244149277365,9.77574910517082251715237,0.0196054130698606367266823,0.0497023124436536400949649,0.00782195143116012729656017,4.58100449351584249058078,-0.955832765812027251861593,1.75024295432490117896407,1135.31040169665197936411,1113.42468949450403670198,1137.64137778573376635904,1138.5069412039206326881,352.944568630029095857026,-212.850534473073167873736,-174.480742177049108931897,-680.268370462424513789301,155.892922673408691025543
36.4800000000000039790393,0.634896368184893367114796,0.338639371523282717291181,0.0104454366204699763964747,0.0611983884741813533025834,-0.0498226354410891067447942,-0.0296055254157289240990458,0.0138197598010909965260407,-0.00410376616306620638219282,-0.053890289125783349954979,0.998442589008738501377138,0.0882458086665652424729345,0.0443161122924533856792806,9.77279532798424632744627,0.019690377231468783603141,0.0494642816724224221314188,0.00770525161427022126092723,4.58106847939995542873248,-0.955713778212903375397502,1.75026656388780255113602,1136.47027047829078583163,1112.89366381116610682511,1137.89859349116932207835,1137.03507474999628357182,619.32981622267254806502,-215.864589300125373938499,392.696768380646176410664,-528.201997939279749516572,155.892805163669976309393
36.4825000000000017053026,0.106129302476103332120161,0.62053322599534921355513,0.0136059811473330724562736,0.0603984771410395956947603,-0.048841881105905336768469,-0.0294655226429848052238647,0.0138896012355235239782436,-0.00419407681306585219949135,-0.0539187925177028667955703,0.99843969824074385588375,0.0900967481927816976616796,0.0464570960880907046774979,9.77001281901828200204818,0.0197742496261112399302817,0.0492303659199042550898007,0.00757989248885333581629009,4.58113224031549570725019,-0.955595834574372582359558,1.75028919462925003358578,1138.40705077776692633051,1112.34536654800285759848,1139.60486162763800166431,1135.86593121422288277245,773.353416161783911775274,-170.569308553304438191844,793.988954414129693759605,-341.816081308608602284949,155.892611125450514464319
36.4849999999999994315658,-0.279481309811393630049281,0.864041701521567340193997,0.00915065594472481112775508,0.0582960475464605817896846,-0.0468697977096093412741062,-0.0291749048691493512164286,0.0139635325277150546680049,-0.0042677142982760025644029,-0.0539482590394201391714724,0.998436762472734939954933,0.0912285530635153080192268,0.0483354628823444432139667,9.76740768089063315926524,0.0198571723185290011093329,0.0490003609921679170180475,0.0074476886875115373351508,4.58119542453757055966435,-0.955479099086063987655848,1.750311514903190035497,1140.33703755909618848818,1112.0408172684003602626,1141.86853826323635985318,1135.32599434345479494368,791.258987508312998215843,-71.1893289269573443789341,978.416167596151012730843,-159.134380904934459977085,155.892408886968269143836
36.4875000000000042632564,-0.581134530099909119016388,1.08066010560766967429913,-0.0100639426416167659938949,0.0561324549222485258415105,-0.0436336283337731417608651,-0.0287854853495214703384963,0.0140399611232100186841709,-0.00431865148127734063687733,-0.0539828670912523081448775,0.998433603685599746491164,0.0915128676588747164144522,0.0498840373436484352254183,9.7649821836353645210238,0.019938954090891122805651,0.0487743921321053125472744,0.00731062464715949000132467,4.58125727733680054853949,-0.955363573444727554040412,1.75033360531331405596234,1142.36334571531051551574,1111.98941990336788876448,1144.4969424656212595437,1135.07025930969780347368,850.173271900777535847737,51.328709829132208142255,1116.69991407731845356466,-90.8942198901048641346279,155.892169359556788776899
36.4900000000000019895197,-0.846641368348988510028619,1.28003254005653355207528,-0.0518699948131277899232572,0.0539867426604670463952118,-0.0387708639098499480146742,-0.0284328486294674331880117,0.0141207558679078398061746,-0.00434965728522104019132533,-0.054023058304263182893834,0.998430157009970953296829,0.0909908409641634191578063,0.0511143160172882193847954,9.76273093671249903025,0.0200199335678112634584469,0.0485525312576159384647667,0.00716992464220494139792716,4.58131822278500955292202,-0.95524944992837756974069,1.75035547647998401821212,1144.58790391860225099663,1112.29746081754615261161,1147.45203783362580907124,1134.87152324400403813343,735.294527243454695053515,177.134747159677431227465,973.240999697939741963637,-78.6087305428087432801476,155.891844926639066670759
36.4924999999999997157829,-0.996071656648913950071744,1.38930756502560792675638,-0.0982114738964870587212275,0.0522210551235908759792892,-0.0346635963181858575143934,-0.0284254775984697748147934,0.0142079712010167065472377,-0.00436847000221977140727025,-0.0540655222422637346535446,0.998426536910996587081968,0.0898020301998067871362963,0.0520491092335311489325278,9.76064300345434432415459,0.020100737951894109140083,0.0483346125380402641402711,0.00702655212114143210011541,4.58137893759890868494722,-0.955136431313942879661738,1.7503766781644873873347,1146.03981835152444546111,1112.87509363916547044937,1149.36314746410653242492,1134.67721565698411723133,454.35073616113584193954,289.360383672046168612724,591.343075833984926248377,-94.1170889120659097670796,155.891548556370253209025
36.4949999999999974420462,-1.07801414430275310785134,1.45019819516292769456811,-0.147006335235676244277414,0.0501433943506230175857219,-0.0310895894596813701649118,-0.0287617981940580177968592,0.0142991403980458568062639,-0.00438233551058395381233579,-0.0541097772735855894743473,0.998422771826765642622092,0.0880826817192649630383627,0.0526266755390898677280376,9.75870519884903941942866,0.0201814595794429160746652,0.0481203136655400653953762,0.00688188137590530976672731,4.58144008035500771569559,-0.955024371741368227617386,1.7503970186595652069883,1146.85965759940586394805,1113.74426273590506752953,1150.40875321279304444033,1134.40093779944413654448,192.403885751984290664041,429.819482037926945849904,245.408877007286690741239,-131.993526334122861953801,155.891231370001861478158
36.4975000000000022737368,-1.09786599104732474074808,1.49141281079731946590528,-0.195883187150324794556511,0.0470986194266319116441544,-0.0273947157929717230451239,-0.0294114003590159531209558,0.0143882524967667915771763,-0.0043932050836872583651771,-0.0541541880544103709782533,0.998419027283911852954645,0.0858720770487434170714636,0.0527151550020158177201068,9.75690334985620388863481,0.0202619631532422739272903,0.0479089278044058722305643,0.00673776442068634191795429,4.58150170679181911737032,-0.954913878412443128951281,1.75041680073929040162284,1147.00183778028485903633,1115.02419104935620453034,1150.59019184914359357208,1134.01724802531316527165,-81.6275597402673867009071,490.977664010755518120277,-88.8391436615620762040635,-135.788567258781426971836,155.890834065201204339246
36.5,-1.04521139551859465477435,1.51505387941150604369511,-0.220613180121054269777758,0.0439917664103217642690424,-0.0246245318087038728149807,-0.0300867640915528089529118,0.0144700042683874336574279,-0.00439816894158636013945074,-0.05419831285907178441974,0.998415416158594193341003,0.0831171229694746827032503,0.0521971864893690518094616,9.75522124425232561861776,0.0203417104629820856553923,0.0476994128369213968299256,0.0065960629241574543144,4.58156326218919041082245,-0.954804770568955074594442,1.75043617844369681080252,1146.45151980070431818604,1116.19915105596010107547,1149.96455749448500682774,1133.72199496314988209633,-326.684080162000725522375,470.569641534730692455923,-354.252823238634164226823,-96.8442711159667339870794,155.890494060337317705489
36.5024999999999977262632,-0.920132236862775787500368,1.53607034945362341815667,-0.221919106586325270979998,0.0405380528424382144403459,-0.0218007308469991625821116,-0.0308966188323050033881501,0.014545542106088358430549,-0.00439521932344712207285653,-0.0542422315002327182220654,0.998411926354798251459499,0.0797795138422644350972845,0.0510887492559507216949299,9.7536380705799121670907,0.0204199287532842513326337,0.0474903082999138040354303,0.00645783706317447445816038,4.58162463393179120174636,-0.954696662502460435817397,1.75045518621196749542435,1145.36841737947634101147,1117.37703925702771812212,1148.81892773295203369344,1133.53302666973377199611,-484.878052199726198523422,455.866530471433691218408,-491.274655809296461939084,-50.578292450674368296859,155.890149943329589632413
36.5050000000000025579538,-0.744497718678401532166333,1.55107777495463383665708,-0.201537432839384328397969,0.0374390687316401710171831,-0.0186689732027837777816881,-0.031808887000151046808849,0.0146147792533718196700265,-0.00438454727782865670560053,-0.054286907690232956424925,0.998408507906505260365293,0.07586997017277972987781,0.049391817475557597827418,9.75213185499913137732619,0.0204955771178891958672619,0.0472795406535936255099095,0.00632399662046905213647063,4.58168575592061166901203,-0.954589099326447199089785,1.75047337038253103536078,1144.02712953970444687002,1118.4784837083184356743,1147.50818421543726799428,1133.46910350089638086502,-548.882952772866019586218,404.724936738759708987345,-502.791638622709058381588,5.42307498735403825662615,155.889805646271753403198
36.5075000000000002842171,-0.5358772247891321338642,1.54403528303465309434728,-0.157503006917240118145429,0.0354864222464491424480215,-0.0149415065640385504724952,-0.0327216781645736920491885,0.0146785951255792145725421,-0.00436939124731983759980514,-0.0543301394759175201865098,0.998405256941646057633477,0.0714636342545641595203065,0.047138630048379842607531,9.75067967082840070247585,0.0205676818105305844741615,0.0470642491167279283792446,0.00619501421375699863614006,4.58174655085405024834699,-0.954481195312240959793826,1.7504904290616685180737,1142.62400261561060688109,1119.40066394072255206993,1146.30496953983720231918,1133.56014204467055606074,-572.671933828244277719932,346.517986275327075418318,-446.443782250704714442691,69.5179024584554241528167,155.88946429930800263719
36.5099999999999980104803,-0.297676797797101100329087,1.48688859215075952491247,-0.0892601567437173448738008,0.0346480933588490525032455,-0.00978079140151358675248083,-0.0333870465428358215165261,0.0147357765061033405690205,-0.00434977580558783358949393,-0.0543714059598919621785207,0.998402224610893784806365,0.0665818834616214300092807,0.0443267353501117788994179,9.74926107343309844566193,0.0206347098005462345482464,0.0468410051392566528782879,0.00607139396365043160219699,4.58180651852317666339331,-0.954372199176385382912713,1.75050604562510359052396,1141.16376987056582947844,1120.21107363969349535182,1145.27596530418577458477,1133.81669301318834186532,-465.869803876137609677244,240.975897736656804681843,-288.605676245686197489704,113.030452169492875214019,155.889061244924334914685
36.5125000000000028421709,-0.147105419937997972112953,1.38692130973537453009214,-0.0335740180106006841365129,0.0351714126763777237827391,-0.00539131802486021282500017,-0.0332890071322093292205402,0.0147865293447070871718507,-0.0043274042093090006599887,-0.054414621292399392715744,0.998399194619946639406294,0.0612846807125332210253177,0.0409931003545621897021789,9.74785716607826202562137,0.0206942549672204274824328,0.0466061522606188646800085,0.00595297988156440020801607,4.5818661098695612210463,-0.954261421974143764224152,1.75052090918387515117161,1140.29465359622872711043,1120.60554342940645256022,1144.86194115860803321993,1134.12529430551830955665,-255.321380556193958000222,100.957678163416147754106,-79.969451428728476116703,141.318307965885196608724,155.888732458154350979385
36.5150000000000005684342,-0.0799553020443636575098623,1.23239110007360763709983,0.00401995632118752610484336,0.0365554377129508889510134,-0.0015839992567633813871919,-0.0328156094236488754534165,0.0148323197043088838426028,-0.00430751477043791151932961,-0.0544601801137018989851235,0.998396108931504100425514,0.0557081172876137259430962,0.0372122685419891963132244,9.74645176204857399682169,0.0207436890223595613025331,0.0463557609938765602386468,0.00583877453390058923782258,4.58192680020504283788796,-0.954149084547693759894571,1.75053597319327058912108,1139.88716296778420655755,1120.71586203051083430182,1144.87611804704192763893,1134.5232845530181293725,-74.868267534634355797607,-5.96763517178803137852583,67.2446774417651340627344,204.515814340451953512456,155.888412176937180220193
36.5174999999999982946974,-0.106422605142976411940481,1.00100456629548251186179,0.0164852244070090928063088,0.0381432735128820893377721,0.00214237095071391926009996,-0.032259966242578770601046,0.0148720341187295549550962,-0.00428722004587871099307028,-0.0545089948888998893083979,0.998392950462857142746032,0.0498417017060441280840166,0.0330091795373134155866524,9.74503563794376326256952,0.0207796406503012419386689,0.0460860881713682710159041,0.00572781473930906656621964,4.58198929573763891198723,-0.954035780691895651806078,1.75055141064728925215377,1139.92031225855589582352,1120.57570525354753954161,1145.19816454581655307265,1135.14787337721963922377,81.7268977983112847596203,-86.6076514136250636965997,130.732749283767105907827,266.523603448376945834752,155.888038220218561491492
36.520000000000003126388,-0.203130187335326534148194,0.790434669872873585383388,-0.00234440681961806118849267,0.0387494415501954750369329,0.00458621316303193474889222,-0.0318401134276515770937799,0.0149084245311405221706691,-0.004270895626377911591387,-0.0545593076650700281593487,0.998389752132911589832531,0.0438213931131927192375031,0.0284999066828410807517002,9.74360309938026958320734,0.020798655329120192131187,0.045793837692679410789065,0.00561794315214690902909878,4.58205407216894755606518,-0.953921932403428596281003,1.75056715401508711238421,1140.29579745677597202302,1120.28282377344248743611,1145.52978179346109754988,1135.85590257026069593849,187.534603637363488815026,-142.997460986743647026742,102.226238392715913505526,338.383701298252788092213,155.887735489328662197295
