t,ang acc x,ang acc y,ang acc z,ang vel x,ang vel y,ang vel z,quat x,quat y,quat z,quat w,acc x,acc y,acc z,vel x,vel y,vel z,pos x,pos y,pos z,mot 1,mot 2,mot 3,mot 4,dmot 1,dmot 2,dmot 3,dmot 4,vbat
72.6700000000000017053026,-0.990596657544231540271085,0.178914819216025700043815,-1.36347765868254899856993,0.0127047712597179382476575,0.00210365842817070028761273,-0.0114305762934862730623164,0.00362598753277017194981968,0.00402951815395607981784565,-0.0949678344799399082321045,0.995465406234135818941411,-0.00680636762510722359564852,0.0791468816985476247838349,9.80098005552944329110687,0.00646529738925672239902021,0.00184424850141918128705598,-0.000441455195511398677202936,7.56397677618576835811837,2.15879452139513494657308,4.12892885227564043759685,1102.98365602224589565594,1111.93839073184108201531,1118.15040956251777970465,1107.25693974319642620685,-344.568129150361130541569,-270.235116161411724533536,488.601506955673016818764,204.227962482540732480629,151.149265156812248278584
72.6724999999999994315658,-0.942132962625199077422167,0.292728417438734955791091,-1.02237130612902871185099,0.00963907410599759706393286,0.00199237446077970116811717,-0.0154247304031735147505922,0.00358572187321398684264895,0.00406437829515753513281995,-0.0949527701797974188480111,0.99546683579130978980487,-0.00801186311387354355151302,0.0802385810487004219604401,9.79875942336675720412131,0.00652471332524114013690086,0.00192851694669797231289354,-0.000385435572754922644092557,7.56399578250391080302961,2.15879649042495946886788,4.12893352618128517406149,1102.15606313852458697511,1111.13987443656560571981,1119.00087758832955842081,1107.81774292796421832463,-327.309004471160108096228,-362.178319581800849391584,225.689838124868117574806,233.403513788865353717483,151.146496425507820049461
72.6749999999999971578291,-0.841987656669328732306212,0.400232641740573935607017,-0.600877523357382425928108,0.00706749735051037056982048,0.00282502914924388087714036,-0.0177319918281649245572762,0.0035371776111963347186129,0.00411990031601342388684062,-0.0949292972851389776911546,0.995469006040101911381157,-0.00975058612925652767877693,0.0808392836550881205281982,9.79664190660800571208711,0.0065746588801648903413466,0.00201600615623600577797081,-0.000350716836693379667606874,7.56401527942628781886469,2.15879705302790148024883,4.12894220149226232052797,1101.34711099989158356038,1110.12749913393372480641,1119.2788587531410939846,1108.4239573121396915667,-332.436515526417167620821,-459.273276017265061454964,-5.59254640116304724273277,248.355750325479988305233,151.143761604712324242428
72.6774999999999948840923,-0.688972041742567542499387,0.486779639019118248732809,-0.0725445605063158721614869,0.00509984307376488629759415,0.00488484530039931270223308,-0.0183258199426132376008702,0.0034858402521385192969483,0.00419067075786158909495027,-0.0949035831596321682868123,0.995471330162962519949588,-0.011903796716036793568172,0.0810561793113350886885726,9.79470538768723386624515,0.00661326227394644448193128,0.0021065532253295871784049,-0.000341970883626694797854245,7.56403626701049969227597,2.15879657783383738234306,4.12895437322567282478758,1100.49388056089401288773,1108.84350805648136883974,1118.97291485632376861759,1109.05952167959048892953,-285.531372471626355036278,-457.793972636706882894941,-202.270552536920320108038,205.122976708038663673506,151.140525245973208257055
72.6800000000000068212103,-0.555390071682686059517664,0.502433666627301156459851,0.334570195117654456407053,0.0041451940772606644947107,0.00711225772302792255685766,-0.0171275370023209402847719,0.00343889314829490429226144,0.0042685682428909941382722,-0.0948822640867352518068145,0.99547318371001525250108,-0.0143003564581986736259367,0.0810382520252328347742932,9.7930359438573919561577,0.00663918457611297786746807,0.00219984929483582570750033,-0.000362158828964538625529157,7.56405882218878655720573,2.15879573272726510424491,4.12896829883343219336211,1099.91945413753069260565,1107.83852927074576655286,1118.2675059904545378231,1109.44957219568186701508,-201.516302662113758970008,-363.074822030083339541306,-344.799672608557841613219,125.660293202129622613938,151.137870272497707446746
72.6825000000000045474735,-0.434539754961270285882335,0.448585162504708923059127,0.655972720732933112230967,0.00335839371593267023430318,0.00897708934281193915438735,-0.0145746122759055161260955,0.00340305080691210041707317,0.00434591406838038922522127,-0.0948702055377762948351617,0.995474113693169848637865,-0.016775385705823972481987,0.0809282364524780140069282,9.79172441771852852809843,0.00665184372772858155398179,0.00229531119772087783062475,-0.000412091979845136515206439,7.56408244088990322495647,2.15879532710013544161143,4.12898195278739610358798,1099.48629904758149677946,1107.02813394632744348201,1117.24891649327764753252,1109.68782314560235136014,-156.398025343611521975618,-275.68603779534504383264,-432.768481836667660900275,77.9334568788980845965852,151.135263218472005064541
72.6850000000000022737368,-0.33249200543717566391777,0.340378766928253917445346,0.881997457986283817099604,0.00271702792698695280715349,0.0101423555186635223207547,-0.0114403127112817307869941,0.00338361820349759390494371,0.00441315163841440351311096,-0.0948700684847990638459692,0.995473893203431381415669,-0.0191247903619004427921979,0.0808486815854192325536687,9.79086311240870088568045,0.00665158540252019144650708,0.00239207838775676523770941,-0.000490335116079488957628596,7.56410610899024593578588,2.15879631855681664021063,4.12899336642774628103325,1099.13746401081334624905,1106.4600990817702950153,1116.10366358127316743776,1109.83923948007600301935,-132.093836009136879283687,-152.280892044793546347137,-458.911929749282478496752,54.3280101364910734673686,151.132698686826216771806
72.6875,-0.2578757171890823651772,0.1777882147778628851853,0.983726403911880487029862,0.00226077743744380367518776,0.0108104213320940351766852,-0.00825799555006013520641606,0.00338271744803338679508098,0.00446424930639271848320515,-0.0948810085409325237870704,0.995472625412605949257738,-0.0212086889934588601613896,0.0808575612388070658065331,9.79054135094495592284147,0.00663973736899246824716414,0.00248910454397925206410092,-0.00059328514601436513169197,7.56412860001767661799477,2.15879897370451256932711,4.12900156792350436774086,1098.82582986753641307587,1106.26672948610416824522,1114.95435684453332214616,1109.95946319628455967177,-145.832204824906369822202,17.6186618307998443810902,-477.889925977777124899148,63.2385619371354934514784,151.130188264033535006092
72.6899999999999977262632,-0.201172693396326207615488,-0.0634046058315691218876253,0.971654074581117188635915,0.00167941844651144957245581,0.011332731006180356975177,-0.00475113195224496302065953,0.00339685521209761621952428,0.00449968885130308179909342,-0.0948981404798238115105846,0.995470785476917807699238,-0.0230064516977601524194696,0.0808954407055574170604118,9.79084161823375964672778,0.00661849057278053338332358,0.00258531493430544292294604,-0.000715496781578488271272076,7.56414858181785643154171,2.15880272613170332007826,4.12900583524538511426272,1098.40830298668947762053,1106.54819239092421412352,1113.71421395138645493716,1110.15543228976139289443,-169.446392571098328971857,194.929590143142320357583,-419.697675622564645436796,87.9752942960639927605371,151.127241301144977114745
72.6924999999999954525265,-0.180039527499049833991762,-0.287970234687669079942651,0.867319095442758203340361,0.00118064990155019949001625,0.0110485316911054093358402,-0.00219562749159346115926383,0.00342295283419038033970172,0.00451667835663929762013424,-0.0949190057015238258797396,0.995468630889890571111778,-0.0244390043757391206558083,0.0809206030746270205122883,9.79183666869833402301992,0.00659055641696283753955266,0.00267980083664984226540784,-0.000850357889076772750953925,7.5641655309859885392143,2.15880722809446057297578,4.12900516623149549388927,1097.97859790468169194355,1107.24137743681899337389,1112.85586846642240743677,1110.39933966776447960001,-191.563864756829332236521,370.681912135125742224773,-302.471847468002351888572,114.347388985203920697131,151.124841827333654009635
72.6950000000000073896445,-0.184478899558191411500729,-0.515974391117105080084571,0.693458540567569059476227,0.000798836910473095605095262,0.00954521014091295333381382,-0.000215982032040991177692171,0.00345873237024065666167516,0.00451492583448940849183417,-0.0949421740942769376569998,0.99546630706621985762439,-0.0254827156482614058941039,0.0809057838488207586857826,9.79358595595074987727457,0.00655877648711500772088501,0.00277182959033421636579897,-0.000990636059229349757310201,7.56418076499599578710331,2.15881195608637987959355,4.12900087822112116242579,1097.45048366290347985341,1108.40160195160342482268,1112.20185471404352028912,1110.72716923468851746293,-246.824953941427793324692,602.899520382169498589064,-241.658669287231958833218,153.433922966563784484606,151.122502310040204065444
72.6975000000000051159077,-0.217474272353197495277755,-0.77364235414405857493847,0.442121190243094430716297,0.00045670363210606278571782,0.00698563977874544148050084,0.00137218353336086840155161,0.00349704397809425708912312,0.00449658356198916545065636,-0.0949663379120786882436889,0.995463950716062528911721,-0.02615806337170319129104,0.0807275310524319805738358,9.79613492418048359411387,0.00652578838573441948056608,0.00286081438984069329894977,-0.00112904336487228466011368,7.56419525867322750656285,2.15881649751973103690261,4.12899444611867938448313,1096.74447313497216782707,1110.25587503873566674883,1111.64757511998391237285,1111.16650928259878128301,-259.052631689027350603283,736.497398150856042775558,-166.256528764566837708117,157.192721483267803250783,151.119765252148795298126
72.7000000000000028421709,-0.264948717022234603302167,-0.968547453505053224098731,0.225102833573588623217177,0.000162923768913820213788055,0.00487003971714013855764946,0.00197071086141973640659675,0.00353491211408046672459715,0.00446157619962909545580088,-0.0949918190586272193076667,0.995461538087214825587523,-0.0264555253042259158613447,0.0803509011639659403991587,9.79951311758668452966958,0.00649382759583787879525962,0.00294625107290518795447043,-0.00125874344121952304147161,7.56420946171362373888769,2.15882091490735650296529,4.12898664131950710043384,1096.15522050445952118025,1112.08408894235435582232,1111.37057207022144211805,1111.51313284210414167319,-218.402841522918976124856,756.777611344620481759193,-74.2067439789245355541425,120.973516792419985677043,151.117543329468190904663
72.7025000000000005684342,-0.325581511264928291637943,-1.14062888190655042919275,0.0312709481443043529891312,-0.000329809679294845010076587,0.00280366394559181239184986,0.00173711022332648473524841,0.00356666181595924119615559,0.00441296066964540906196746,-0.0950161349535354055051428,0.995459310173356315409876,-0.0264264866493044148221259,0.0796856347740749482166933,9.80373442563171515473641,0.0064646943730719119008965,0.00302759761899965354481346,-0.00137348798291596764335754,7.56422341368473638567593,2.15882482879506287787308,4.12897772020550490879032,1095.65245892735856614308,1114.03976309545532785705,1111.27654140008962713182,1111.77137686656033110921,-180.993633401641091040801,844.672828751840484073909,-4.84656531262303058582575,84.8155732072289652023755,151.115382477971536445693
72.7049999999999982946974,-0.399621143064671002775867,-1.31380597295482193231919,-0.146518360319241508493704,-0.00139155347892689100139374,-0.000255714630511294906210079,0.000789814553420808431426214,0.00358664492660193965148374,0.00435640827839442468238929,-0.095036895259639625477277,0.995457488830746695107621,-0.0261780364603510368182171,0.0786397426000591537320616,9.8087971678584118251365,0.00643971852134622019248056,0.003104213045550487191232,-0.00146778622686873972714994,7.5642371415121010258531,2.15882821984597583764298,4.12896804661123884017115,1095.25025233745213881775,1116.30745308610971733287,1111.34633924365834900527,1111.9372107081399008166,-101.996063613934893510304,784.555207562320447323145,47.0129890278231101774509,39.0046435387730596744404,151.112859279488930042135
72.7074999999999960209607,-0.450819099330482586651669,-1.41914168795974382497604,-0.236849510644500771405774,-0.0027934924604990506342983,-0.00359265469994085248628402,-0.000294288440875392534167715,0.00359486942714967163889361,0.00429595401396667964100118,-0.0950530230251903918148315,0.995456158834481019681562,-0.0257998732691052390375575,0.0772370411796722000641324,9.81468488244116521457272,0.00641972810408113908620109,0.00317524645400755079621691,-0.00153709794439503121682433,7.5642504846929252693144,2.15883184559702945293225,4.12895751083843709494658,1095.14247860928935551783,1117.9625391332633626007,1111.5116063452285288804,1111.96640008425401902059,11.4482421433200869387292,576.918737887921452056617,72.6773230891427033384389,0.802677678664890037474322,151.110813819304354410633
72.7100000000000079580786,-0.480856968499000503314278,-1.46804072645557548426609,-0.263453330958672404804588,-0.00468948876466146469255136,-0.00774689930605780389949455,-0.00147597571289615012851693,0.0035890372783271228505908,0.00423570522075237664710867,-0.0950654490269031426930013,0.995455224626138668320152,-0.0253819180789453813229528,0.0754582761186323863755732,9.82136910753160385922911,0.00640501579275234728810817,0.00323961199307888593132421,-0.00157785965400984631162862,7.56426387123755272767767,2.15883630309298046867639,4.12894672751023428247663,1095.30749354816884988395,1119.19204677555489979568,1111.7097258591047648224,1111.94122409653323302337,109.202966491664426484931,400.173797529214084534033,72.542170648781251429682,-7.31591883330516257188947,151.108826088613284355233
72.7125000000000056843419,-0.492830015807912913405886,-1.46259934131693669634444,-0.242114138230993591882623,-0.00668041123263074521076987,-0.0122187747434790942163696,-0.00256008942362254089328277,0.00356629906825421541874399,0.00417719463924725708386942,-0.0950774417518932685178257,0.995454381113199393560365,-0.024964752323683878088012,0.0732798957408496015597521,9.82881133869896572718972,0.00639530656985761152694137,0.00329603166981176209232585,-0.00158757154333237634688536,7.564278246433564056872,2.15884196308018339038881,4.12893689293356924707723,1095.68849344174873294833,1119.96340812091330008116,1111.87431719847313615901,1111.92982049008742251317,191.317733155839334813209,183.973247327807229112295,47.8603541222563393375822,10.0494983893532197072318,151.106884649671627585121
72.7150000000000034106051,-0.494471839170987359501908,-1.39498620386497051981678,-0.176801148630981563858455,-0.00805387722236024922173314,-0.016260458686645235665269,-0.00314296303381390819062235,0.00353131850850428889374011,0.00411554239663547080652073,-0.0950914168603617382391491,0.995453403374852996421396,-0.0244779389320578105726511,0.0708389797640979063109157,9.83696428184826920926298,0.00638981883913978913891452,0.00334310745854658232512069,-0.00156483525376729655335939,7.56429381640065212621948,2.15884913460475491575608,4.12892764922272981209517,1096.26408221394717656949,1120.11191301219309934822,1111.94902762971582887985,1111.99147158847995342512,269.819747224000650476228,-79.4936266578856702835765,9.57738446419132571918453,49.2744794714774556609882,151.104996703489234732842
72.7175000000000011368684,-0.508417530819673335606979,-1.26152257917658872088396,-0.0702805912584166248002759,-0.00847944724241753156057655,-0.0200617137816539586880893,-0.00290938495297222380481239,0.00348626433890771763104977,0.0040495211530042658776285,-0.095106093514966794089105,0.995452414706056609716711,-0.0239168667070618901071555,0.0682185283491785893206227,9.84577403514334292822241,0.00638743402779452882495059,0.00337952938096089134517586,-0.00150905525454184162928439,7.56431065341677655311514,2.1588574780220199933467,4.1289193406990660761835,1097.03759217786750923551,1119.56593998762423325388,1111.92220412079404923134,1112.17619288744458572182,273.036077164054461263731,-309.697342278704752516205,-23.9524244688472691677816,83.1231893336581606490654,151.10278959932051634496
72.7199999999999988631316,-0.542777992043408263889148,-1.12525740598080958854155,0.0284692451184066601388434,-0.00821418600359491782314514,-0.0223823680151285266115568,-0.00226471717108618674288434,0.00343141163553968347663115,0.0039840726134392091123404,-0.0951194103609935975862655,0.995451591086360831894808,-0.0233929755953720813765884,0.0654532365380454256298393,9.85518145769716902293567,0.00638683309139155726275039,0.00340432671776235784913411,-0.00142028128864050799673446,7.56432867798752006649465,2.15886648889382071203613,4.12891283971472944358538,1097.62926259976620713132,1118.56342630080098388135,1111.82926550737170146022,1112.40708753514786621963,200.537380312471697152432,-491.677487963299142847973,-40.7692349980068371451125,99.6399670606475780232358,151.100996697778356292474
72.7224999999999965893949,-0.59603758162953668353623,-0.980308051807332603289069,0.13185363536609456813764,-0.00859529116194456682675806,-0.0242383486402576661666863,-0.00163105857199107094450408,0.00337560616294495284897548,0.00391983453806495941995625,-0.0951321190625929735684707,0.995450825912191250566252,-0.0229478860218769592504984,0.0627531191554785011676998,9.86512397929498163762219,0.00638659388924204488718894,0.00341705090110567405448094,-0.0012992147369366025943388,7.56434750942494016356932,2.15887623981717302612537,4.12890840287150062692945,1098.04027907942895581073,1117.10755254780997347552,1111.71835794580420042621,1112.67439272274737049884,124.144723992127353540127,-713.389750816108062281273,-41.368863574745859068571,114.23663756818973524787,151.099249864463700987471
72.7250000000000085265128,-0.650174432117421208232599,-0.803876474623932191221343,0.266711531508496357822935,-0.0107259532650571826756236,-0.0266017214915008140541097,-0.00107840268691640375590957,0.0033273660928148790505432,0.00385987319347145694733991,-0.0951443518024915058095559,0.995450065886467339026922,-0.0226679360574932597938158,0.060316047693805087404062,9.87553745227926782490613,0.00638535065058246174146683,0.00341790049545913571585332,-0.00114680833627766286253458,7.56436649125728521880774,2.15888656264326206368764,4.12890631506737193490153,1098.24998621972804357938,1114.9964775467135496001,1111.62242118949757241353,1112.97827072298991879507,31.459353627663539043624,-811.125118967062348929176,-26.0962173815137674637299,101.014673527820690424051,151.097205632283191789611
72.7275000000000062527761,-0.659165165448826750882461,-0.654537405644279313143841,0.395075166641929875765982,-0.0135977152717409802140658,-0.0288029314211001481738084,-0.000746117060553619869910091,0.00328865369595888719714272,0.0038077537708897861261359,-0.0951553781498992723442143,0.995449360966341179057792,-0.0226344434698753788071102,0.0582076576572410978038796,9.88635842647442153463544,0.00638183502721831330539715,0.00340783356774535450481323,-0.000963970821847125918305221,7.56438493664238276181777,2.15889658774914927619193,4.12890584773678881447267,1098.19757584756757751165,1113.05192695296682359185,1111.58787685889637941727,1113.17946609038745009457,-51.2720444873150640319182,-789.301583124451326511917,-10.0955207049174493505461,63.5402962856128752378027,151.095545191885634039863
72.7300000000000039790393,-0.61077358004916115774563,-0.50487275274238274658245,0.544467771477705753113696,-0.0164220637790227497188056,-0.0308143147999759836608291,-0.000339873265447325121312028,0.00326040299125535289193056,0.00376268131007735694495975,-0.0951654350707153290356288,0.995448689376875917034226,-0.0228383843246020845629829,0.0564774475966524983072681,9.89752475536761977537026,0.00637483255537991608252746,0.00338858415082665979586873,-0.000751429745882192562551893,7.5644030896655065632217,2.15890556754254347993083,4.12890592081152441039649,1097.99362599729170142382,1111.04996963109488206101,1111.57194358597303107672,1113.29597220441769422905,-86.0197608135295155307176,-790.821557370000732589688,-12.4446770108192552584114,31.1669999290472041764133,151.093930076019631769668
72.7325000000000017053026,-0.516434524454130849946409,-0.363190372369234459881682,0.707408933087654401283828,-0.0185513607823876297553412,-0.0322145422451496840632323,0.000360086004731869323280957,0.00323495856781277511468597,0.00372361143221655111271162,-0.0951703718604249709889231,0.995448477740284554116101,-0.0232464083645357727503367,0.0550013495222727785693984,9.90897641098083958866027,0.00636320133663839920118432,0.00336249403792293058076956,-0.000509529805802262474034858,7.56442137690088767243424,2.15891263119563880934493,4.12890637580071739876075,1097.76747704350032108778,1109.09781916612041641201,1111.52565347384233973571,1113.33530109003254437994,-67.0403982958005570935711,-744.893517169152687529277,-36.1153319664355123563837,0.229442406407751542385398,151.092353647285676743195
72.7349999999999994315658,-0.384499885418396691871834,-0.248454878431768694246884,0.870482614160917655965477,-0.0197479472000468524173211,-0.0324822350301884194001545,0.00173083807369752958396636,0.00320452315854502208306021,0.00368924081077249286023112,-0.0951691331854530031542083,0.995448857608368098404128,-0.0238171812850270919748041,0.0536461243103480284188933,9.92065448639325175861359,0.00634585932370012803516168,0.00333236628550055702380206,-0.000238278657686858151348516,7.56444019573841508474743,2.15891747439699965838145,4.12890712521086822306415,1097.65842400581300353224,1107.32550204525250592269,1111.39136692614101775689,1113.29711941644973194343,12.9233093996053174379313,-704.730403276293827730115,-82.2029089315785341796072,-24.218370379252718294083,151.090825998754610282049
72.7374999999999971578291,-0.213736039017797641026419,-0.162399915833988328639492,1.03284863886742250826956,-0.0203194045071874752894647,-0.0319224067968732136413301,0.00446818451302287596160756,0.00317252975312518016234864,0.00365403715023415688253894,-0.0951631545152678004484414,0.995449697482033490913977,-0.024444586210617361143882,0.0525013280198231915840701,9.93250050030843212311993,0.00632189691083273261340558,0.00330117380279873516915612,6.24914946825326164409758e-05,7.56445935721241013993676,2.15892072067600615525862,4.1289073807224019319051,1097.8320935904982889042,1105.57416714974215210532,1111.11463892918482088135,1113.21420923813639092259,132.889827400897843290295,-552.652096284421190830471,-111.561296322189775764855,-24.6049319330491975676978,151.089052899684759267984
72.7399999999999948840923,-0.0829298564998240672618834,-0.138663413704287585836994,1.11214767160009597724013,-0.020268366739181069985376,-0.031332796104575864892805,0.00766310279205912030925374,0.00314421201429031585417029,0.00361621394111431545062563,-0.0951532987690659887158873,0.99545090271506886381303,-0.0250976309373783096345889,0.0516791193068291201950792,9.94445647663946274974478,0.00629072209390538379658597,0.0032717896175142938131053,0.000393169635265750122381234,7.56447850108623054410373,2.15892310049134206195731,4.12890745181959406551186,1098.32287314281688850315,1104.56224156383291301609,1110.83356044453057620558,1113.17409475678459784831,280.456104231738208909519,-278.606492865408597481292,-99.4205208351001914479639,7.86122518600977393532503,151.08762845388042705963
72.7425000000000068212103,0.0155281631964012331592606,-0.154549620133160342527745,1.10504169435995480696988,-0.0198684855665937319668668,-0.0311243834680121900237992,0.0114010325628806797465531,0.00312268472488553281221635,0.00357939288729848797271371,-0.0951373419377351675629839,0.995452660771803943262626,-0.0258468300275828816170431,0.0512341682449684934774758,9.95646516473474285646716,0.00625213312872436970113466,0.00324678163557943176564802,0.00075426504246942885530125,7.56449725737487099763712,2.15892503901908394681186,4.12890856982440457301209,1099.23437411165969024296,1104.18113468541241672938,1110.61753632500835919927,1113.25351536406651575817,499.326517520729737498186,11.8720596212595150831248,-44.5400006570301698616277,84.6512242716199665437671,151.086262921340278353455
72.7450000000000045474735,0.0820743662541569551915899,-0.191713921368862505456576,0.98201047970543475784666,-0.0191811887490499002884015,-0.0316577544062090626697525,0.0156912225801939982094968,0.00310600479883793361909894,0.0035449254246177584748434,-0.0951131710160262738851245,0.995455172484156269874234,-0.0267076363978942937782435,0.051119878998431969585603,9.96847175742391655717256,0.00620630420045158864850166,0.00322833667577069466370077,0.00114625981168275090961439,7.56451573349194372752891,2.15892637920379470983789,4.12891118107645027635044,1100.81950573042536234425,1104.62160186193932531751,1110.61086044124499494501,1113.59735087814351572888,654.706128116781428616378,326.724007493227645682055,63.3718396742673348853714,181.622667904668219307496,151.084696805000504582495
72.7475000000000022737368,0.0906693588655917009910823,-0.213843765841682215134156,0.788673135342409792336582,-0.0186002242037235435145881,-0.0328628054999839103178516,0.0185395191432849472390476,0.00309389592793386444813386,0.00351239983838628772733204,-0.0950833903189487739116004,0.995458189576130636488926,-0.0276637866388629721781101,0.0513208330307711527162873,9.98042302497564293162213,0.00615374838448190519812897,0.00321823587258620496046047,0.00156962076116554062263364,7.56453414192561623963229,2.15892706865766381696403,4.12891527165012917066633,1102.50790475224061992776,1105.81475472287706907082,1110.93439552337940767757,1114.16162870358903091983,731.162776198453798315313,650.354501363608846986608,214.762196981941769990954,293.727892550344904520898,151.083455402749166296417
72.75,0.0528732668755025961293548,-0.204826750357764653109882,0.521502759073259158917324,-0.0182954510750179891176437,-0.0347494832155129662609738,0.0204176915544822777659473,0.00308687900866344957021004,0.00348066632620877385029257,-0.095051802706326959935268,0.995461351061660226768879,-0.0286861236112739975689934,0.0518352135306801228842311,9.99226744678186662440567,0.00609533761276831800857146,0.00321771990144637106898151,0.00202488118833209392033456,7.56455153396575408208946,2.15892719461956339443987,4.12892004388892175370529,1104.47531961141430656426,1107.87337436875441198936,1111.68467142615372722503,1115.06599034089390443114,811.431126091348573936557,953.260865674749993559089,371.589372899935881378042,418.446161247919405923312,151.082284054991134780721
72.7524999999999977262632,-0.0183737036114330967717656,-0.166487817296376433562344,0.215188628825887490192414,-0.0183491611296846546252937,-0.0368252267940785832367467,0.0215164119973680727226917,0.00308414607154943246070111,0.00344717912283830233213799,-0.0950238426429602933698249,0.995464150529869917782833,-0.029715772988715208335897,0.0526349769460785696373328,10.0039559064054515147291,0.00603225538635967627881795,0.00322738969469097509643052,0.00251263738216813510215064,7.56456779292218950416782,2.15892734997217683456938,4.12892472585648384608703,1106.56506038269367309113,1110.58105905124648415949,1112.79234238787739741383,1116.253859509826725116,834.509169079214643716114,1205.91775360831525176764,515.553115142361548350891,533.788410313430858877837,151.081173787655728801838
72.7549999999999954525265,-0.123710308865062956762415,-0.111495590118740259266694,-0.107639810964925142222626,-0.0186660822052726708963899,-0.0381739533318904145087203,0.0216786930995934122579083,0.0030834442660419582836473,0.00340845407045946638402434,-0.095002434298026378067803,0.995466329567063712424613,-0.0306728158708454851089087,0.0536642988066370549282702,10.0154420642384653916679,0.00596590211072752993337609,0.00324708330252826546033496,0.00303343054387554631606827,7.56458269833983987240345,2.15892804878243360633405,4.12892904499748869540099,1108.64786545680658491619,1113.90296313679050399514,1114.26243700186319074419,1117.73493239245863151154,875.053293483270408614771,1544.37023648221679650305,700.303791774569504013925,697.09380299734095842723,151.080140845341759359144
72.7575000000000073896445,-0.284015622485621455073357,-0.075609211576456253345313,-0.47228477690360726182206,-0.0192112356211712360931632,-0.0379484711840847033226254,0.0207775419695351293292163,0.00308132222035723945391394,0.003363877431264626800822,-0.0949860697043059670763299,0.995468045711461635427497,-0.0315325102809261154090947,0.0548385972997367313053196,10.0266822090683760393404,0.005897713382354971209387,0.00327584599043435203968855,0.00358758411446396087776667,7.56459612168133155307714,2.15892963861101838674017,4.12893359189387432195417,1110.94032685011848116119,1118.30291023367249181319,1116.29386134675701214292,1119.7393285248201664217,781.116608168204152207181,1633.23882582965711662837,764.333022045662573873415,753.425378677319713460747,151.078995385273515239533
72.7600000000000051159077,-0.442673784265271208493431,-0.111127234912211395045922,-0.72660284710303590927083,-0.0198473811130925777146405,-0.0365572706366121061294372,0.0191596849204294199242593,0.00307622700797096975885991,0.00331473120830165892194974,-0.0949731094282232901626628,0.995469456010707021142991,-0.0323120274139901408894104,0.0561087301727251699934307,10.0376357024840601184223,0.0058289136130852108735878,0.00331206458958774839496098,0.00417496622797526497489207,7.56460804565080913164365,2.15893290098533929821656,4.12893877561405808762629,1112.55344849765515391482,1122.06915726595457272197,1118.0841021120988898474,1121.50205928585251058394,562.609605093223422045412,1468.9061118371855627629,710.864578454730576595466,702.985466102793907339219,151.078122139501004994599
72.7625000000000028421709,-0.621591868323182694666684,-0.245627640137749153614877,-0.895272387543404546406123,-0.0208341227377159959877062,-0.0352723473971085152434135,0.0166639107769519234647504,0.00306369231171104913769021,0.00326164657079474305800826,-0.0949621281260196736795365,0.995470707948105659745863,-0.0330100949024507567264308,0.0573705774856254416271817,10.0482669373297319737048,0.00576029688616593212036054,0.00335357937986963334023316,0.00479482832806554012256006,7.56461888407536786615992,2.15893815978132730393213,4.12894488767292422437549,1113.75337487558203974913,1125.64744079285173938842,1119.84818423902743234066,1123.25425585533093908452,422.391805119807372648211,1470.95328753796002274612,753.169214640232098645356,750.7543720948440295615,151.077335640766165170135
72.7650000000000005684342,-0.847643058781535452261835,-0.522511376848939890216172,-0.966964474555607300665372,-0.0226240215450123072216115,-0.0350590937401385610572291,0.0128393153103582690482964,0.00304145819625071438599417,0.00320611717413767267903513,-0.0949541062726899365298294,0.995471710060042425105564,-0.0336465236173338066993921,0.0585645970086441994273407,10.0585451806878314329197,0.00569199386838575502323145,0.00339796813718487578093175,0.00544569932573584890994622,7.5646304171882023936746,2.15894543362822810550483,4.12895336606322516104228,1114.66540752325227003894,1129.42392370363768350217,1121.84994818529662552464,1125.25583114632331671601,249.493314120990817173151,1263.6396087457467274362,712.346845075091891885677,709.676094106825644303171,151.076493353520334039786
72.7674999999999982946974,-1.03267249654335113717707,-0.830451589169469150952807,-0.905113308734674659739028,-0.0246672086655548052080977,-0.0362664940946104338848066,0.00928265751028199692651555,0.00300966807834664173970651,0.00314701720778311081275214,-0.0949491537655643841331354,0.995472455873296802053574,-0.0341919654419587520921553,0.0596871855090459826898019,10.0684459607671872305446,0.00562347417695430781131583,0.00344281308181237314519629,0.00612536292276076761720294,7.56464384547614621112643,2.15895490789428867728361,4.12896512048684716233993,1115.00084144618585924036,1131.96563883657472615596,1123.40991846439965229365,1126.80263632586184030515,62.1739358362557794634995,863.65742841923167816276,608.24669362328518218419,590.281024678270341610187,151.075875936171769353678
72.7699999999999960209607,-1.19522164855353052459463,-1.18364251718454926987079,-0.72083029421700217653779,-0.0272919638061937808171109,-0.0386313031402884254905672,0.00600977351349429519955514,0.0029695445723688560467346,0.0030829151883129137477757,-0.0949468684054130401817062,0.995472983731192972989277,-0.0346109196861465046035633,0.0607595953214994030644469,10.077951450320263404592,0.00555367229749976262093147,0.00348604730529537354746794,0.00683106544216713264944252,7.56465954974724485992965,2.15896673005322092819824,4.12898059734758682282063,1114.9762772024332662113,1133.74221084572991458117,1124.8911816534102854348,1128.20723626971198427782,-49.1159056662996817976818,575.249444334238091869338,587.655707566228784344275,538.56192348940157899051,151.075344912958996701491
72.7725000000000079580786,-1.32329065109260146648751,-1.54529352040695777681378,-0.454500850000731648759,-0.0304164390200460932334181,-0.0417984522845892478293273,0.0036589806782232167821356,0.00291733949979102380120621,0.00301802007173371722101307,-0.0949428734661542095274456,0.995473704533771708291567,-0.0349687167281891586601006,0.0616949270970504129452117,10.087050663483781320906,0.00548118591186038620760579,0.00352620017293474611805304,0.0075598800440424334876055,7.5646766591620719921707,2.15897976199369345806645,4.12899904999134559346885,1114.75526191785388618882,1134.84188605825147533324,1126.34819700223647487292,1129.49544594331405278353,-104.876047050927027726175,280.517067127997393072292,583.394003274643409895361,489.50262976555660543454,151.074883681288241632501
72.7750000000000056843419,-1.39118907300639893520611,-1.88111197045704692243362,-0.129774809999743057087329,-0.0340216132952782246423595,-0.0461797512767414958245737,0.00280297867947848890549101,0.00284975153367808499080271,0.00295335662282205290915527,-0.0949316418040331844174773,0.995475148250328456533964,-0.0352648215011606425139945,0.0624221087524091597376064,10.095740448462638738647,0.00540459068586413623330733,0.00356278013884139691316855,0.0083087916007756994207778,7.5646936405912548195829,2.15899240847785467423137,4.12901883965636518070141,1114.45189696717761762557,1135.14479618137261240918,1127.80815166978914021456,1130.65474941854449753009,-113.197475061600201229339,-31.0564001533576217184418,638.299338496552309152321,484.485872705713063623989,151.074503308268106138712
72.7775000000000034106051,-1.3840175582479947724579,-2.21007813994667046131326,0.265306992466829927312943,-0.0386132211643838429981912,-0.0527030963655445577886738,0.00341362974471165307732701,0.00276454542978252140045248,0.00288899412007451216258258,-0.094909248464290663083176,0.995477693803057839261328,-0.0354786804761053203849386,0.0628926206676656412986048,10.1040247661479352103697,0.00532251656959257819085041,0.00359638319447466107275924,0.00907477666766507047590995,7.56470978431460583379931,2.15900329205553065392564,4.12903953931113765207783,1114.18927454254639997089,1134.68660405748482844501,1129.53969369471633399371,1131.91787530684041485074,-57.3664712813818979952885,-282.532632628892827142408,616.478149496030255249934,444.607737260179987970332,151.074134882952961334013
72.7800000000000011368684,-1.2962332506627851635983,-2.39597383589400125813995,0.55494434959348637459442,-0.0424486058765213211674272,-0.0588062164075893942238871,0.0051158112128369603519018,0.00266219527513920223293908,0.00282812202921645409678386,-0.0948741664697243802795157,0.995481475417466898925056,-0.0356550752952290855857242,0.0631045636354784361676806,10.111913124533286278961,0.00523357265732835637978004,0.00362855657250020155468739,0.00985476355406079626564342,7.56472537984761483897955,2.15901164690612645813417,4.12906260959383875075446,1114.16506461077096901136,1133.73213301822943321895,1130.89054241726648797339,1132.87778810484337554954,43.3113798730512939982873,-467.75082055957477678021,493.906059194745353124745,365.495804957313794147922,151.073896842183671651583
72.7824999999999988631316,-1.1234253651447931865448,-2.46841225460974600380837,0.760361758197680925874806,-0.0460078689698346504632909,-0.0653252065724597152929221,0.00793338826132563776361017,0.0025481604247298964872892,0.00277208958715943276987503,-0.0948281194596947152319899,0.995486307316388652211003,-0.0358092617854451900072377,0.0631570635391596885144239,10.1194203272187461806197,0.00513641141290639702265963,0.00366154849022894786012006,0.0106455435021009688079108,7.56474077490534835277458,2.15901799739934618926895,4.12908947790008085121372,1114.40583144191145947843,1132.34784995468908164185,1132.00922399068781487586,1133.74535433162532171991,163.07063001505690635895,-666.007874273933339281939,406.475775013547263370128,355.412936565021880142012,151.073725239826956112665
72.7849999999999965893949,-0.83133021343823199078571,-2.41276124358298815764101,0.880534554188507900818195,-0.0493918618193261368953806,-0.0734355429786263669278412,0.0118623785670817667725618,0.00242428875349494973162612,0.0027175410430627447433416,-0.0947737858373652597432368,0.99549193627834164921353,-0.0358529682077568662146305,0.0630823317801888217015716,10.126567225680267014809,0.00502988087296344591609065,0.0036977782964578102126163,0.0114439635829094634583702,7.56475643084420568129644,2.15902262349586449019512,4.1291207752650640472325,1114.98041776084551202075,1130.4020936468627951399,1132.92292129233237574226,1134.65485278766686860763,245.887277202634777495405,-729.495585480572003689304,247.275756941894115925606,303.438611669848967267171,151.073590298988136737535
72.7875000000000085265128,-0.535310281543375565682652,-2.25060770977602286890829,0.87220761488492737356637,-0.0512642355242090841382918,-0.0799824889606920580442662,0.0148908300505138369018709,0.0022943844202836225810993,0.00266022067978887366210272,-0.0947177706416171827363826,0.995497734294474190264168,-0.0356826307307639839505597,0.0629495025470016983382138,10.1333776153982739742787,0.00491303736402093349511233,0.0037396691161207338410799,0.0122472549229137826765079,7.56477308326433650620402,2.15902580310894487425344,4.12915654414504107450057,1115.63526782792700942082,1128.70037202727917247103,1133.2456027753996750107,1135.26254738997749882401,279.550326803206132808555,-662.34053682155035858159,32.3942870256643473680924,198.094260990982604653254,151.073532856055749107327
72.7900000000000062527761,-0.211715547827976913186632,-1.98741671189152313559134,0.766245160882078502062598,-0.0520299328427614171665994,-0.0855763796687918631977965,0.0173303723829635533681959,0.00216859744573241145643161,0.002592905312629231046051,-0.0946692134256902073641271,0.995502824305655398262616,-0.0351469820109882313818872,0.0629574055552250960721139,10.1398761245033348643574,0.00478538058416687946822199,0.00378953688045668805883803,0.0130533458999958166396604,7.5647909932410843936168,2.15902862381097682131781,4.12919569965329280591959,1116.37816939486424416828,1127.09039096274864277802,1133.0848927274610105087,1135.64532409262369583303,299.587945208122221174563,-606.34413149246609009424,-136.68241846966037655875,104.550716159569262231344,151.073527693748047795452
72.7925000000000039790393,0.113683603985670830804899,-1.66442845771621961148412,0.599708598708852846925765,-0.0518022224664134722793563,-0.0900861481657130175326742,0.0191395020026934210843894,0.00205450688565429490789471,0.00251007578696354040695415,-0.0946337591798395161291069,0.99550666398036169457697,-0.0341247829968414628787343,0.0632469462370447987886735,10.1460866494851131847099,0.00464703562381348512372314,0.0038492075528587270036307,0.0138612535229218677285123,7.56480959834108546147036,2.15903201227537566708747,4.12923699810867361748024,1117.13320755396625827416,1125.6686513698195994948,1132.56219068305199471069,1135.78530097077486971102,296.823539760904907325312,-502.83351594826200425814,-272.276877050100893029594,-12.9413513757871818654621,151.073562385301329413778
72.7950000000000017053026,0.419491762876430696049823,-1.3033204878048882946473,0.389618239079930983592703,-0.0505835292917282269842261,-0.0934142918373573882817595,0.0201609958431653718546883,0.00195366254751418340351865,0.00241253804329373457843166,-0.0946118929305024558562565,0.995509197909499210510376,-0.032612848307037187178814,0.0638228537930038697378876,10.152029860534302230235,0.00449880623159240513458945,0.00391987471676875139786622,0.0146712606435219512085455,7.56482746048253762438662,2.15903589298641263027889,4.12927879370950101645121,1117.86228709366741895792,1124.57622338300961928326,1131.72350834221174409322,1135.5806173357448187744,313.131266178345981643361,-388.409685068416763442656,-394.935523249928280620225,-172.706554108683775439204,151.07364101724348870448
72.7974999999999994315658,0.745125722555265324054119,-0.868555675371393554051735,0.124814418463175202944626,-0.0483287296405396499254792,-0.0961935150275527312002666,0.0205816600585160755509939,0.00186645625967445018961177,0.00230221057785893979882874,-0.0946006288667167877237674,0.995510701720219715049609,-0.0306318095148442881558992,0.0646622259766803514358102,10.1577213966352974949814,0.00434229938223533104557639,0.00400227299562930238785441,0.0154847239630338112670316,7.56484374537281567540958,2.15903999550324021683423,4.1293204361720707851191,1118.69886388485656425473,1123.72660294447928208683,1130.58751306680414927541,1134.92176820023223626777,303.801364561699131172645,-230.944216546532459233276,-396.602650686733454676869,-302.103933680930026639544,151.07378100201623283283
72.7999999999999971578291,0.975720733632229553222714,-0.532895565826111639040619,-0.0819236420970657630569178,-0.0460176945383438118497565,-0.0974174892262426039835077,0.0203263268525629946237299,0.00179280835479738906955427,0.00217947726482279778223439,-0.0945981777511001320490891,0.995511343983791152645324,-0.0281756234398380239758453,0.0657335201454046363922501,10.1631704387014192292327,0.00417985221580735588631228,0.00409674264873503488071371,0.0163037743013159132365875,7.56485825514418497306224,2.15904458667140097816173,4.12936204915436633200443,1119.38129391647453303449,1123.42150230027800716925,1129.74049508877988046152,1134.07009766734154254664,277.070770696970669177972,-42.9897988366910723811998,-269.115060141729486531403,-380.745964016687821640517,151.07393201029185547668
72.8024999999999948840923,1.16278033508950406904603,-0.25159315515800056983764,-0.250102955666265003298321,-0.0436224042359435668081424,-0.0975592874017071343129004,0.0194528412122275638773683,0.00173166480233849224938669,0.00204803909802824457217496,-0.0946021895309471505530752,0.995511342693484846400054,-0.0253095882214325745840355,0.0669781450675436540453944,10.1683774811881626476406,0.00401420104426402149511155,0.00420315887751468008487477,0.0171310481255964458524588,7.56487103970768703931071,2.15904986175557267458203,4.1294043358388954345628,1120.08421773834015766624,1123.51165395029602223076,1129.24193776609672568156,1133.0180383801505286101,322.551547808202087708196,118.094851055638216053012,-95.5931087238212597867459,-471.988102582869942125399,151.074114427002029970026
72.8050000000000068212103,1.33636763102721234375281,0.00546022726540278113827043,-0.387922442162752012517757,-0.0406341415083550372422394,-0.0969662030078235204211268,0.0176688871467265522230417,0.00168259402477778196964564,0.00191330126527417291801281,-0.0946092162262672509154271,0.995511016584054164724193,-0.0221415727205219459161611,0.0683468138942331243645967,10.1733334604811620494047,0.00384829134469728438225355,0.00432098207699496868194888,0.0179693854567595096005661,7.56488182829001853946238,2.15905607597616455706202,4.12944748141616990722014,1120.9940516555186604819,1124.01197655555733945221,1129.26252954515985038597,1131.71015715442263172008,347.999589224773899331922,238.039817341263329808498,125.851721170631719814992,-459.01957564058153593578,151.074364864999921564959
72.8075000000000045474735,1.43316966581502325261965,0.150620411901970868706613,-0.443611726275718598611064,-0.0377684786774615186000226,-0.0962914151988929906123005,0.0156365521675312368898858,0.00164162257993211613445184,0.00178000749655935147988672,-0.0946158724656571969990893,0.995510687443271313767923,-0.0187666434508746704512561,0.0697204421121360023994029,10.1780204206870781291627,0.00368511052110991402241957,0.00444915321379637986737299,0.0188216205870006397793404,7.5648903980501120969393,2.15906346727750575453797,4.1294910760697085549964,1121.82421568446739001956,1124.70185303700463919085,1129.87119637195110044559,1130.72294050194318515423,344.421479102078990308655,321.79389593854631357317,359.179813307045321835176,-346.952479667604109181411,151.074596466155497864747
72.8100000000000022737368,1.46567833112700074416068,0.232523210930017959485738,-0.445787808500296200975299,-0.034405864382146572610921,-0.0956511831776818283179509,0.0134327358850089770281322,0.00160823895381557004438666,0.00165158940194332624386286,-0.0946197914757317404266246,0.995510578725946393419122,-0.0152674436077581687776217,0.0710539393203922786668159,10.182410500692238741749,0.00352740721845908739018327,0.00458640287164322965618446,0.0196903005982543323482137,7.5648971860490394902854,2.159072218285110533742,4.12953558146071664225474,1122.71615905102748911304,1125.62094603524860758625,1131.05842861169344359951,1129.97539475608618886326,394.069661358475116230693,448.060550985290376502235,614.250933965071681086556,-258.127426231438334980339,151.074847930568097353898
72.8125,1.40750440844179536270531,0.274503881245625747098416,-0.418650733239993355638831,-0.0298709129364253429816944,-0.0948533029700883711932136,0.0116728700654197409258828,0.00158483347751155060137429,0.00152618235492605995584636,-0.0946226829031125149516157,0.995510531987063074232935,-0.0116323241732010501658934,0.0723730560255338578601325,10.186467075392922509991,0.00337756660253464308790727,0.00473138114005860165034445,0.0205774357785682253385584,7.56490291000132319965132,2.15908253110960979270772,4.1295810867674411781536,1123.79456399125797361194,1126.94215579192905352102,1132.94245104177366556542,1129.43230337078716729593,382.116107390522415698797,514.416057247184994594136,718.564562028376371927152,-140.581204452010382510707,151.075168269315895486216
72.8149999999999977262632,1.26283562737158505662194,0.276355044913761782598982,-0.405884184540582448885715,-0.0257659084524319431652728,-0.0942940419116047173764272,0.0116438855942836427814768,0.00156856975700915860991169,0.00140116484861778551641864,-0.0946276501664231189936416,0.995510265614962475133609,-0.00783062062370082356821399,0.0736018362942078840926996,10.1901463435517065647673,0.00323732338920140185964391,0.00488242611586469071188743,0.0214844226075069158476971,7.56490869623699335733136,2.15909435395285020931055,4.12962833082752744928712,1124.62673958797836348822,1128.19302632148219345254,1134.65125142183205753099,1129.27248873382677629706,298.460191359889392970217,521.690072007206026682979,645.180134637526066399005,-15.7103928756129889166004,151.07544760565829733423
72.8174999999999954525265,1.01054773674353337575837,0.259721477460116867419515,-0.440137839645376116592956,-0.021519089949369900327536,-0.0939875877843544260681341,0.0127793166108640804390362,0.00155205645133075814841306,0.00127868904595265244460156,-0.0946347794258955293811297,0.995509779374240233451587,-0.0039247080608914991506353,0.0745663609951209699344687,10.1933979249191040139522,0.00310750764265516499912367,0.00503764855402257481775674,0.0224119700051876730162448,7.56491546230329703348616,2.15910697921016359046575,4.12967868002666627091912,1125.28686494805606344016,1129.55060615196271101013,1136.16835171495836220856,1129.35375140640917379642,220.986634015644455075744,550.793119444624267089239,529.878049832244869321585,56.8418339265274070726264,151.075736244097384997076
72.8200000000000073896445,0.678126426911823121379541,0.236951113628274923073036,-0.522070671739083169704543,-0.0177044433790656298433053,-0.0937209391513706413512352,0.0138696349651488068377425,0.00153471280622033152268857,0.00115740859197926287960101,-0.0946439432521243295681757,0.995509085670705728965402,7.65235797159646846665737e-05,0.0752412092887170674826436,10.1961657556930056500732,0.00298840576024308156311005,0.00519560211903555713847114,0.0233599562703817736908363,7.56492354332079219858542,2.15912029372888270017938,4.1297327688082239305345,1125.73167275805872122874,1130.94699191871063703729,1137.30064167099840233277,1129.55669790345996261749,114.148552085414337398106,552.473516726127854781225,325.077831956977377103613,88.3088105605223461225251,151.076030157342330539905
72.8225000000000051159077,0.284997063892258539752333,0.212800649281467441076288,-0.639007650948702599080775,-0.0157763317078660411652002,-0.093415634003247843830664,0.0133597281067987464636682,0.00151304324547613285034675,0.00103679421255405547312722,-0.0946534456733756079938047,0.995508350926344820486236,0.00415011055653637106477305,0.0755441509702329261344289,10.1983910491971947465117,0.00287982533571809473649239,0.00535494479475825523734356,0.0243276991184178288663009,7.56493264798266462634047,2.15913421430444563142714,4.12979021296245019101434,1125.8576077084842381737,1132.31297373559868901793,1137.79374087474639054562,1129.79529545921263888886,-21.7639191751202503155582,570.71194019065001157287,57.8764826558725644645165,85.0961131652503297573276,151.076327932841223855576
72.8250000000000028421709,-0.18670352454800481778463,0.184547035752685772980186,-0.761831963683563317957237,-0.0167077146966578306275242,-0.0930565668021859498937332,0.0102431727782956501909828,0.00147859164284245918861982,0.000916897320020888329308861,-0.0946633621875863084937919,0.995507578160304440473283,0.00826828999882851800595773,0.0752946861221641255967896,10.2000147345280502975129,0.00278128102199363394161913,0.00551439308300451583311208,0.0253141469410839495268739,7.56494270213227615329288,2.15914805800254105960789,4.12985036233988278553397,1125.62285316218321895576,1133.80055161966129162465,1137.59002408427750197006,1129.9821784692858273047,-144.124348169674817654595,502.132805150633544144512,-191.317162882970762893819,34.0881432679762710336036,151.076687125467771011245
72.8275000000000005684342,-0.529284685789213393825037,0.160335061010145940585403,-0.807717330327859195371332,-0.019530984478158642386747,-0.0926045632955401071262358,0.00651663804944396709423193,0.00142767981593389385770732,0.000794999787204973850686385,-0.0946736514739434376064509,0.995506776032184292901661,0.0124488908910579954003595,0.0744185289783008963038213,10.2009781531663925591147,0.00269232620170954109126149,0.00567318645808267182223394,0.0263178494074168822791648,7.56495330748022265510144,2.15916117281166242136692,4.12991235604473150289095,1125.13698596763651949004,1134.82363776134957333852,1136.83715506033240671968,1129.96573617555236523913,-240.810456609543336981005,343.586009514177533219481,-381.195512008599678210885,-58.1162785629277252041902,151.076986553883870101345
72.8299999999999982946974,-0.783940175808079509067738,0.132710616383910046112149,-0.768743500651991817917974,-0.0228927828079600256816484,-0.0919500680616192750393978,0.00303498365504965925826264,0.00135807231220930299704641,0.000673191500338672687078767,-0.0946821351939659411334205,0.995506150757479724155985,0.0166089421974250153746233,0.0728655433408149783014451,10.2012249893237729736484,0.00261236539348164370846761,0.0058308032789077032104208,0.0273370108218303244085323,7.56496391261303191555498,2.15917295255913677110016,4.12997588431428930277889,1124.41880087913659735932,1135.51848166723061694938,1135.68404652423623701907,1129.69159707647145296505,-353.703528911322507610748,209.293515324142646250039,-537.668588919166381856485,-188.918950988489910969292,151.07728488784709952597
72.8324999999999960209607,-0.986352412674453837837518,0.0961218358102484959903933,-0.629918115024705405069483,-0.0263163318514087682387093,-0.0912369512156881307118894,-7.40309847231500209666089e-05,0.0012736934578057605357837,0.000553583903669481436869704,-0.0946878997440988023903685,0.995505780737670376012716,0.0206530124397573539019035,0.0707145721308981706210162,10.2007032060984030863438,0.00254091459404570891092434,0.0059870826384970394357099,0.0283692845851015382208082,7.5649738336749354772337,2.15918382175154910385118,4.13004097389141566765147,1123.36846832308151533653,1135.87010533796933486883,1134.14881211573901964584,1129.02114142061077473045,-408.805553679104662023747,37.3820108414934679785802,-542.371744053841666755034,-301.573739656541079057206,151.077640900512506050291
72.8350000000000079580786,-1.08551899774191595859918,0.0676128397549597692783863,-0.459736606972268646575941,-0.0284626659533090825560109,-0.0908820266552207850496714,-0.00155073288714704352227181,0.00118249810183891504791753,0.000436108384135289758962856,-0.0946904271712388084791812,0.995505704792903234334744,0.0245228644579906507328104,0.0681346517763697090419583,10.199367788922677036112,0.00247775831231095188325608,0.00614194587499591708457114,0.0294116317487237988181903,7.56498288809016639078209,2.15919462170302756121032,4.13010828408190189264815,1122.37477311073712371581,1135.7053917214384455292,1132.97218780396178772207,1128.18372837818583320768,-418.029025369889211560803,-167.982067218047660617231,-404.420659178859409621509,-381.892634475469549215632,151.077935834902433498428
72.8375000000000056843419,-1.1353794167679014393002,0.0510039360675707542647217,-0.268339886039306252385472,-0.0301815691744954511799293,-0.0908193666904824337127167,-0.00191153540139400723862906,0.00109210814604631398574974,0.000322987098418502679812725,-0.0946879691940108181302804,0.995506080111584812364356,0.0281160010054826506320502,0.0652879534208232747971579,10.1971831810037212306952,0.00242267205872068744701431,0.00629498849010895131228516,0.0304603014982086917061821,7.56499087532239578024473,2.1592060033151105891136,4.13017889791965675527763,1121.27832319622802970116,1135.03019500187747325981,1132.12670881984081461269,1127.11167824822973670962,-454.240736889373010853888,-354.232964827091791448765,-262.709959676124242378137,-452.796426477291618084564,151.078229379302968027332
72.8400000000000034106051,-1.15380055317420437965836,0.0523276137030004098726899,-0.0840621574504146068518295,-0.0319555477743155014191956,-0.0909336248491939419524854,-0.00168294343982874124859839,0.00100819180681573322515276,0.000213196234407840194214137,-0.0946813378633963864672296,0.995506826762838303856995,0.031401504659624560056308,0.0623073789121910900923318,10.1941257244301706208489,0.00237557958765379027138431,0.00644537153935868887405514,0.0315108321317387612969796,7.56499759068807264839052,2.15921845982559057475214,4.13025267482464109036755,1120.10356942629232435138,1133.93422689730459751445,1131.65863800558236107463,1125.91974624580143427011,-484.931806497738705274969,-530.664482145885472164082,-91.1786859777668468041156,-481.892415139902254850313,151.078522473045495644328
72.8425000000000011368684,-1.13121825108738649490192,0.0826898362592306673812814,0.0705438329620978465950287,-0.0342659578751044052724595,-0.091079201317648378344316,-0.00108966215729129687998789,0.000935150527150897196287938,0.000105196402118016036774002,-0.0946733423729014811343063,0.995507677658861833691617,0.0343641403589493160675161,0.0593053922331189739547419,10.1901847524634394659415,0.00233623960808689197510279,0.00659186256867470843356926,0.0325581470824313282119711,7.56500355307406735505538,2.15923262130190796170837,4.13032981717497182927445,1118.85366416374154141522,1132.37687259115045890212,1131.67081538995239498036,1124.70221617253241674916,-555.510710077947351237526,-767.386208151735786486825,99.2050923788148821813593,-509.685886780434600495937,151.078816343133667032816
72.8449999999999988631316,-1.03970792762691677246778,0.156860298198537140290654,0.206921702694628339980198,-0.0379102250775935900595215,-0.0910475539562710101115783,-0.00015059655163039220929222,0.000873094308883228388366848,1.6112949571392407347413e-06,-0.0946660903241307583044772,0.995508433899065847683119,0.0369164592089152310272482,0.0563038210540345099297532,10.1853637932859619752435,0.00230382707669661438223963,0.00673269731847227128479494,0.0335967371808970766133839,7.5650093095681940624786,2.15924851760441205428265,4.13041121206577699354057,1117.32601587590511371673,1130.0972958565494081995,1132.15466346747598436195,1123.37131681190157905803,-550.126390810919588147954,-877.600317790236317705421,231.487827812344676203793,-446.560409910895543816878,151.079172187108497382724
72.8474999999999965893949,-0.897383815554449015827743,0.249209426862009836289857,0.276145830218147925183558,-0.0413401269052614261934053,-0.0907920926045050341590681,0.000796676025812839781053976,0.00082463135152744206947395,-9.66363159921655267940721e-05,-0.0946639943170999170751756,0.995508674232692625238883,0.0390053097302646978317142,0.0533826109289504899257928,10.179680544507681005939,0.00227711173614662028968914,0.0068662383139293193742847,0.034620737741288799826922,7.5650155849279219211212,2.15926634971215003488965,4.13049774843941097657307,1116.10303220968944515334,1127.98887100220326829003,1132.82825452901306562126,1122.46941412297996976122,-455.49493038332190053552,-848.471675513289483205881,293.156375784817157637008,-302.227127886142397983349,151.079473498942178366633
72.8500000000000085265128,-0.684539353411197981635894,0.368266250056678234869878,0.302033079942253812610886,-0.0441749522480098105736701,-0.0901999191697471641715467,0.00191064507718159367656574,0.000786113207938661149275228,-0.000188689134693872614424726,-0.0946674818737981288441219,0.995508362186693696038731,0.0405970600220425456572393,0.0504991775894351249687197,10.1731679296837871362413,0.00225448497405791046035994,0.00699056234778661512302422,0.0356243716477241678664001,7.5650225907019219562244,2.15928554783122983451449,4.13058948448315810253462,1115.04854122398410254391,1125.85493747897476168873,1133.62044534640290294192,1121.86018117246794645325,-395.773493373789278848562,-902.291322993990092982131,345.313799788133280799229,-194.066221039054283892256,151.079782790187493901612
72.8525000000000062527761,-0.366907410095427599650009,0.532353414735270091817654,0.294690349494914516359501,-0.0461264516858957418499187,-0.0888662012411728513550102,0.00329062017932696838223849,0.000750474052997524335682777,-0.000276609023577789549155209,-0.0946774249120522215505957,0.995507422106518324866897,0.0417301359536191018850815,0.0475509379044309898887377,10.1658731936286894637078,0.00223415732619935275549139,0.00710384900292178756570083,0.0366022825203709128993879,7.56503069393865867908744,2.15930515779678167120892,4.13068518230709180727445,1114.12416474281667433388,1123.4774143872245986131,1134.55482352795706901816,1121.49908301778282293526,-263.87520784825380815164,-818.719955701106982814963,326.886869511487816453155,-73.7135956788494866032124,151.080167309985483825585
72.8550000000000039790393,-0.0737544549862357429192983,0.678938533852524450651345,0.271133818896232781092692,-0.0465601186003710143523904,-0.0870576036742176789795522,0.0041469549283355893951053,0.000714871852025034679525839,-0.00036400842005340024089971,-0.0946949875034057697575918,0.995505746135449509637283,0.0424730712245276198490984,0.0445268032428321122728754,10.1578558679218406979317,0.00221415510631943566327573,0.00720503651107598595132453,0.0375497431375587525925752,7.56503974558950442741434,2.15932538155999287354803,4.13078334200512564677865,1113.72916518474403346772,1121.76133770047295001859,1135.25487969395885556878,1121.4916131940740342543,-67.0947988955204834837787,-620.893378045112399377103,260.893648422107503392908,45.9360061543938513750618,151.080502330431755808604
72.8575000000000017053026,0.21925485062657368295902,0.83005846664954474611875,0.251863714366937940791757,-0.0458705812333835560856699,-0.084471161929701513160218,0.00421016303972349993645086,0.000672881451367417899277201,-0.000449069585969027388998309,-0.0947176246209452815660867,0.995503583733807317912579,0.0427991186550231092478036,0.0413350872668823213218481,10.1491868850248181388451,0.0021920550044771331191229,0.00729327246578253662184776,0.0384629357293524570815535,7.56504959710275848294714,2.15934608172518904822823,4.13088389174061898501122,1113.78869074833937702351,1120.37294749700186002883,1135.85929177006642021297,1121.72876304855458329257,99.8436005430447437447583,-506.450711994745176980359,231.618549022943284398934,120.657024076145404478666,151.080857045369157276582
72.8599999999999994315658,0.493582389071362204191473,0.987747202418477798779861,0.25093761333292857740318,-0.0443506927351245971991034,-0.0814907157221995415152804,0.00372251729823204133285053,0.000621234827108076387118529,-0.000529277483250191688526898,-0.0947419591755866152826826,0.99550126310592512712816,0.0426692240300156622190286,0.0379480028397070207057951,10.1399461121172578259575,0.00216534974012972010470879,0.00736851217307314936694196,0.0393388617804584297954484,7.56506004970090550898476,2.15936642325902061756437,4.13098705666281329484946,1114.22838318745880314964,1119.22908414050152714481,1136.41297243907251868222,1122.09489831445421259559,255.91428858133977541911,-417.778030899869690983905,219.943936316685665133264,154.447896693549807878298,151.081231579036625589652
72.8624999999999971578291,0.732036977615093675808566,1.1688360615446984347443,0.277509880666884367617087,-0.0421328469850772921456716,-0.0786939780438259545158886,0.00336317641570511079857075,0.000566200237598968596393345,-0.000605794172742010251543621,-0.0947663044455157588252803,0.995498943305304306861103,0.0421079540521127546059965,0.0345374413240672542557697,10.1302198546309778492969,0.00213182213696887180517936,0.00743209313644057571052182,0.0401752501234603764945774,7.56507086149694707444269,2.15938585127137194774605,4.13109231118651099023964,1115.06826219124491217372,1118.28405734250441128097,1136.95901145164884837868,1122.50100253202163003152,432.248165086850576699362,-401.674509315218244864809,247.569997851721893766808,156.703555096516282674202,151.081633968644268861681
72.8649999999999948840923,0.973562954183674666985837,1.44246653372023558858928,0.327797160914995777680758,-0.0390349943145171934810733,-0.0761283197555338853046436,0.0038739563768852491518202,0.000514451671792957388254508,-0.000679327959046456477006093,-0.0947882320107580889079202,0.995496853682720228562175,0.041137532117323578895185,0.0312814248924786764138872,10.12009934712681946678,0.00208943533639128868617529,0.00748591863732682785692596,0.0409707235837803926403744,7.56508123877952787239565,2.15940391962560962468842,4.13119915234835399786562,1116.38962401289109038771,1117.22071159392726258375,1137.65082242833000236715,1122.8784160899360813346,506.864637547298968911491,-399.493579303317403628171,257.575563573484600965458,101.048047122308403800162,151.082153733094003200677
72.8675000000000068212103,1.14437599418637447890035,1.73328856597878044887295,0.366128691450064547296961,-0.0364581999765461392537524,-0.0743923922102017048940681,0.00526927723022648560741166,0.000465881399207077138285849,-0.000747767072024925504893089,-0.0948038260502524765538368,0.995495366525687819247992,0.0397436971884262621457218,0.0282142039883014894563473,10.1096786948619001833549,0.00203624261338248473476864,0.00753163371133669726220639,0.0417248819230367426480477,7.56509076387895529336447,2.15941997215441183755047,4.13130729791285311591764,1117.60258537898630493146,1116.28658944598396374204,1138.24688926951876055682,1123.0062427676341485494,468.45024110812533990611,-400.077321522485192417662,226.580122371814042026017,-0.677154680623571980646602,151.082620737877505234792
72.8700000000000045474735,1.29665808990391573374268,2.08286486418461658232104,0.380599045729110574409759,-0.034058244161752231071727,-0.0719196705867297947367689,0.00734795144631440223792485,0.00042464743128525073287069,-0.000808526993353445022627568,-0.0948127981332818198234591,0.995494504942715408013498,0.0379011535402144078554798,0.0254527788222857417888001,10.0990515176673589792244,0.00197038415284465223686894,0.0075712575698324126663441,0.0424380523416269875291995,7.56509954642602799879114,2.15943452937188151707915,4.13141683481800203736611,1118.7318752184362438129,1115.22032498631097041653,1138.78372304019126204366,1122.87503031653295693104,434.334066817459017784131,-503.79067019298764762425,191.16646944670824836976,-117.579117301709246135033,151.083126257739309039607
72.8725000000000022737368,1.46818839052125404975868,2.51925419116434978761276,0.36550212484645711041864,-0.0307009813188849449427931,-0.0662238609913377435089998,0.00951128773569495655770822,0.000391161353998514967587885,-0.000862361929582833091831318,-0.0948161970924612101940809,0.995494165138199327280688,0.0356650871968543226042669,0.0230426403449045316684796,10.0883094096618179946745,0.00189047094559814513915763,0.00760625319054955388586858,0.0431113038559656422399335,7.56510811487374823514074,2.1594483344801957969139,4.131527668543280462643,1119.77425571307162499579,1113.76763609502131657791,1139.20272161675143252069,1122.41834718112613700214,306.243326310647034915746,-554.493964217276243289234,91.503693987071073934203,-207.365981122945754577813,151.083780848718220113369
72.875,1.60174585407925351709935,2.83931211291738705426724,0.337275728841787969525257,-0.0270407624131092094721396,-0.058595742774916026451848,0.0103471685320451756151527,0.00036345733259429094819809,-0.000910024972510980437352679,-0.0948172622462219172323472,0.995494038168904138430548,0.033100331571800624408386,0.0209789923647139310569631,10.0775394700107447931714,0.0017952855357553706028978,0.00763739687375829343768396,0.0437463721630420021568852,7.56511681778737177239691,2.15946216747714547778969,4.13163936823402710984965,1120.26309184998808632372,1112.44785516522711077414,1139.24124151012620131951,1121.83820041091917119047,102.355661883259344335784,-531.511513573178945080144,-70.7234652681752038461127,-251.869510473490549884445,151.084368517588387703654
72.8774999999999977262632,1.72111209191875613733202,3.04960766651367665147632,0.314162718666118445653979,-0.0228245304562997713970773,-0.0491821969838593595070186,0.0104925974432663743352023,0.000340768407747708834687472,-0.000951936117725773697263725,-0.0948195516750968692143431,0.995493787044898770233203,0.0302670499164788692203487,0.0192781290974537479476769,10.0668221517115430430067,0.00168378089657391814479293,0.00766500017569989467586256,0.0443455020389424067750461,7.56512556397577817790534,2.15947716723175320296946,4.13175089094733039019047,1120.28603402248745624092,1111.11007852715783883468,1138.8491042904108780931,1121.15899962875982964761,-66.6379450335777079317268,-517.122032740660074523475,-233.541657708186477293566,-266.943607202680993850663,151.085002220203364231566
72.8799999999999954525265,1.82668028383533531666671,3.1426673195669110327799,0.307697047434081660810534,-0.0185004540669028265387208,-0.0398730481783833093367697,0.0107607297060816758937918,0.000326053928779043288455758,-0.000987355558332567552828896,-0.0948235163481610660030086,0.995493371423713968582092,0.0271985157459804227642053,0.018026638865197702754628,10.0562295071791876210909,0.00155506012013394384445319,0.0076892017339196191971773,0.0449112195814973386154279,7.56513391039006766192188,2.15949389628348464853502,4.1318619551687607582835,1119.92990212482050083054,1109.86224500152616201376,1138.07353322158633091021,1120.50348237490698011243,-217.991676929693113606845,-446.514426779414122847811,-392.788218835781037796551,-229.059485230357722684857,151.085675422673972434495
72.8825000000000073896445,1.9155070109565026648113,3.09478895897057570962829,0.328049805515468584360406,-0.0142260812483041322595856,-0.0316739197251569432056684,0.0112544118805294260377003,0.000322885738710916787071875,-0.00101342555150507065107879,-0.0948253994355486296008451,0.995493152423818972174274,0.0238869330371289517733757,0.017317037207326250319861,10.0458240492401476018358,0.00140831244325317602242298,0.00770988448062177346431501,0.0454461290207352208714298,7.56514236561713371287397,2.15951192475024011940832,4.13197403179832090103218,1119.1960756378368841979,1108.87750639325645352073,1136.88516319622817718482,1120.01370220260582755145,-375.703827403550917551911,-331.027828217108037733851,-587.03773819343268769444,-147.329596709584563996032,151.086397213903609326735
72.8850000000000051159077,2.00096352483210049300055,2.89958927407312216928403,0.385005177572217194281734,-0.0094700435204892914609065,-0.0230024666559658988451709,0.011559287818948302956068,0.000333262147627437206685169,-0.00103100898251662549155727,-0.094823378772025540550672,0.995493304022840086453527,0.0204030536365250800279192,0.0172143623723018494853232,10.0356584211806580952953,0.001243254591921888734668,0.00772676061214714552521921,0.0459527493383201993126796,7.565151031957455529664,2.15953120129196518561798,4.13208747579764068547092,1118.05138298779911565362,1108.2071058604374229617,1135.13834453061349449854,1119.76683439135763364902,-432.83958405571212324503,-134.949073331367742412112,-663.305319734775594042731,-22.1679908994448560122237,151.087319849606984689672
72.8875000000000028421709,2.04664883755452065017266,2.64603384076045911044162,0.45447877874316450208525,-0.00572759097450165847315029,-0.0164746506441893168781743,0.0117591100519261818058148,0.000355677914184308538447787,-0.00103993863160378903487402,-0.0948156548698994849910804,0.995494001201459699501584,0.0168035030356245493332601,0.0177084649892021092632,10.0257746160044245442577,0.00105979468949024329890718,0.0077393379657060331483498,0.0464335316142285431384451,7.56515990118523173890708,2.15955199567359512613507,4.13220284356453237961659,1117.03187771756029178505,1108.20276102660022843338,1133.56863659755731532641,1119.90286224810870407964,-385.212863497086061670416,130.010801248527059215121,-615.579280271336415353289,121.269952989379149244087,151.088135344079091737512
72.8900000000000005684342,2.04117399529576903915995,2.32561185882508336675301,0.529079603662302333511036,-0.00124656481037789881871625,-0.0107064808012477235416027,0.0127475153399388644454016,0.000383910281264838841325943,-0.00104064706848053332294279,-0.0948040051841831238332858,0.99549507772291567775369,0.0131642702178092693698908,0.0186921288807405279464025,10.0162039757674090623141,0.000858196865198541805966337,0.00774702510605944794780386,0.0468909320847432156686985,7.5651694393799688853619,2.15957434360418787377967,4.13232061008474627072928,1116.12531867031543697522,1108.85715986667946708621,1132.06044812925961196015,1120.37318415630397794303,-341.749517420422989744111,433.862906865609943452,-620.186994431260359306179,257.450397185909821473615,151.088997918778375151305
72.8924999999999982946974,1.93127424012292991939432,1.89247811924107733894118,0.593790236268076587755615,0.00549077515691478654225044,-0.00498324947752949113516374,0.0151021100383595101995793,0.000415061713224153770729341,-0.00103991118164814739556479,-0.0947896872346777469298118,0.99549640879333078924418,0.00967867185788154338332845,0.0201322161005152502899485,10.006967473640081323083,0.000639705413065773278828707,0.00775014253112911357529446,0.0473273980989577236488941,7.56517897997686983302401,2.15959772505508684758979,4.13243928345645272770525,1115.3231301304597309354,1110.37207556092630511557,1130.46770162540383353189,1121.1901142340370824968,-236.672326698168660641386,654.068161693934712275222,-540.257216201453275061795,312.724962344793993906933,151.090084893852605318898
72.8949999999999960209607,1.72461116619664767135589,1.50880825778665728087446,0.607711991338792834049798,0.011582412991671460489318,-0.00109914521934423737442588,0.0175089111297958878454839,0.000444323229254051717696666,-0.00104504513446900329509681,-0.0947714772846697944830296,0.995498105168845404122635,0.0065499814356047084129564,0.0219533667218769767970343,9.99807587075255810304952,0.000406170076943101001926834,0.00774957311046334945681124,0.0477455217668133827246812,7.56518731312509995490245,2.1596206192267777268512,4.13255681785603812272711,1114.94195703682567000214,1112.12750067514616603148,1129.35916204825480235741,1121.93680896802652569022,-99.1298698141139027484314,759.588052354443675540097,-407.177636606897749516065,275.471340754588368326949,151.091031416824733923931
72.8975000000000079580786,1.38549046283869303763936,1.11845280828603677036881,0.57059614203854125413784,0.0169731412739346256002282,0.00216988465729280478183627,0.0196530015555466119892003,0.00046893461295378468644407,-0.00105396169970889538522463,-0.0947475356495412340818163,0.995500342840524021781334,0.00378499295731474227899582,0.0240969171020553804551945,9.98952881330664865799918,0.000159011034449569335852762,0.00774707088736424197977781,0.0481478352627512998229697,7.5651935549325841634527,2.15964225760234596052101,4.13267354998433589230444,1114.82748078138820346794,1114.17001582270586368395,1128.43181344236541008286,1122.56747093781268631574,-18.3274239742886990711668,823.572988036539641143463,-359.111058272571312954824,208.716576899320415350303,151.092016399773456214461
72.9000000000000056843419,0.948190930428387646067279,0.734574298602703845695316,0.49497751585920446437683,0.0211811494951264604746921,0.00498253353824540477085003,0.0214221351307451214618371,0.000489906508002041171136176,-0.00106671151054139531910714,-0.0947203632919636911990935,0.995502882425915225361734,0.00141959291833324008358375,0.0265752158265560797789639,9.98131665212273411214028,-9.99223980342902977618696e-05,0.0077453816288926783523161,0.048536468846543653898884,7.56519771004134700120858,2.15966271032437839849649,4.1327902759286665457239,1114.85031991695404940401,1116.24536561533682288427,1127.56360675688847550191,1122.98039185252514471358,14.3175299225861802909776,787.542007884883332735626,-360.996619302487488312181,91.4360016891727696020098,151.093030019760504956139
72.9025000000000034106051,0.430033606966600312482285,0.378677868990842492191717,0.386963492480331627820789,0.0235953418279784069011562,0.00701010863477210741101509,0.0226649471587252633597576,0.000509633972040798551364493,-0.00108650458617207666157933,-0.0946938428038829882460448,0.995505349094938485343675,-0.000457441693249224790029928,0.0294255215446021026193257,9.97342174379645385329241,-0.000368337967212426572061884,0.00774779403687218468088638,0.0489129905051940080951134,7.56520109804316476243002,2.15968196173822013506083,4.13290879476824724036987,1114.89906843100106925704,1118.10772586212669921224,1126.62683034585461427923,1123.02465094625813435414,-5.74263066692378032485067,713.421359115148675300588,-457.178788749076545627759,-79.8783333080608599630068,151.094074133697631623363
72.9050000000000011368684,-0.216223685478115656977138,0.0229038207300317764314457,0.24425137725425283274916,0.0238858972580429304577443,0.0076611921325944040347955,0.0233320189854154536046593,0.00052512931623328266278472,-0.00111350594423069004096361,-0.0946691236403751495975811,0.995507632759414451406599,-0.00181554447578737010449146,0.0325641660122809595279136,9.96581940836735391542334,-0.000644047007022694730990486,0.00775719601199968168681043,0.0492785087432351318059709,7.56520410082353134129107,2.15969961548003963613951,4.13302991548012155220704,1114.82160676361945661483,1119.81247241090932220686,1125.27771281314517182182,1122.58100018598520364321,-66.7366992324029837391208,506.965658327459948395699,-539.172473274665321696375,-245.669841176500682422557,151.095357153007910255837
72.9074999999999988631316,-0.719108990282801285864878,-0.17980186317890511915607,0.13215154789200625473633,0.0217108920240680937363553,0.00634722190402341873705083,0.0231784134409871549198368,0.00053459629911005901621579,-0.00114912633849186614394544,-0.0946484553096579167563718,0.995509518300239371058069,-0.00261025793630541291800995,0.0359248191815669665194477,9.95847923756120856353391,-0.000924634781471583757500587,0.00777651194103476123969942,0.0496337181055403336982224,7.56520636815551306142424,2.15971598361452032932561,4.13315210161596091609226,1114.56538493483935781114,1120.64255415376169366937,1123.93096797948373932741,1121.79630174037674805732,-148.636485855921478105302,192.87743657850376166607,-569.696483774914440800785,-389.44965636300315736662,151.09644766454161413094
72.9099999999999965893949,-1.12780371331296724868309,-0.253052043385342595449572,0.0413580523507690589468666,0.0174889699663063509504912,0.00391764046670831003055246,0.0226681957409956974514031,0.000536957096540783412885744,-0.00118727932104315198405531,-0.0946307019146564176725889,0.995511122810078252776123,-0.00295568765412455858321294,0.0394335745280055757766569,9.95136524267193323112224,-0.00120819948305962883428055,0.00780835245917487538042101,0.0499790247307914173302557,7.56520745450262221964977,2.15973137102844559009895,4.13327455164079182736714,1114.07842433434052509256,1120.77685959380096392124,1122.42923039427319054084,1120.63375190417195881309,-263.485374153915529404912,-96.0550161077170656653834,-651.517485840363860916113,-575.965785261793030258559,151.097555886667748836771
72.9125000000000085265128,-1.47566337356262122781914,-0.186016222642419681854165,-0.040442453070366264633595,0.0116264843826754723371542,0.00120187535100007951427425,0.0222072000769641050843539,0.000534876937428473055863298,-0.00121698523611578433151204,-0.0946142507352794870367774,0.995512616383420811949634,-0.00307837358905896363303611,0.0430739162962250760058325,9.94443711728679247130458,-0.00149319409394325485623822,0.00785513817808921807617217,0.0503144697470686019791231,7.56520700962722347782119,2.15974640765319669810651,4.13339751134785871045096,1113.24795806406723386317,1120.16227907322218015906,1120.67338055027562404575,1118.91647281406221736688,-339.728836434940660637949,-337.550236857516836153081,-593.096757054026625155529,-662.01642248992652639572,151.098901128189737619323
72.9150000000000062527761,-1.64864500356462673202884,-0.0227308277824260114574617,-0.0918644142884392084225098,0.00719752938425868588750989,-0.000111181083356619870021638,0.0221188922285369404807653,0.000535718385827737512278057,-0.00123202985433054634789585,-0.0945975765587696720837485,0.995514155464066741174634,-0.00312754799848995179711864,0.046924345458301541800239,9.93765251956665451871231,-0.00177756576900038425204098,0.00791915441143407200508264,0.0506396526686309841891465,7.56520446588442840862854,2.15976219889459253309383,4.13352089259731059200931,1112.37978015216253879771,1119.08910840951011778088,1119.46374660899732589314,1117.32366979171592902276,-379.264288298535802823608,-517.747366077280958052143,-383.235299632845681117033,-642.384013154144099644327,151.100031274517363044652
72.9175000000000039790393,-1.72330797226083887174752,0.203073177775631719121918,-0.135564501765888967277363,0.00369144502060128392936789,0.000120667154993220571103027,0.0222287194603941438975081,0.000548220642023140793293312,-0.00123403653479992937193332,-0.0945865958530944378468419,0.995515179934510441306372,-0.0031088130937075159065941,0.0510980379061395026396575,9.93096883634308191801665,-0.00205867920605668245845332,0.00800220447144479700429809,0.0509537428363141947640358,7.56520019792721232221311,2.15978056616415470259085,4.13364483156436879340845,1111.35163662257627947838,1117.57354224283812982321,1118.75720405211313845939,1115.70455274829441805196,-438.163896009553525345837,-657.903954729052088623575,-176.973785318729795790205,-630.235307489220076604397,151.101166493241265698089
72.9200000000000017053026,-1.73554301733028704113337,0.436848624519414696631969,-0.177455306165274578900082,0.0005764297627342340009024,0.00159822035926197631057477,0.0222005673128206383604155,0.00057219704193858377406362,-0.00122208149368948108468014,-0.0945837045143511079281495,0.995515470118685796840907,-0.00306893882231669412607999,0.0555226948100685166465063,9.92434412423866696428831,-0.00233429447703434149452573,0.00810467643712246312015512,0.0512556087946910710062554,7.56519502455079617675437,2.15980293600275441434633,4.13377103583238270090305,1110.18896067211676381703,1115.7995886358678490069,1118.57887768240448167489,1114.17249325427269468491,-501.166886617557963745639,-747.618301742929929787351,56.3836437953399425282441,-567.13554299014242587873,151.102302749565609474303
72.9224999999999994315658,-1.68385143426844186009816,0.632903587196034567163849,-0.217386844082886054874137,-0.00281337188309840977723519,0.00422530609405280532797633,0.0214899287016508573622264,0.000595101058400375904772206,-0.00119190150005399472452061,-0.094582933504858968110085,0.995515595660025454094466,-0.00310330735179158156977763,0.0598739605586128056935458,9.91773870350641750803788,-0.0026027159523770533253173,0.00822557868786423507234673,0.0515439773097368589271916,7.56518942750568612609641,2.15982748392383383517767,4.13389982704693892401338,1108.84580218949076879653,1113.83545073412687997916,1119.03912227108958177269,1112.86887503334628490848,-634.788292906646120172809,-877.691798004505244534812,315.235272085160659116809,-495.827151179351687915187,151.103436754136879471844
72.9249999999999971578291,-1.54584831860306293194185,0.784651429799108734997048,-0.263038167495214469937537,-0.00752640134230662602443651,0.00794140704627779685231825,0.019783158376399843925153,0.000612098756906699148841455,-0.00114554385152451729951162,-0.0945814670605729240770998,0.995515810504305265205005,-0.00320293770917554065924548,0.0639898740820813716201343,9.91111444879130054630423,-0.0028622668205445208136628,0.00836499244835626522276417,0.0518173747648231000639818,7.56518346298825683504674,2.15985195976711530363445,4.1340308292383163291106,1107.01501920758641972498,1111.4111296458493143291,1120.15505404282885137945,1111.69335749837819093955,-701.945780698908492922783,-876.069494152785523510829,458.072300112333380184282,-356.438028804456223497255,151.104790927932583599613
72.9274999999999948840923,-1.36138944333837552669308,0.831838169064017862730509,-0.307037527820949118773086,-0.0117250429218990846053083,0.0107287917877722360077142,0.0183745592447936700875033,0.000618213077496864772154839,-0.00108600656028966452773532,-0.0945746761834164034743466,0.995516544524898461254736,-0.00334399696900365694940405,0.0677076079955904325258231,9.90443535760874560480715,-0.00311166411652292725434354,0.00852335392863780641481419,0.0520745065326519637749492,7.56517703987372058804795,2.15987445319139270694109,4.1341641758708336240602,1105.33607328599941865832,1109.45510326336693651683,1121.32948377164916564652,1111.08668488932562468108,-683.461839090794114781602,-737.410554909532038436737,457.079653039526135671622,-166.026470898529794339993,151.105911295626384571733
72.9300000000000068212103,-1.10386631272527524494365,0.804344230374488322610205,-0.379979554668806118744584,-0.0156418461167763291064237,0.012904698674779987999095,0.0179419859461706319991858,0.000604579547695229934517469,-0.00101751245234596161652607,-0.0945598816321551877139839,0.995518046542595014258836,-0.00347456626646237831668174,0.0707911667766463470474747,9.89766830890247995000664,-0.00334994370658659498113385,0.00870084113046984582162668,0.0523145670984532587532989,7.56517060032021593229956,2.15989403289857762047177,4.13429859435881663642931,1103.59771001212584451423,1107.72407687129452824593,1122.44045230803089907567,1110.86322514388393756235,-741.459906432486945959681,-673.536371854578419515747,408.576865109563868827536,-25.2842066205596616157436,151.107020577529681304441
72.9325000000000045474735,-0.727083685073205421289799,0.705446221650507965250654,-0.530689105951298478736078,-0.0193658589041587059220717,0.0153374663667110860965082,0.0183664081581079025040637,0.000568850074728978406975177,-0.000948178121475472734588918,-0.0945368585012084233776264,0.995520326181716375124608,-0.00348044062362792838705161,0.0731432420554966045145306,9.89078162080790868060376,-0.00357616472485019348814816,0.00889805675624944815427231,0.0525372252406064790819507,7.56516426963689525564405,2.15991094217502510588247,4.13443291235929066829158,1101.62877375382981881557,1106.08742140408753584779,1123.37236809720093333453,1110.96026385622258203512,-672.427140139709422328451,-505.289320170100211271347,244.418942982333106783699,78.4591925267963716805752,151.108336323733340122999
72.9350000000000022737368,-0.382357591983912226130116,0.586133767595591437249425,-0.717515713557293821622807,-0.0211142904289130690920206,0.0171174445647141043602701,0.0186599008711204016053298,0.000514356645668287057980572,-0.000882292404432485455161028,-0.0945071738687556922586808,0.995523227819749112477155,-0.00333436630001150702273804,0.0747759966509213419572077,9.88374387742794091593623,-0.00379003862916358139067974,0.00911540018757170909802223,0.0527425778106424755775627,7.56515732704830945465346,2.15992585735233122434806,4.13456633161664033337956,1100.23557431143035501009,1105.19763027044632508478,1123.66254702294145317865,1111.25552110651756265725,-477.272934746749569967506,-242.3574799754918274175,7.72509405579305585831662,138.059175681508406796638,151.109418411724647057781
72.9375,-0.047209965534528205988174,0.453603779454267552750935,-0.95104439034023813270835,-0.0210201029538570095811512,0.0182243197347903215788101,0.0179145882955234411748613,0.000450505852770112416149501,-0.000821913893552580414152142,-0.0944740153818690309162065,0.995526445215772270991295,-0.00306373752983024605356377,0.0758236678082613441143067,9.87652389450968826167809,-0.0039916860974875253628702,0.00935270023963602134542406,0.0529309668555736079209595,7.56514820926378295240511,2.15994021941344360726589,4.13469787740970939893259,1099.24240908009824124747,1104.87563400421117876249,1123.41099356747986348637,1111.65055973462949623354,-331.713404778367191738653,-8.8649139044344931193109,-208.769616711750842341644,169.193516468948644160264,151.110484143368466902757
72.9399999999999977262632,0.29800925911980091775888,0.309151543951211915661759,-1.23368296502494279032192,-0.0189909774317619621519793,0.0186787603056900175513277,0.0150522208838306855577249,0.000391140255373862355189885,-0.000772248506915341093211069,-0.09444434396929474173632,0.995529312617154493736393,-0.0026407119571138087943396,0.0765218673107448954517906,9.86909173183798493766972,-0.00418119214009446144714177,0.00960878132466377182785422,0.0531027412308226060000393,7.56513712742970056979175,2.15995622044690316343463,4.13482780840494612561997,1098.57700728754002739151,1105.1533057009241929336,1122.61869893938364839414,1112.10148868886153650237,-163.878373496858216640248,202.565759870642580153799,-336.018579009974928339943,143.62330489843191116961,151.111742830383576574604
72.9424999999999954525265,0.518737433184146889963984,0.218017955472203817102184,-1.42293412818139231035275,-0.0164158573417357740720224,0.0184716657044466971149266,0.0109821838730693680658002,0.000345679640288485095882265,-0.000738909134115225811091643,-0.0944245349688729723736103,0.995531223978119439443901,-0.00201778920977389863988805,0.0770309197523326300016677,9.86142019300168115591987,-0.00435894008424041017046857,0.00988047297353215371595869,0.0532580972750402170667883,7.56512620081119990800289,2.15997559178411835389966,4.13495794012539175099619,1098.42301721261469538149,1105.88846280356347051566,1121.73090067243151679577,1112.3686762591210026585,-5.04613949477905165963421,374.194779359190590639628,-354.332855711706599777244,66.9553001132569249875814,151.112774048406350857476
72.9450000000000073896445,0.672169016128926433140123,0.165919992015686246222828,-1.51244548723268756873495,-0.0139837933864319138160814,0.0180193725146056520081128,0.00586454495481173506549188,0.000317703384110942506184105,-0.000721757469571748951596424,-0.094418745780004045831113,0.995531790710574071567862,-0.001244609695470771937309,0.0773988395811083945696751,9.85348476084058688684308,-0.00452634427495543674446754,0.0101626483981702535330793,0.0533969022604285081801123,7.56511661710136174008312,2.15999948077736325657838,4.13508902013531365327026,1098.55177659006608337222,1107.02427959772376198089,1120.84703466082169143192,1112.43626518942846814753,70.9091594890190322075796,494.10039821282231287114,-324.64943155124285567581,-15.3887335733700627571352,151.113785839808514310789
72.9475000000000051159077,0.788384683437323041665934,0.141640328693751066380102,-1.49596324259257862365757,-0.0120558103155923180410669,0.0177914899534186328466934,0.000652391360971136548795035,0.000307632149316019738293643,-0.000720416541957545554682174,-0.0944261233630529911442508,0.995531098547976944779236,-0.000362955363500880312521701,0.07762618447079960848356,9.84526431855402783810405,-0.00468518640846446021014371,0.0104490876924670707953657,0.0535186893264949295478949,7.56510865142849908693279,2.16002855731646103976118,4.13522096645735448561254,1098.77756301006047578994,1108.35896479463235664298,1120.1076535146721653291,1112.291732591254003637,80.4025514846493081222434,542.481253431053573876852,-247.112906644904001041141,-114.625221242763132067921,151.114780686354919225778
72.9500000000000028421709,0.891041159072543886843221,0.134162308944887731509965,-1.3479020482103190037293,-0.0109911040761685625810617,0.0183276896625038897281623,-0.00409313448468085535475458,0.00030641875036314036254842,-0.000724916530036586273001709,-0.0944380569096127941985941,0.995529970354093407536311,0.000423088114291453321058611,0.0775261733935773411641179,9.83674172307652838753711,-0.00483833193372915082441921,0.0107323833516758983253059,0.053622828671282964096978,7.56510252302527330670046,2.16006152446471544337214,4.13535477846735588514093,1098.95378934748896426754,1109.73668586487656284589,1119.61147012759829522111,1111.86313908321517374134,33.2255041751370541192045,562.922561580865362884651,-174.007497881324525224045,-252.659867057539173629266,151.11575403894792657411
72.9525000000000005684342,1.02990525969976953746254,0.120189294704682606007573,-1.04194391646133732720614,-0.0103010888703580095332457,0.0195448999579942647719655,-0.0085697753388864952167614,0.000304800304293293127400749,-0.000728951129723560162058937,-0.0944502053386811896151798,0.995528821146022036003842,0.000988797640164712499100119,0.0769291054937669555036095,9.82790426088957325134743,-0.00498846328546576501389298,0.011005552880456391864894,0.0537086029053096894458896,7.56509802468764647187527,2.16009702477458542801969,4.13549027944225944253276,1098.94369053093600996363,1111.17357760253412379825,1119.23761602526633396337,1111.02843325596745671646,-53.0534960187679232035407,455.608939211520578282943,-125.453955609259949710577,-350.800517204744039645448,151.116895773582314177474
72.9549999999999982946974,1.16229878690025389964546,0.0931996163226807700086241,-0.713201235592218707459722,-0.00908678804452520139101068,0.0204412205833977671243229,-0.010637995298642705099823,0.000303416539961801274335323,-0.000733686386295811848387571,-0.0944612610383600420638217,0.995527768830283821266391,0.00134476799727448192989243,0.0758864497240319957338528,9.81874271435876444513724,-0.00513753979906600866806032,0.0112636058373002962557097,0.0537752081812416585226977,7.56509402875108705188723,2.16013418370254761669003,4.13562580599795115432471,1098.68852186739536591631,1112.01473056093209379469,1118.98420034955256596731,1110.10913649719304885366,-152.789941889980383393777,231.620783195268472809403,-126.611526435660024958452,-394.744000517716585818562,151.117824208527537166447
72.9574999999999960209607,1.28983295357172011996738,0.0484593935280844129165345,-0.353899045039742343732314,-0.00623964853173233739702663,0.0208250583047778423106955,-0.0108756430963836032976833,0.00030487649525066218931732,-0.000738153760408790586382277,-0.0944702406537477334946828,0.995526905887228252822752,0.00146394607620678463000274,0.0744958600274238796901116,9.80925217896986190169173,-0.00528753848832069165558645,0.0115028803594974058516209,0.0538219355091340140306855,7.56508949143807107873272,2.16017217178278775335798,4.13576042721879577612754,1098.17974082148680281534,1112.33168151850941285375,1118.60455839308860959136,1109.05471325338066890254,-265.268539522354615201039,2.99275929327781398114894,-231.290773975532374606701,-464.100132294073603134166,151.11872738095394197444
72.9600000000000079580786,1.39578972040747628646784,-0.018704183353369360776064,0.0706047781796612927696088,-0.00134674805175708780721755,0.0208583490449449557302408,-0.0101928611967583675201876,0.000309771469719944498796838,-0.000736626634903104907450833,-0.0944752508776797450540386,0.995526417479892344886139,0.00123813697384383969435362,0.0728162855277670051368233,9.79943300886364454527211,-0.00544064777038032448136518,0.0117207008473545516713532,0.0538481685354270031562685,7.56508352832530750475826,2.16021075990308997205602,4.13589440401622798759718,1097.36217916978102948633,1112.02969435739851178369,1117.82774647967266901105,1107.78863583571819617646,-314.782394961713237080403,-220.522672876433148303477,-349.987549332723801853717,-440.261517531111564949242,151.119780510977989251842
72.9625000000000056843419,1.42006217394902978234938,-0.0792550003363439864445539,0.401866763177322006139747,0.00321355412888799747347934,0.0206992790128421103035272,-0.0095347161688245970351252,0.000316742476800224259485261,-0.000730159097133186232864155,-0.0944756070055220165126997,0.995526373135357078858476,0.00070264176503957720409943,0.0708879493307759678266677,9.7892926741967087878038,-0.00559818254476038973388441,0.011915479150005498995557,0.0538533503488588249918934,7.56507609392503699297094,2.16024991920032105596761,4.13602728227335791899577,1096.60582884667519465438,1111.22906815412511605246,1116.85462064642160839867,1106.85340566572085663211,-292.796544760715562460973,-415.210294321800745365181,-449.884574322550065517134,-326.186296631955144675885,151.120631931485348786737
72.9650000000000034106051,1.36576768025603278999824,-0.137163155722563240290768,0.698547162161100021471327,0.00744291634691014638430806,0.020435500455269865749397,-0.00851300431443916330587207,0.00032189699341069887179867,-0.000719399837663350916194815,-0.0944709671734292044664727,0.995526815476256321524318,-0.000103558022255104131836845,0.0687051822504233522526107,9.778845587868742583737,-0.00576148245990528145438203,0.012086549226949289473354,0.0538368028762222922134484,7.56506831539112489792842,2.1602889843055450569409,4.13615963103037742598644,1095.89819644597878323111,1109.95364288579139611102,1115.57832360806196447811,1106.15770435255990378209,-258.399759314814559729712,-568.81938935732148365787,-541.122084193276464247901,-230.813933992868271616317,151.121456182345241359144
72.9675000000000011368684,1.250751871873366338761,-0.187693966422336183663688,0.957270844047347302385731,0.0108337250070756428016461,0.0200798330255200392635562,-0.00671580129227646732692492,0.000319829606933630513840305,-0.000704387523066875732152825,-0.0944598003120776519292434,0.995527897196810340751938,-0.00114401927385568424888618,0.066233579370409953468446,9.76811347731892709589374,-0.00593197885483090492364511,0.0122342193191514111982876,0.0537975894055122971781913,7.56506109080161603941406,2.16032707292883641159165,4.13629227949872735337067,1095.3138300501022968092,1108.38497120734109557816,1114.14901022545768682903,1105.69933599575756488775,-190.332180544456008419729,-672.432842220152792833687,-574.042234554348397068679,-132.203227634711055316075,151.122258485102122449462
72.9699999999999988631316,1.07657500001762018726481,-0.222869635621424727611739,1.15537264046278487228392,0.013285450297238609457251,0.0195547444990184435265057,-0.00420585076243875938956096,0.00031439596265612969761688,-0.000694089050725995400023538,-0.0944471716638766722873299,0.99552912574072460749619,-0.00222116269145124223260979,0.0636331953559198804093455,9.75712548044527316903896,-0.00611039983328597480910505,0.0123607887268117437595816,0.053734289055243307509091,7.56505412404081578614523,2.16036411870009903424261,4.13642350381827217375985,1094.94653554325736877217,1106.59147867469368975435,1112.70811243529283274256,1105.49668821438694976678,-103.394122247985606577458,-808.864354178839562337089,-591.605354009736061016156,-55.6988350835633312385653,151.123035717903576369281
72.9724999999999965893949,0.815886343757702081624927,-0.239100468270948968152467,1.30188967769984276223738,0.0157362235306863808281808,0.0186511089617201614165864,-0.000801458222197168335121376,0.000306105774121986332243772,-0.000693870388523732035436498,-0.0944352100196234195417233,0.995530293340189831319265,-0.00319660358739887184853501,0.0609886972974406152414595,9.74591926276440467802331,-0.00629762010575730078743018,0.0124689840350947541564031,0.053645106167370337768574,7.56504682158851782247666,2.16040011448366531254806,4.13655255104315244807367,1094.79685943886283894244,1104.34064943645057610411,1111.19098345541169692297,1105.42084182034000150452,-7.11348599682867988036605,-818.034236918048577535956,-496.536060702187455717649,-25.7830553068244725523073,151.123942094624311494044
72.9750000000000085265128,0.563932092879184443390272,-0.226576493509586002206291,1.33126593844643825725882,0.0173691354565724091763013,0.0176737428371795853021542,0.00241145757043826876667159,0.000295911272471020782206391,-0.000702784347662831925841742,-0.0944232811276795036548037,0.995531459115278738458699,-0.00405153038731230485947066,0.05837613624155569419516,9.73454034720307959105412,-0.00649489430509804250429839,0.0125621268194653131627936,0.0535275276600104196744745,7.56503891113281579094973,2.16043487126711264423307,4.13668086391615830166302,1094.9109681132731566322,1102.50130749009554165241,1110.22543213177709731099,1105.3677729378525782522,87.2307460926682693980183,-697.330723216981027690053,-312.457910154886121745221,-48.4401322656113393350097,151.124678073154910862286
72.9775000000000062527761,0.283530306700902845484791,-0.186959178497974998212072,1.24395929594875376267282,0.0184065321223578631792961,0.0166494827017323113182989,0.0062013271901678306691208,0.000293722039229499590207162,-0.000714988484921322232576446,-0.0944116167782350912407452,0.995532595999056413305084,-0.00487591486856782385661546,0.056028250945348606615326,9.72304115196839902068859,-0.0067038358777389370907196,0.0126447836054416600654049,0.0533779450789340290106644,7.56503030535056986138898,2.16046884680061390682226,4.13681038387976496295551,1095.23301316932702320628,1100.85399582035893217835,1109.62869390463424679183,1105.17864115901147670229,171.626678001277127805224,-641.191790227040883110021,-187.185401668318434076355,-135.711491887319169791226,151.125397801522069585189
72.9800000000000039790393,-0.0770257472069727222585556,-0.118029880160114120091208,0.988971126855782922682181,0.0191156955511085357990453,0.0158815249393518681531035,0.0111942657635263533716374,0.000300595701782857863907511,-0.000721889723561139145212306,-0.0943995606932087477636273,0.995533766051739266167431,-0.00579486578546048458626672,0.0539922319610140200030202,9.71148349581144465503257,-0.00692594216914782338789802,0.0127207018784828915225482,0.0531922211075738851637773,7.56502129916060717107484,2.16050212606075442423048,4.13694279879024762180961,1095.76910150327876181109,1099.29534853896325330425,1109.2895051234363563708,1104.68921547841659958067,202.296724621785216413627,-474.181992389298272883025,-81.231235109981966502346,-225.616798990745905939548,151.126247933781201027159
72.9825000000000017053026,-0.38836550453021373430218,-0.0557600225344647981717827,0.655623949565547481377337,0.0193207493376904432258456,0.0157661020515852227930065,0.0149495334652540636660722,0.00031253321203497961893944,-0.000715785704795612529038884,-0.0943869474851442014085023,0.995534987721316322328846,-0.00690669093835862002439541,0.052209944045911955978756,9.69993754885110703867213,-0.00716224129635400531823652,0.0127930763557347303149836,0.0529660075916515774019366,7.56501270165223171915159,2.16053469688582833185819,4.13707975910711756029059,1096.24449679243502941972,1098.48308585841459716903,1109.22253772908470637049,1104.0505571640587731963,167.1979991085819960972,-199.769490106700487785929,-13.8805318310131777792549,-290.607487223670091225358,151.12694926956598351353
72.9849999999999994315658,-0.691033620036023421562277,-0.00544734219858320108109684,0.229129220349672202416969,0.0187653941317575782832261,0.0158926957802920931772661,0.0171564577529792379462226,0.000327052230417041009565005,-0.000696825267840270670682834,-0.0943722383039267143090001,0.995536404863341828352929,-0.00816217396492271984875799,0.0506582792000252538078264,9.68848045518888945082381,-0.0074124725285766041721347,0.0128652036476660756869617,0.0526952775892106303756712,7.5650042683782450225749,2.16056622334350656444713,4.13722032159837205256281,1096.60509149882091151085,1098.29650108843065936526,1109.22010246428135360475,1103.23617804229957073403,101.758095583683612517234,34.3257820605998205110154,-15.0724222931922415824602,-336.850910068039297584619,151.127648515893042713287
72.9874999999999971578291,-0.962147791009554720353947,0.0240121852103289505631079,-0.231605819280232910761796,0.0172544196979745392828143,0.0162284948124114085377112,0.0176046937062357584935501,0.000338871064501049224729906,-0.000669485744746818622376294,-0.0943544680700392351946348,0.995538106341351425321307,-0.00942728215400757962871836,0.0492594169486797323065375,9.6771944377837293416178,-0.00767532976691215167164284,0.0129398039032501670914099,0.0523770917671180502583894,7.56499553558142601161762,2.16059615515815472974737,4.13736250814505535089438,1096.75328727035298470582,1098.65471476871744016535,1109.1471756176188137033,1102.36630261372010863852,-15.8985739227918188021249,259.479208700585786573356,-69.9612665506446944618801,-336.633535002589837858977,151.128350200125197488887
72.9899999999999948840923,-1.15663891997604517669629,0.019181635717174821964548,-0.6696658272067627093449,0.0143708019902906124209974,0.0170191929000293729057347,0.015760859042407263791441,0.000343513073369386726877567,-0.000635590298681677377465316,-0.094333226908920056463792,0.995540132306834579800636,-0.010626208028744046907299,0.0479385785242515335968783,9.66616272822409783316289,-0.00794911778783976077922269,0.0130191047517765039892579,0.0520099267758903430203254,7.56498574212952323847503,2.1606243474231350276682,4.13750472215542863807514,1096.52559862920702471456,1099.59389713193240822875,1108.87029613152844831347,1101.55301036728815233801,-201.726042044830450095105,499.904130230095404385793,-183.464538487860522764095,-318.715905640440496426891,151.12906013476199973411
72.9925000000000068212103,-1.2514575605972038108149,-0.0272318894078980369699572,-1.09124023077951681770514,0.00954378584895421849809694,0.0180370242221634391466267,0.011352669438477687446909,0.000344971728102137244458686,-0.000599044118417505584359151,-0.0943106832195856198408634,0.995542274341153499150892,-0.011665614996419229609792,0.0467808169779216423411761,9.65546623818439009312442,-0.00823134345388674103227711,0.0131053577006600748683374,0.0515937918740353926305708,7.56497454672305202905136,2.16065178914127997700234,4.13764614666791263886125,1095.74465706012688315241,1101.15423541987274802523,1108.22985292517773814325,1100.77272308551482637995,-364.793894356330213213369,593.779608897592197536142,-281.749304118785687478521,-242.539119145871694627203,151.129928788496215474879
72.9950000000000045474735,-1.18879149597824729234219,-0.0890958119545208343525999,-1.3152360545685386483683,0.00509141910640647631786093,0.0184403543491950087929165,0.00680236897379467384677776,0.000355530914906605668545508,-0.000563774999903184081961882,-0.0942934635169324353309861,0.995543896266164352049088,-0.0124753616949017792636667,0.0460240489035568176023894,9.6451800658011741518294,-0.00851902961460039229169006,0.0132004982731379234828228,0.0511303007408413917600498,7.56496177958265381136016,2.16068074091510853307341,4.13778636084812490025797,1094.70162915742184850387,1102.56279517642610699113,1107.46154961093179736054,1100.3403147715564500686,-471.639619713843444515078,517.74952033890053826326,-333.550668992378234634089,-125.340779877820153842549,151.130672095961813283793
72.9975000000000022737368,-0.970167574716321645666994,-0.150610819144209262532286,-1.38624470251661602304694,0.00112005360276183846615639,0.018036305619783848247506,0.00237894031473708054275074,0.000381161214202179572056034,-0.000532958351304913370907745,-0.0942873214792524644289884,0.995544448488221989101987,-0.0129971242811761228397316,0.0457792169687387950904878,9.63537181821259736125285,-0.00880864822438496598844271,0.0133046876919892080592955,0.0506230596572316143832992,7.56494709773124895946239,2.16071256841243775070893,4.13792402750062748850723,1093.38645896155981063202,1103.74298302156489626213,1106.56209958021736383671,1100.14601918612629560812,-595.078363973375530804333,395.303642768699603493587,-387.251675863660466347937,-38.9044836292113416220673,151.131442376992595200136
73,-0.548197277859074461048294,-0.191379586427971870588038,-1.30085691158012606294392,-0.00261393879996828660400299,0.0165193981748380756824357,-0.00246279832883168799118057,0.000420453134058118333134246,-0.000507113716148502704020307,-0.0942958926210735182138478,0.995543588017729352834806,-0.0132193668731111768632758,0.0460089113896560222838339,9.62609833081853416558715,-0.00909648167390034005641564,0.0134164600969968808574784,0.0500775499382914920931675,7.56493059406582535331154,2.16074737792119053736428,4.13805794188417408463465,1091.72623733755767716502,1104.53931339026780733548,1105.52529123161525603791,1100.14579235341057028563,-587.62253486187330508983,153.337953091070943401064,-346.517122051042406383203,27.7234127101362197720391,151.132405640987087735994
73.0024999999999977262632,-0.0975825641955369998958858,-0.180868450447741468956053,-1.10604330087010738203901,-0.00463545825847499690097742,0.0145714753541273649845023,-0.00612380328583230632011336,0.000469881442680066007712425,-0.000487225326991236643795619,-0.0943184045534385950837475,0.995541393774012628448133,-0.0131268046902631163597164,0.0466363496273352468035611,9.61740299735070891529176,-0.00937855240004208980109102,0.0135336978000358907486822,0.0495007297388654898817606,7.56491168877692121697009,2.16078512182041482247996,4.13818635956750124904602,1090.4483462872531163157,1104.5096727870195536525,1104.82951396996372750436,1100.28463624967685063893,-457.412077861279101398395,-169.000563704429623612668,-226.753542819757740289788,68.7012350813972290097809,151.133245600877188508093
73.0049999999999954525265,0.39451588807672122172221,-0.123935162912940211032975,-0.817839965808522473267317,-0.00494331765514659411675513,0.0125961296037596925945223,-0.00912283549705568581889015,0.000520555770608302557748981,-0.000472421288721537775689985,-0.0943471947597967763865512,0.99553860323838327950341,-0.0127382650474837239018555,0.0474806250065987270336798,9.60931410504293737062653,-0.00965105296889513970814978,0.0136537053064256837936474,0.0489005900646870481085493,7.56489005992801821776084,2.16082483467270325405707,4.13830855186539547929669,1089.43917694825336184294,1103.69431057174642774044,1104.39152351751749847608,1100.48929852881724400504,-347.874111181964281058754,-442.696140483493991268915,-136.695639983881420675971,80.817049484201803011274,151.134128527502355154866
73.0075000000000073896445,0.862884179763616976366336,-0.0480033240762843191329345,-0.487604816568893317807465,-0.00311970331602711434607067,0.0114928431666461109555977,-0.010935100201876943662449,0.000563609473942196866243226,-0.000460001870991830718021082,-0.0943754456122928714334464,0.995535875906960687764524,-0.0121155520975917002646227,0.0483594904120141430570179,9.60184341170361577155745,-0.00991092950989121493354794,0.0137738747909009542902403,0.0482853389888981063271522,7.56486623070362540488532,2.1608654151640411811286,4.13842506188713432635495,1088.70897573133993319061,1102.29619208459780566045,1104.14603577004299950204,1100.68872149709864061151,-228.842372182374418798645,-658.505601764819061827438,-76.3220454378713952792168,65.4611733235114030549084,151.13504923100001064995
73.0100000000000051159077,1.23020939635192227967764,0.00848543276510158733794142,-0.156185333656321562179059,0.00141204402416909738197937,0.0121044689064580511528302,-0.0107546652932453117718081,0.000602641788832762245742281,-0.000451790191709017783551483,-0.0944026103113114745113421,0.995533266982357001317894,-0.0112636845392879991756274,0.049337863733532098808876,9.59498568763525305769235,-0.0101558311339298313474844,0.0138929275342030977835606,0.0476624647445473281770489,7.56484119782613184668207,2.16090682253291044290222,4.13853674596465470614248,1088.29496508733927839785,1100.40178256291596881056,1104.00991329032740395633,1100.81660439543543361651,-133.118360091687577551056,-876.445743935279551806161,-80.0150704438965618692237,26.9701625124316421988624,151.136016778276882632781
73.0125000000000028421709,1.48585106796395804984456,-0.00131954947765164365414137,0.187439775233275929267052,0.00838433018520711413612556,0.0140985411380486220372932,-0.00880200098667533251117767,0.000640715198966816798162305,-0.000449179040623161535735614,-0.0944299463392537646866387,0.995530659007687002137743,-0.0102000543497027112982423,0.0504704793923360303664616,9.58872060499376388520432,-0.0103845426925832217540657,0.01400970389022575604554,0.047038455195813490272716,7.56481608290902496349872,2.16094950346449454769981,4.13864490651519112418555,1088.04338393088210068527,1097.91396336492539376195,1103.74596041782388056163,1100.82357230966067618283,-76.5277920324265608087444,-892.749793614705367872375,-146.444345003871092103509,-26.9420306578257999774451,151.137231988353931910751
73.0150000000000005684342,1.52696563738451818181829,-0.0979552554702244754336604,0.406214686566324589822585,0.013957228785254136363414,0.0156900562666920651011537,-0.0068154826486326062703891,0.000668838697845509293042621,-0.000449914640151851709382047,-0.0944547185666537725268199,0.995528311404814569840482,-0.00899241725849823925198478,0.0515770400859840577600934,9.58301572000606505241649,-0.0105970508300764747894318,0.0141222774103551204638585,0.0464186773449087736187479,7.56479174317631475332746,2.16099255198917061804309,4.13875062021649942067825,1087.91232612717749361764,1095.93803359484650172817,1103.27769156530871441646,1100.68189424214642713196,-64.6736668638501868144886,-713.048209001738541701343,-266.802884552195621381543,-87.8575037488534320573308,151.138288585156772114715
73.0174999999999982946974,1.40674380101665685849355,-0.286452292021591781168155,0.552477643610700841492189,0.0182921897904968107362311,0.0163209664647312943652757,-0.00534380742709213846231009,0.000685491089133883203625419,-0.000454023325880949463282527,-0.0944780626305919551954915,0.995526111424501869429093,-0.00767986008028267996827765,0.0526240502761049430691109,9.57782751133435539259153,-0.0107942682065295392224158,0.0142297844309673526125293,0.045806664810126664078016,7.56476851763454050114888,2.16103612428084890240143,4.13885398699868112259992,1087.72001559656314384483,1094.34872231991994340206,1102.4119459950641157775,1100.38428479091680856072,-118.026306008203420105929,-564.383785715030512619705,-483.880349575687318974815,-161.604859855162061421652,151.139387903595292073078
73.0199999999999960209607,1.12544543758315018777694,-0.589154678131663445128652,0.658353721707053529677012,0.0219287819206796033566498,0.0156796499998978697276719,-0.00408211511928936211790475,0.000691985121027211794349221,-0.000462172211633424929143332,-0.0945012595613670264294015,0.995523932882183881787341,-0.0062935254967858567098915,0.0536328943275207192797893,9.57310474092717988980894,-0.0109778453165347081310621,0.0143320881162422066046336,0.045204084502368804820982,7.5647466420214568572078,2.16108076719542774313254,4.13895570598577045018374,1087.32219459713701326109,1093.11611466627391564543,1100.85828981743247823033,1099.87386994287135166815,-174.686983796326586571013,-322.575741828145055478672,-648.678649107224828185281,-205.98091669281737381425,151.140751639963895058827
73.0225000000000079580786,0.818613970206129137885398,-0.872129535858417459515124,0.698078276834513289372808,0.0238128781877186418425296,0.0139491129698970910827382,-0.0028146659097370192725851,0.000690631469190358801210627,-0.000467166702522247168777314,-0.094521481799535067569451,0.995522040566519494930731,-0.00501316443210536588637183,0.0546290887901972679885354,9.56879080656707081686818,-0.0111505472545518381777274,0.0144297258801106866032971,0.0446105799277976763916875,7.56472628272255853687511,2.1611257621212507373798,4.13905805497087619926333,1086.84658067757982280455,1092.73584361077610083157,1099.16855274952172294434,1099.35438020745073117723,-207.819944855562766861112,-16.2855983641433290642908,-734.183874381360396910168,-218.380812355086106890667,151.141921513204323446189
73.0250000000000056843419,0.48196639708035371452155,-1.14370146741303324589012,0.692241172805012183744111,0.0247583742992543015537521,0.0109651811256663497817776,-0.000726676048594416352718883,0.000689954772199519172914961,-0.000467546762862413320741006,-0.0945376642446239812134223,0.995520525873144768169709,-0.00391653591249473131963299,0.0557643011776629629605573,9.56482809923607746327434,-0.0113149625690080971734952,0.0145244462066880970774196,0.0440240263015936189594512,7.56470686514734325101017,2.16117049434833630172648,4.13916214979052465849918,1086.2830948728571911488,1093.03468667445304163266,1097.18737044551858161867,1098.78196588109381082177,-224.865844029932191006083,220.577905676846569349436,-813.72977268976114828547,-232.447673366352717039263,151.14312225988606996907
73.0275000000000034106051,0.147745539794020247503781,-1.37671937217189532809414,0.652055760750897661637282,0.0249559516137310560823792,0.00717175917739787047167077,0.00169771329413536992310185,0.000696010130540696144406387,-0.000467500629683291544884394,-0.0945487777811320623255753,0.99551947784711114497469,-0.00296434508026408027880905,0.0571500329342490218098582,9.56116194367349336857842,-0.0114731851009718752859579,0.0146184542305494175745695,0.0434411803596442894215279,7.56468706377577859711892,2.16121409389968732739362,4.1392671490156507374536,1085.72225145743118446262,1093.83873313915933067619,1095.09990388607661770948,1098.19214184062002459541,-204.370132275248010955693,416.015261527596521773376,-820.468931416390205413336,-237.821857109691165987897,151.144346268259852195115
73.0300000000000011368684,-0.159853229846811856207367,-1.53833450911866531640726,0.583661133020436762031125,0.0242592785689466315657281,0.00291530536021522351450286,0.00358566756115016741293666,0.000710162096118211664912134,-0.000465800880770997197989625,-0.0945552821966991613455988,0.995518852354535743742758,-0.00220641248006862855657317,0.0587944908192857204620729,9.55774184544855387457574,-0.0116276826349881266114972,0.0147139774193520214695674,0.042857966319687107459302,7.56466685901741975328605,2.16125607588760804134154,4.13937369327788484696384,1085.26124421148188048392,1095.11476298208913249255,1093.08502578844036179362,1097.59285659554643643787,-158.129784821229009139643,622.135120258710344387509,-814.199440166579961442039,-268.865563119987996287819,151.145596114632979833914
73.0324999999999988631316,-0.479972651588482512874378,-1.63284074144653801319294,0.497559298803434080227248,0.0225669925216705584414267,-0.00228320534871481175751007,0.00473334907398974442938044,0.000733110153420394694383233,-0.000461168560332659638930503,-0.0945573043847024313768301,0.995518640613376248893474,-0.00168611791667218346990609,0.0606887925535215741468242,9.55452339871440514684764,-0.0117807310550038339680423,0.0148134790354406218476635,0.0422698982480681426099345,7.56464691235874298058661,2.16129674598099796867245,4.13948271157693348243356,1084.93160253332575848617,1096.94940874045005330117,1091.02890668524742068257,1096.84781402502130731591,-70.721972434894922798776,682.617082291547035310941,-654.851731093008197603922,-282.399913416140748267935,151.147123723683989737765
73.0349999999999965893949,-0.70181534962243607989052,-1.62543787215958634995161,0.443777033274026011522295,0.0207330434329401902537882,-0.00660534556985160545283797,0.00489761527376014749179944,0.00076070686446937021019804,-0.000458402692063080243779771,-0.0945554377235814785818135,0.995518791423107951565896,-0.00131626557867890736641669,0.0627381897531824328506644,9.55147065612557000235938,-0.0119338062788991901286284,0.0149190926046839020258084,0.0416728490388215827566754,7.56462714696138238679168,2.16133655454210149571281,4.13959212449528735078275,1084.90763434930772746156,1098.52784839354376345,1089.81076713297829883231,1096.18085702846701678936,55.0489359097655537311766,593.389408494239432911854,-347.248058832076026192226,-281.348311514468264249444,151.14841893419705343149
73.0375000000000085265128,-0.881281073600911901699817,-1.53256179274485226926572,0.423090220136564942876589,0.0187749065596195044425265,-0.0106876664141297220145255,0.00490283877867925699939322,0.000787376459124888069401882,-0.000459109584091263228568941,-0.0945467537891231668556458,0.99551959452938909578279,-0.00106134588251764749866624,0.0648111382354531334604175,9.54855475948989251833154,-0.0120881797432419203774945,0.015032745622966537865639,0.0410631806681395691849268,7.56460684771722124963844,2.16137552970247348582689,4.13970047740226920751638,1085.20684721287511820265,1099.91635578292698482983,1089.2926663910836850846,1095.44107246744624717394,215.99444629827394237509,520.059644299949354717683,-43.1232737675676247590673,-341.689038596608895659301,151.149736702007515987134
73.0400000000000062527761,-1.0576828889002349853854,-1.33462878758550096414126,0.432282829823347203301864,0.0162855969402449021754542,-0.0150945431195291680098736,0.00559054355284853074503637,0.000809461695844000293439957,-0.000462804927798995653989711,-0.0945299894984948374521139,0.995521179665614486253844,-0.000923489509503119809785687,0.066804642100271149907087,9.545753131920305278868,-0.0122449382878110947514561,0.01515614187333069219632,0.0404378634030197053883526,7.56458542788059062900174,2.16141350570039536549416,4.13980759171256540440709,1085.98760658080118446378,1101.12814661504853575025,1089.5951507641400439752,1094.47241183548067056108,357.472839823419690219453,345.225251229699324539979,264.648688508954933240602,-361.86776678210833324556,151.151344221300576009526
73.0425000000000039790393,-1.17798249273972510664521,-1.11040357147433277340554,0.454788994706225413455769,0.0137733532046918887709053,-0.0181423188775553627383186,0.00684603284311711621223928,0.000833831379235510988454094,-0.000473492473287973048273053,-0.0945097613356473131851487,0.995523099631644758922278,-0.000834004354961240257360089,0.0688197935590318804477405,9.54304777917084479099685,-0.012404677079000248421381,0.0152911869972807024781192,0.0397944127754755877512949,7.56456300101976619743027,2.16145188158570711323136,4.13991365692807811171861,1086.99421141199059093196,1101.6424820390739114373,1090.61590983362725637562,1093.63173363353735112469,467.139319566074050271709,91.1295160510154573785258,546.897356528458544744353,-328.236270031246249345713,151.152705850116063857058
73.0450000000000017053026,-1.27395541840917525533428,-0.842608998974808232063083,0.474507067396925330537982,0.0106888713614013333014219,-0.0203662196403502117336703,0.00832675781002994996882194,0.000861596853575427850530088,-0.000490067945550658559152046,-0.0944869592530255403284301,0.995525266024695820732404,-0.000805699553800873213837974,0.0708372886272158608367278,9.54042507246297155631964,-0.0125679487848034589919655,0.0154387031035628508046642,0.039131284501835075784193,7.5645396018079162914205,2.16149166198553910334113,4.14001939415406194910929,1088.32330317862943047658,1101.58379419530319864862,1092.32963754677984979935,1092.83123048532593202253,634.504975970398390927585,-151.712884404425238926706,867.887765816174464816868,-321.420490630154233713256,151.154090396212836822087
