t,ang acc x,ang acc y,ang acc z,ang vel x,ang vel y,ang vel z,quat x,quat y,quat z,quat w,acc x,acc y,acc z,vel x,vel y,vel z,pos x,pos y,pos z,mot 1,mot 2,mot 3,mot 4,dmot 1,dmot 2,dmot 3,dmot 4,vbat
2.20750000000000001776357,0.242433647613719993607617,-1.18969782361699483175244,0.167220272898924937621246,0.02259537343715371099373,-0.0209015675899621722333421,-0.0026427629026060236658302,0.0189756040537422572545001,0.00239730901824677759825999,-0.724455192076848608628836,0.689056271861301139480815,-0.199573591441692260728402,0.0632335828778281261453031,9.8651690735773094331762,0.00139691654530158882244195,0.0299378255848381374937262,0.00887347861978528967830115,-4.23433676258267155390058,3.75070617445456422345273,1.19790350592684324837478,1128.29657936733269707474,1134.47957932575332051783,1141.02269316697538670269,1131.59172234359675712767,99.3748384313242496546081,-773.531267227525063390203,-219.491162520676112990259,-57.8890055455770919934366,162.542993420095228884747
2.20999999999999996447286,0.311335431457256395226807,-1.09278747356915006960776,-0.0102275489650713521938563,0.0227607633095334715989111,-0.0237325315477533611840943,-0.00292370431904830866548517,0.0189761273857820059185464,0.00237104731671469249124073,-0.724453680176350145458741,0.689057939147896592047005,-0.198209049603738085565396,0.0605763570920478111592189,9.8603299884380462003719,0.00166265726960653469068685,0.0298858058579924285025342,0.00905110039502469293504205,-4.23426410012704312890719,3.75069599188076319151719,1.19793134404524725944441,1128.847820142706950719,1131.96690149384653523157,1140.49542911691696644993,1131.28082598525543289725,287.993997424161307208124,-1021.36161252212696126662,-150.212159611104226542011,-157.283834295416170334647,162.543940543495580186573
2.21249999999999991118216,0.394131528601637637354571,-0.985087933492377332278522,-0.148662131119293161596318,0.0229289022739737509415381,-0.0259161666013410924014337,-0.00327948364009170980834518,0.0189709059966339070590902,0.0023349849454939466085468,-0.724454951904259125683438,0.68905686240229746530872,-0.196532912688065442008423,0.057873998362513029425358,9.85527817184765453362161,0.00192850309778975787661226,0.0298267587886888868586865,0.00920699414618139644339578,-4.23419058322897434720744,3.75068466304908776365323,1.19795991391203582310254,1129.73654935445347291534,1129.37277126314279485086,1140.27163236891988162824,1130.80530317211969304481,425.102965470123251634504,-1062.42360462194938008906,-27.5505865375640901504539,-219.176053238975441672665,162.544599148772903163263
2.21499999999999985789145,0.493070887004143310061721,-0.847655794822603780858117,-0.271130725067103450776074,0.0233777609601828126328904,-0.0282337116284581621239447,-0.00352148646307081161777042,0.0189583027772296103252714,0.00228879800296038138016086,-0.724457100212158700003329,0.689055094754173813598186,-0.194524092743762144763764,0.055123864255523985500318,9.85005673928476710443647,0.00219485647004185767047768,0.0297593475941971725984292,0.00933977331338173982766548,-4.23411646528056628824288,3.75067245445252694935334,1.19798885027644730350005,1130.97333497005752178666,1126.65478347073690201796,1140.35767618422914893017,1130.18494571906057899469,539.704420070538617437705,-1041.30147689604450533807,94.2516138809814947308041,-261.104172236337603862921,162.545120957768403968657
2.21750000000000024868996,0.589725600904191793460996,-0.682928884469893748843106,-0.375535328003760993098581,0.0243022766857409755481001,-0.0307179845706178067388237,-0.00365979217244504157272034,0.0189381554053780903901227,0.00223567933478232509086903,-0.724457999627881266135887,0.689054868224939220944236,-0.19223302965989672030922,0.0522964590849604726852107,9.84471030476249353569074,0.00246242278325648497952494,0.0296822468467254213519979,0.00944881776342399067047939,-4.23404230890926047692346,3.75066006919084182769097,1.19801794816338547100543,1132.43507145480634790147,1124.16626387866222103185,1140.74289043832482093421,1129.49978231093791691819,625.267630330703127583547,-868.155441555596212310775,227.134107853074198146714,-277.812120111483977780154,162.545529258628448587842
2.22000000000000019539925,0.657431296002408682710438,-0.488099486639370971907681,-0.445651851271169130441763,0.0259931063530862010990674,-0.0330773318408886657371326,-0.00426191779758016385526442,0.0189144799424758210115716,0.00217920434994174150658552,-0.724454984962085379862629,0.689058866614710718856429,-0.189777848594898851386503,0.0494167604354154577084302,9.83928201539621660742796,0.0027322086921562991485013,0.0295942962923602427560699,0.00953403008982371333313033,-4.23396854479526396630717,3.75064813142494379860636,1.1980471639830132524196,1134.09967312171124831366,1122.3140062629586282128,1141.49334672349459651741,1128.79588511850306531414,760.729056036887300251692,-608.583467804477777463035,398.247655676922761358583,-299.439861378556997806299,162.545801576372866747988
2.22250000000000014210855,0.670636634011368526486763,-0.239291753642034893401203,-0.46450786213004546798544,0.0289524342972743709001548,-0.0348170449300207740517266,-0.00612838040079639184698479,0.0188892754875394364155738,0.00212494419091735714869018,-0.724448789078606880664779,0.689066246964642248329369,-0.18727877767943912346027,0.0464564354225854569957477,9.83381526169891628796904,0.0030051380113528059281891,0.0294944419842538864406922,0.00959612039741180797292053,-4.23389523978074233667712,3.75063660427834832944427,1.19807630263214570653929,1136.23871673499070311664,1121.12334653963989694603,1142.73412871670939239266,1128.00258300404516376148,791.291155219886150007369,-255.739831936813061474822,485.276236372157086407242,-271.658027670452042912075,162.545973543075234601929
2.22500000000000008881784,0.607268542812423706145353,-0.0449664259441150127027953,-0.40763675008929028953375,0.0319578510765311796237853,-0.034706378187999320505952,-0.00858657968063228360655614,0.0188649092695541663322611,0.00207203704932751742867625,-0.72444205395941363434531,0.689074165423606554981006,-0.184777640239464302496231,0.0434861528920070794512753,9.82835080301981989236992,0.00328211906723114427153476,0.0293818592514014133298961,0.00963608524679184993977366,-4.23382194026449454327121,3.75062490129662773341579,1.19810480855482248685462,1138.05612889781059493544,1121.03530710327459019027,1143.91972790535533022194,1127.43759498015083408973,709.375821847258180241624,119.818843787973321468598,460.390985536387972842931,-194.874889465340459082654,162.545990475350976112168
2.22750000000000003552714,0.465303028207467384014251,0.104399330684453645057275,-0.269338747696028113498556,0.0348406685508178687316061,-0.033218473504906996518482,-0.0111300380754899841395655,0.0188427262809490181361127,0.00201968871337144086422488,-0.724437275284264714514393,0.689079961152378017708031,-0.182305900710717144752593,0.0405635440938523217369038,9.8229261682687685208748,0.00356403514609089124010044,0.0292558388617455110425336,0.00965548529634345509276017,-4.23374823236312369800771,3.75061264813263717243785,1.198132816232169606252,1139.7855958442269184161,1121.7224407585797507636,1145.03608364439128308732,1127.02820855671848221391,708.132467429656230706314,401.010429654760969242488,416.437424451905599198653,-138.027788302955059407395,162.545880439451195798028
2.22999999999999998223643,0.234713984147344151276471,0.214668263977125961528003,-0.0350104063615082686244939,0.0368434935211799166610014,-0.0311527271518883853984594,-0.012677894791981510203005,0.0188260583825769524379812,0.00196847902035675271711912,-0.724436965909616592540488,0.689080898140935760309844,-0.179945097188815572586407,0.037754644692907374237123,9.81757300043778258213933,0.00385161194413723324825316,0.0291158836236951809595119,0.00965630750545356381087103,-4.23367388798845301067786,3.75059971364966626694581,1.1981605829563546361527,1141.59679123495880048722,1123.04035925154835240392,1146.00191502761481388006,1126.74745603863607357198,598.204587115573303890415,493.092821894071278165939,254.60981770452778505387,-71.0745769568817848949038,162.545607760099130700837
2.23249999999999992894573,0.0319482491436782686800022,0.255893502556342244957932,0.179747725972129263061206,0.0365988453668023155929134,-0.0300938146700765289665025,-0.0120498269394962390782533,0.0188164595678940900491671,0.00191563600931816502108418,-0.724440529534477573037066,0.689077567141027080843685,-0.177708442323078752433929,0.0351495391556331249205414,9.81231796873161243865979,0.00414579021384302824626555,0.0289618128321851610318394,0.00964080262679987629037548,-4.23359892310987984131998,3.75058576784732400355438,1.19818729835533188676777,1142.77661877980472127092,1124.18790486805005457427,1146.30913273291389486985,1126.67283567193408089224,385.542686882453438101948,387.140309227842465134017,-7.50880038276607209013491,-10.718937154843162673501,162.545268497070821922534
2.23499999999999987565502,-0.132585683152460082068202,0.268003112516896013772794,0.366423371708817335878905,0.0348524432515861168346838,-0.0299639147313485593171478,-0.0098249646632986263605769,0.0188148348822033302518708,0.00186112366374960595989674,-0.724444903239667925554102,0.689073162702010355573634,-0.175639157512927274185088,0.0327899915548748033256032,9.80718163541844845099149,0.00444757406415943138539015,0.0287938385317993983392171,0.00961162380148373671207018,-4.23352361966963020023513,3.75057107930627608993746,1.19821278432333833130485,1143.52450466937102646625,1124.97606079768752351811,1145.96437102570098431897,1126.69386135286185890436,223.770679048523930987358,195.44293397033061410184,-303.962652176621702437842,6.02930781574246132947792,162.544819760987110157657
2.23750000000000026645353,-0.251605843919922245177645,0.276225191000943337549245,0.523218006802005364264119,0.0324114795130923671884204,-0.0300673168614186067659766,-0.00664719688101936181240381,0.0188189028527267487866936,0.00180793887661723695278737,-0.724448545687158440564701,0.689069359108064660723869,-0.173778389725612575356095,0.0306298454518785512323831,9.80217935754081892696377,0.00475774438578316968134763,0.0286127054110144503351609,0.00957176071644554385398074,-4.23344847725729866994016,3.75055589405501077493454,1.19823724456884472822082,1143.8954721750474163855,1125.16511953790177358314,1144.78931947203068375529,1126.70298221101279523282,55.6129309124534074726398,-79.5812287853042050755903,-538.577119596820921287872,-18.8759365443262119299561,162.544163413576171706154
2.24000000000000021316282,-0.282756289628776469324833,0.289073718566144055586165,0.594536404739882229364412,0.0307925470621818776761902,-0.0299173779658350839916192,-0.00427724858636518295851303,0.0188275443389140408056992,0.00175901152538306604009022,-0.724450828943807079163264,0.689066841237819138754617,-0.172184211323505531598954,0.0286371721973857074061698,9.79731932098794189300861,0.00507687013645681962242806,0.0284198646600244755888731,0.00952408693055537339255956,-4.23337424037879106464288,3.75054087417427206574416,1.19826102499622333397156,1143.80256932393331226194,1124.57815465376097563421,1143.27148542771669781359,1126.59948167014022146759,-99.6821722930256726158404,-381.675072590550314544089,-677.739596991583198359876,-81.6889690610895939926195,162.543525110347417239609
2.24250000000000015987212,-0.261412237489357435205051,0.310975317857395350262806,0.62223692492254201180657,0.0299674198584194452499307,-0.0293851185575752932299665,-0.00267669343448414306235739,0.0188407599358209748574566,0.0017161412302149387128225,-0.724450931907807404996902,0.689066470603357017488122,-0.170915562083889555067273,0.0268080451090926541457549,9.79260310207950190886095,0.00540532312412900662473847,0.028217453567184611756824,0.00947119902604763065634419,-4.23330189313433447040325,3.75052678359164204380249,1.19828436029768492510073,1143.39706131358229868056,1123.25674417494906265347,1141.40062148707283995464,1126.29453736570735600253,-191.263223318860099197991,-622.211180668695874373952,-769.01375399694916268345,-159.937413964238430708065,162.542800819461263017729
2.24500000000000010658141,-0.2179299209716830387773,0.337764889303626913985568,0.635336904259741430678332,0.029750395726061373141702,-0.0284882445034151075835549,-0.00172888714833205922420667,0.0188548760169970248956606,0.00167324279558627060648934,-0.72444916687389282472509,0.689068033714034799963599,-0.169872228623153320725692,0.0251969940724353080874209,9.78802867929801045931981,0.00574315969530694078043487,0.0280081921564677462088699,0.0094151455250177686073787,-4.23323241977482211950701,3.75051274110734977895731,1.19830581346964470945693,1142.84625320733903208748,1121.46709875041756276914,1139.4264166577320338547,1125.79979460031904636708,-223.136586333435133155945,-778.645080054610161823803,-769.105163648526286124252,-237.938016462163034248078,162.542012286259733855331
2.24750000000000005329071,-0.172220444869843530844022,0.366886236049463188013675,0.65387378087024572437258,0.0301067808983419941959436,-0.0271770784344758167816458,-0.00124584430487685669103337,0.0188692124535438619792327,0.00162439644738754298408656,-0.724446223865710225986447,0.689070838196922497154162,-0.168997147116159818214243,0.0238924285537022440539801,9.78358862590147992932543,0.00608981592768295231649089,0.0277950633452886050611674,0.0093574431000925488433051,-4.23316604292617260085763,3.7504974124732992635245,1.19832530542989990074432,1142.28137838191514674691,1119.36351877467609483574,1137.55509566883029037854,1125.10484728339656612661,-211.132247782375031874835,-931.033676463877668538771,-750.240327249473580195627,-333.442508660716896429221,162.541155403105904042604
2.25,-0.13416875426923483005659,0.406218476361805191920951,0.695852354562560004858085,0.030949308690245889985615,-0.0254033815841815495406575,-0.000516415287833488050039943,0.0188861358340433362068556,0.00156989898906487678441335,-0.724443091002396233335503,0.689073780753191478254394,-0.168357487972664671138645,0.0229316081866756948937081,9.77927157859476992030068,0.00644402263809298447155838,0.0275808630961466849651487,0.0092991505903998582932557,-4.23310255469540930306493,3.75048019776513896772485,1.19834400765906878838507,1141.79059196842717938125,1116.81193036809827390243,1135.67521502148474610294,1124.13258205701549741207,-125.008403595759716608882,-899.561870304679473520082,-603.396369868291117199988,-361.149256293454925526021,162.540060456657926124535
2.25249999999999994670929,-0.117249135355388292567547,0.451209358724583176059042,0.742583081621175922215627,0.031566876831630348576585,-0.0240978645233639980627327,0.000727191110580806417650057,0.0189071634907919151891154,0.00151663890130916299489594,-0.724438845998284897120811,0.689077772547119105084334,-0.168092899164457770799785,0.0222434852641149038987578,9.77506556290850525670066,0.00680415568736994925275186,0.0273677395833499675914524,0.00924085880083726045330916,-4.2330412282637759346926,3.75046137068497964506264,1.19836317854148055594976,1141.65633636393636152206,1114.86570942315279353352,1134.5381138194888990256,1123.29910100192932986829,18.6689505183043706892931,-709.633405178844100191782,-352.255293904098152779625,-314.763167099415454686095,162.539101346422711458217
2.25499999999999989341859,-0.100014291521069095813878,0.526241058373069447995363,0.783618664027158629004077,0.0314307320361609451864204,-0.0232350328368629982511706,0.00275052028513705611525997,0.0189308128579834637761348,0.00146681179581962563285291,-0.72443312904730250423313,0.689083225824737466425063,-0.168232169427796424132637,0.0217804061610898103129585,9.77096052655034341682949,0.00716836777836526561208386,0.0271570764364868662277264,0.00918219307321123216769632,-4.23298059894578404538379,3.75044123041902954796001,1.19838294906875786338674,1141.88393672101869924518,1113.26376334220412900322,1133.9139385519642928557,1122.55876622151845367625,181.094123142114995062002,-610.863500959443967985862,-161.675547965845709086352,-280.168658673216270926787,162.538103884191627912514
2.25749999999999984012788,-0.0500466174402800362264188,0.670901949100399352943214,0.802725615808398518247202,0.0302468501838738593190392,-0.0226308603615569467470969,0.00569730705598589428489964,0.0189547463556540250750881,0.00141983928020264038409592,-0.724423960664798638475759,0.689092287392441993354453,-0.168748591691097044042991,0.0215208051802947830655199,9.7669489818338561804012,0.00753479714988754181032027,0.0269493299932693566867137,0.00912193772427757725018704,-4.23291930925144121999892,3.75042000787494256286436,1.19840319781713611213547,1142.56180697964691717061,1111.81139191835563906352,1133.7297360796596876753,1121.89825770856327835645,301.105516245641069872363,-455.355184606347563658346,10.2321945084888650256971,-192.1574432137147141475,162.536873499266278031428
2.26000000000000023092639,0.0322124221265983057271853,0.842903896922747364328643,0.78174878724917917782733,0.028918107059738046293873,-0.0220902484324657540082359,0.00812277065726990307736877,0.0189793767719460444720614,0.00137770519792762211053194,-0.724409811258556746160764,0.689106551343017792454759,-0.169682480918807943037763,0.0214430747003253874272133,9.76302583404345369899602,0.00790131855002307315061216,0.0267441221070963096317907,0.00905831294543367124272315,-4.23285699987236618824227,3.75039819183567679772295,1.19842412835668143955559,1143.38946430224700634426,1110.98698741917223742348,1133.96509952450674063584,1121.59797900544981530402,356.998763733393843722297,-259.375657199489751292276,145.36564091362308204225,-63.7849825749028838117738,162.535827766377082070903
2.26250000000000017763568,0.158325560881531740564654,1.05738793302095390735929,0.717715020670632086741136,0.0280488253044970242688905,-0.0208140502535548027607248,0.010245933531051295423131,0.0190035583189235753043267,0.00134028304416349323090196,-0.724393188305064827936519,0.689123414853345606090329,-0.171017088344047357706401,0.0215344184500278756910774,9.7591914150955254569908,0.00826538708195225478581047,0.0265405386081426115929549,0.00898897575697006623318686,-4.23279372084297733636049,3.75037509109828004483234,1.19844596511212819756054,1144.34680079831400689727,1110.51451363235810276819,1134.45656428422785211296,1121.57933279568874240795,411.074785796981473140477,-141.703258915416256513709,235.862921141920679701798,48.1553701347830838130903,162.534769138155041900973
2.26500000000000012434498,0.337240965498155076396358,1.32782651577739274628698,0.59483277565020387100958,0.0283058993019236412869155,-0.0177115241476918060248291,0.0123974340911083731608944,0.0190277592445929344400213,0.00130830493800607465700037,-0.724377784640883204403394,0.689138984259750952965362,-0.172762968008499273597778,0.0217923381699575979819627,9.75545084741565915464889,0.00862419234647548299532716,0.0263373212063229868162839,0.00891124885402664809741502,-4.23272960823346444669824,3.75034978718662381780291,1.19846979662227681728837,1145.44483823123186994053,1110.27847112459517120442,1135.14441413021631888114,1121.83875585612372560718,363.125961202657435933361,-41.5812239750730228138309,240.804232487931272999049,128.604690665818452544045,162.533492788819728502858
2.26750000000000007105427,0.482069659364129377010499,1.52890694042479569070281,0.460751364948616071171017,0.0296137750883462974593741,-0.0136540176339013386019872,0.0137946572527262358714983,0.0190522275710591874886557,0.00127719600637626776000466,-0.724366380379775853803892,0.689150341152811152234392,-0.174848894188758430257025,0.0222876437705181451587322,9.75181523124169125082972,0.00897504065032721579098229,0.0261331120240022099499022,0.00882211721247073456242394,-4.23266461551618977665612,3.75032195887027830494276,1.19849563509506573666386,1146.16243060432725542341,1110.30660751248274209502,1135.66058544666748275631,1122.22235624901782102825,207.995878054639319998387,49.2823977416275340601715,167.155721195607753770673,169.74256659137060410103,162.532430192623138509589
2.27000000000000001776357,0.589829601756471033624507,1.66634237822807484974419,0.304606021476456878538386,0.0315683791639719546484599,-0.00887050964475095612971067,0.0146598738660724675630931,0.0190793822806088336774266,0.0012482546994680766318242,-0.724358916831892463150666,0.689157479589019295040941,-0.177306167229286548714384,0.0230387916755286081826881,9.74830039572417383908487,0.00931550996186258570275207,0.0259265218748767206635719,0.00871906638540424772099158,-4.23259890117126591491115,3.75029208772435129759515,1.19852322661746990561937,1146.48481762150504437159,1110.5248831133033036167,1135.98019273619433988642,1122.6874686890805605799,34.6942612963637770917558,115.299187271423491552014,80.5471703614802123638583,189.290449180002212870022,162.531375313846069730062
2.27249999999999996447286,0.648534906862200277721797,1.73230675189778682288022,0.138880832859231667653077,0.0338179988232909720102803,-0.00427448813225434019053006,0.015191031800672915794137,0.0191102592775454840912097,0.00122637641766686154159993,-0.724354472954402361928317,0.689161331625265050071505,-0.180188361092145449271484,0.0239961565493697071005386,9.74492788074095983574807,0.00964356512600030718607158,0.0257163799325442407606168,0.00860038100791529237787447,-4.2325330138531267465396,3.75026127423686572726069,1.1985520070174944251562,1146.33590191080907061405,1110.88310344883984726039,1136.06332129847487522056,1123.16880849491781191318,-205.68649870397604217942,174.826203574779441396458,-33.6446095415347272705731,193.504265136975419636656,162.530331540985116589582
2.27499999999999991118216,0.636900939725271952873698,1.70071147589441196146254,-0.0282259339475718108725122,0.0362617071979234179002205,-0.000133912723048320355528906,0.0152123480271131438640309,0.0191424807333211294269049,0.00120681378703405028408879,-0.724349648793697897808386,0.689165540636478279878929,-0.183365326926103883176111,0.0252015483785561766882921,9.7417251020199202571348,0.00995796686978953765612133,0.0255019805651168114668526,0.008464775890891240023306,-4.23246766771859395106503,3.75022971281697925505227,1.19858072535806292613358,1145.45638512798518604541,1111.39901413117718220747,1135.81196968848666983831,1123.65499001476541707234,-586.192750501971886478714,260.254498396449093888805,-189.116596753369265115907,224.201109078290073739481,162.529306696542477084222
2.27749999999999985789145,0.543816338362166140640852,1.54053231371975996033541,-0.218425781562112675260323,0.0391101003754690257352422,0.00463915557230639829383589,0.0145153898812700778153673,0.0191739752583357236925821,0.00118563555648542543613511,-0.724341929419854535510126,0.689172811794675044261282,-0.186717694688374846734291,0.0266894902403281286673575,9.73872239536926720404608,0.0102578413518023062178663,0.0252831526726284179507065,0.00831196346377827133267147,-4.23240342583241702101304,3.75019758731172592192138,1.19860852631044756400058,1143.40493815829927370942,1112.18437594082206487656,1135.1177383147080490744,1124.28981404030923840764,-923.169041233342341001844,311.855809483792540959257,-310.826992429226208969339,254.360964648168305757281,162.528105748176756151224
2.28000000000000024868996,0.414974579772626084306353,1.29921507559648818919129,-0.362353942565148468002434,0.0411736619901358416595549,0.00869853765148965486775356,0.013673264636137752794931,0.0192026071755749053182605,0.00116200466042347969400361,-0.724331937863130548294066,0.689182552049866448129478,-0.190163478543851960367306,0.0284489892628475571356717,9.73595174017844477987182,0.01054248573249901184401,0.0250602745036409765844176,0.00814276221861130744539281,-4.23234017572194254341866,3.75016492842996074230655,1.19863447618590357457435,1140.84053992181816283846,1112.95829317859625007259,1134.25783472634043391736,1124.92679483800634443469,-1178.70831149785999514279,327.856283961887754685449,-378.711620638134149885445,293.511485672232254273695,162.527133990447225642129
2.28250000000000019539925,0.265692993873315241870614,0.944944345339054470045426,-0.487739005361167710095316,0.0419330846070840312922456,0.0125848091908864079951913,0.0131339326172363532463372,0.0192314499459307168549582,0.00113893579043472395820324,-0.724321482527029103515304,0.689192773478638165407517,-0.193743500427732473490039,0.0304828325218660378670421,9.73344269254074845321156,0.010811422282531535712935,0.0248342118421847231346522,0.00795889359381067064413973,-4.23227770855787532866543,3.75013239709972268087768,1.19865793527510855476237,1137.51139660080957582977,1113.82365736063161421043,1133.22418021151725042728,1125.75737146867049887078,-1571.3346737799718084716,392.172918383593412272603,-456.092223207143149465992,420.091784460382655197463,162.526198178744152755826
2.28500000000000014210855,0.109553207299369570471015,0.407665550723966929602682,-0.609299922838086871479391,0.0407942380404770210677867,0.0158388649264906145042175,0.0123413083200578782561152,0.0192630523424383789943271,0.0011179869447137244162227,-0.724312448706466160963657,0.68920142625529912105975,-0.197470144250150192455351,0.0328046395191690376424987,9.73122379344653509747332,0.0110645572062428518278487,0.0246062225285341162894781,0.00776257849345246553340871,-4.23221578454847691119767,3.75010045065817099185779,1.19867897642517484690927,1132.98386655291847091576,1114.91915777051417535404,1131.97737361030476677115,1127.02725376030821280438,-1675.9556628606690082961,403.122429400409089339519,-429.010289504376544300612,507.152613429900043229281,162.525123338194106281662
2.28750000000000008881784,0.0222796586787867116619122,-0.103762289550346678557169,-0.672889301947683815541268,0.0391234358382031924272759,0.0166981444410460831695442,0.010758960854938279597115,0.0192961187913371079449831,0.00108938192832562659971563,-0.724304931595969314628292,0.689208458675957369443665,-0.201148919658498376294986,0.035532959986747353342551,9.72932337858508944350433,0.0113023374681984825618208,0.02437792970272378845209,0.00755579030618699215571255,-4.23215453095647120562717,3.75006828422328863936741,1.19869767004518568143112,1129.13161828650640927663,1115.83926950763361674035,1131.07912876399541346473,1128.29313453581994508568,-1461.40807044833695726993,360.044363276582259913994,-303.612933078017817933869,529.930533661956701507734,162.524272439391353373139
2.29000000000000003552714,-0.0195199640772609830929873,-0.633149564117391649986644,-0.676051554040545843449195,0.0380069335430358867800038,0.0156142887559928382479324,0.00804284696362627359034203,0.0193284779138606539750089,0.00104975967965097822728882,-0.724297920654200955148383,0.689214991924860798100383,-0.204659679022931056957546,0.0386799462668972193757355,9.72776691217086408869363,0.0115253474539711939922393,0.0241511508086539837536488,0.00734080820314664175135766,-4.23209450517920071632716,3.75003515075838977921308,1.19871458009204356898181,1125.67682620067694188037,1116.7193795868970482843,1130.45930894491471008223,1129.67690642861794003693,-1331.44586906703921158623,369.335542630559473309404,-196.07907009690697464066,599.67390383000201836694,162.523473452188454757561
2.29249999999999998223643,-0.0466464260533714716872034,-1.23030616943241177807522,-0.597562684997923088126015,0.0379956039393700290007772,0.0124163335801519246481828,0.00439169858284979737483855,0.0193591382555182954516848,0.00100306258137258861966312,-0.724289899529560243784942,0.689222637010504346477546,-0.207998413515554314567879,0.0421658184951731185297064,9.72657521035647221196996,0.0117342442298891957985774,0.0239278761065992648382483,0.0071200019437768309257808,-4.23203580935196743695315,3.75000109370502121564073,1.19873070209451504375409,1122.47438894117135532724,1117.68594722078637460072,1130.09873341351089948148,1131.29150405496989151288,-970.702213311117475313949,335.729711256688347020827,-71.7465987275788279475819,554.537602112907734408509,162.522580260220678383121
2.29499999999999992894573,-0.0789543888643612357114421,-1.65736572691619055142098,-0.472952436697767597539865,0.0390661463874504011339894,0.00841439870638222182919197,0.0019135202467142732943306,0.0193893751613961468072134,0.000956559268995580964760339,-0.724280087884510703766239,0.689232166178484151330963,-0.211240190113859416243258,0.0458889059859647063799315,9.72576346833893445875674,0.0119297750510396413647918,0.023710262422312354535503,0.00689551543671828442993998,-4.23197890107738405873761,3.74996652632085636369652,1.19874742833692282673042,1120.82331513412145795883,1118.39802814318045420805,1130.10057595127682361635,1132.44959443918241959182,-431.338650720235932567448,263.508352772356545301591,51.0341152561988522506908,392.25174171538964174033,162.521893909047463466777
2.29749999999999987565502,-0.14495261403921019804919,-1.97376812789700117889424,-0.32056806389372144439065,0.0403936048677024858721829,0.0031998079408976278642518,0.000985687234786419754634101,0.0194178856693049788073591,0.000913107141201864136274835,-0.724270899572144744027469,0.689241074159127053988527,-0.214368295644968009927567,0.0497690199681174172408049,9.7253437476142092776854,0.0121127927845563008318885,0.0235006030904208323972782,0.00666901046730335698986547,-4.23192348525947092952038,3.74993168023083978113164,1.1987644286720433584037,1120.31769568757022170757,1119.00348898464812918974,1130.35390398979188830708,1133.25276276354679794167,-25.8545681193919172358164,223.647784650696308972329,133.395236111973730430691,244.9287143218787718979,162.521270743374259382108
2.30000000000000026645353,-0.239186307346395038431197,-2.17935803968504915317794,-0.178567188653158931410658,0.0411789982637122964348464,-0.00297171605263195359736272,0.00153871521188137893969283,0.0194439440032798810387149,0.00086776715275895476529866,-0.724263609412501563333819,0.689248046551059978526155,-0.217273418436077503379522,0.0538381689954040842938099,9.72532324232355804838335,0.0122845497211906459072983,0.0233010836270753779464471,0.00644158049573965215545135,-4.2318689572567746992604,3.74989646952740152130445,1.1987805786806366992181,1120.69404229352448965074,1119.51626706643401121255,1130.76755213183673731692,1133.67423801079189615848,323.066380941942043136805,181.151616644262105637608,197.36892733556973666964,66.7261486450980072504535,162.520701516757952731496
2.30250000000000021316282,-0.346569976119090239485843,-2.2441734997585180977353,-0.0806774459424311196631407,0.0408293730748887015447046,-0.00962443378759042338088658,0.00304190062639364457858226,0.0194688559196554943075963,0.000817370252669440806002343,-0.724259555234649132771096,0.689251645865476603169952,-0.219903179060268932909494,0.0581253181156124454354028,9.72570309217977957416679,0.0124464889470151333222825,0.0231136364640346717025388,0.00621427021032280608309195,-4.23181511513992081319202,3.74986089387974264042214,1.19879587240641116707707,1121.93302759228004106262,1119.9092470678695008246,1131.34074862646980363934,1133.58639350677231050213,678.152933251854733498476,143.006181628564576158169,287.601570614794354696642,-152.687846179381807587561,162.520198346140716694208
2.30500000000000015987212,-0.44927918663995292103408,-2.17531365208916671605266,-0.0253874851115075648999575,0.0390771568672874450300903,-0.0169627754060352291254343,0.00443312556883926865702872,0.0194945765335513901406195,0.000765187310819932255644138,-0.724258542714341868595795,0.689252020540543908211362,-0.222305374168891678454685,0.0625729019295560573432624,9.72647897314244502808833,0.0126003191646494420996572,0.0229397780759635037950428,0.00598831742194403521262203,-4.23176200702722660196287,3.74982539531521208431286,1.19881079559947578694334,1124.08480695978369112709,1120.23129797457681888773,1132.20555998491067839495,1132.91079877989500346303,850.430119522361451345205,93.0660281427682889443531,348.712573402515943143953,-329.399095798596817985526,162.519671133317388012074
2.30750000000000010658141,-0.483930842857812237856052,-2.02286299353356158192696,-0.017673803714771826878227,0.0368270424924536030064637,-0.0220119576514415694890037,0.00456978131563671920861713,0.0195198441125764496351103,0.000717717889910982021969832,-0.724260635814496511741822,0.689249137987265170224305,-0.224530938204460711604682,0.067030614477655042771076,9.7276434553742525679354,0.0127479324157516952370495,0.0227806298370857897295227,0.00576504260105898877486474,-4.23170988439721451612741,3.749790230786673284058,1.19882604279349402887078,1126.18517818989175793831,1120.37457720858333232172,1133.08431149348234612262,1131.93939802777936165512,852.645786453167602303438,34.8776542423373214774074,386.118517895337447498605,-449.434480494265301331325,162.519295002480419043422
2.31000000000000005329071,-0.444769735752840178477641,-1.81106165479260083905899,-0.0216085474437204688724634,0.0345099663797758457461917,-0.025837588675210534927551,0.00347331114221782885284617,0.0195453943585337172605954,0.000681275765695375009473045,-0.724263696916020993654683,0.689245224221544217080293,-0.226661149044402460139835,0.0713748322708704641126332,9.72918313621907238086806,0.0128914598632048054555055,0.0226368408329078521501465,0.00554569318492640489504097,-4.23165846072279627776425,3.74975601714312478662805,1.19884207121412411645167,1128.34803589204943818913,1120.40568624578850176476,1134.13615257438732442097,1130.66362637742372498906,921.107961810750225595257,-3.86253419319481539062622,497.810340970919867231714,-601.992649787247614767693,162.51898283385321519745
2.3125,-0.312824409738160724714362,-1.52646664636454931773812,-0.0161496745757317775038509,0.0322605061002437798478581,-0.0293837284209505812671015,0.00182435485014074494705683,0.0195711903310255667942652,0.000651355539849302902187522,-0.724262932374969858884128,0.689245322829368234351932,-0.228625443898728630820472,0.0756225747443876883391312,9.73108026144952908964569,0.0130332581536069871952499,0.0225085542496401107281923,0.00533110229159715343083548,-4.23160730161327336418253,3.7497229420005098177171,1.19885830952019922790441,1130.79071799894541072717,1120.35526453761735865555,1135.57336319833689231018,1128.92943477884318781435,847.009900036728026861965,-26.0688845301507257090634,545.677103497530652020941,-651.935445186441256737453,162.518679102498879274208
2.31499999999999994670929,-0.147574133071809832085108,-1.27938996644386904222301,-0.00274272644093842771564895,0.0311259230004921338963442,-0.0319043645424386956843676,0.00125675981332184919306294,0.0195908277720440414382264,0.000622154051216944185311031,-0.724258167854795686935176,0.689249801789845184529781,-0.230251379545488160660582,0.0797216792862023848620368,9.73331599966755334207846,0.0131751855242149239211269,0.0223955372531866835073,0.00512236425956098719719511,-4.23155579156502703597198,3.7496904774500290358219,1.1988736558910992879845,1132.58308539223298794241,1120.27534182313775090734,1136.86453809187491970079,1127.40394915149158805434,648.723651595369346978259,-33.1574839186949006375471,517.224456692030912563496,-613.999325741419283986033,162.518482042457407032998
2.31749999999999989341859,0.0439756701918737613610233,-1.02470706458468141519802,0.0044503148351546575889337,0.0311872444050710385943237,-0.0344333844039162728645209,0.0018094724668428542081744,0.0196000221671863220085363,0.000588179754383859722602357,-0.724252743145102351185471,0.689255277237415198143822,-0.231405209536492739719193,0.0836431416282412409923808,9.73586543652062630371802,0.013318411836418802760007,0.0222972577499843047088568,0.00492083460611558373698493,-4.23150330323357959372288,3.74965786959962477098429,1.1988875413812334347341,1134.03433625692218811309,1120.18947711802388766955,1138.15948548179699173488,1125.85943815013615676435,549.934410003527659682732,-35.5475569546805090226371,547.579916174811728524219,-680.148962468880199594423,162.518338663802495602795
2.31999999999999984012788,0.264115457976918488469664,-0.702619274764788026566009,-0.0121262857256414606499373,0.0324212776801863153397498,-0.0376651966148217193230963,0.00272482188135508450119171,0.019599385244474305800555,0.000551887612493688292127081,-0.724248409382278413026768,0.68925988756418177239027,-0.232131730188497753530896,0.0873128445392536700619956,9.73869591963247671628778,0.0134635828241194549503845,0.0222127959802172134096132,0.00472840396501328971007316,-4.23144967483034939448316,3.74962480573428136310099,1.19889989170706745547079,1135.3327574422505676921,1120.09760403836435216363,1139.60243767274891979469,1124.00320433914725981595,401.502999216991327102733,-31.69856678564215002325,497.105963348224690889765,-683.465508814423856165376,162.518222310923249551706
2.32250000000000023092639,0.416110774434297114865444,-0.41807187518839833417772,-0.050850895928611944407649,0.0338470199330369800327922,-0.0401486487775046044235161,0.00307448859493477527626837,0.0195916335501070543179125,0.000515316487545825364230412,-0.724245665414990913433257,0.689263030368345464005131,-0.232501938422154302843481,0.090692989089777770184142,9.74176899899821968631386,0.0136108750775024434087612,0.0221410769923093275757253,0.00454696224635347742704106,-4.23139532205054180735715,3.74959128159445365113811,1.19891072625539463203381,1136.04185125300728032016,1120.03098428409566622577,1140.64501529853828287742,1122.44211060606380669924,211.753774761640926271866,-25.5722302759278150574573,374.354749726782927155,-631.143110001133322839451,162.518166372906222250094
2.32500000000000017763568,0.518491105135290952787841,-0.128562169745537413501069,-0.110060779538139613675796,0.0351877050196032908901955,-0.0414976003371430382515861,0.00297380334291891734385671,0.0195789060858115246399613,0.000471254441183002617879461,-0.724243367844791041676444,0.689265849975642441727075,-0.232455476867856003497792,0.0938718530237587223119533,9.74504239297797170138438,0.0137601227522714895240563,0.0220810447273524917966014,0.00437781142816436215359222,-4.23134115510312991403907,3.74955655485411032401544,1.19891967179308989166486,1136.39152631605884380406,1119.96974288698470445524,1141.47421142138296090707,1120.84748878914138003893,87.7617599197965887469763,-23.368427953983470501953,293.415137342396405983891,-642.670890470267409000371,162.518145682873466739693
2.32750000000000012434498,0.572618490494373966193109,0.144410202087237371504358,-0.178743754549690908595139,0.0363575136789983863194742,-0.0415656156589826811242894,0.00251935822465892403018706,0.0195647108112610712549184,0.000417220728237168911583382,-0.724239753252207352218761,0.689270098357139593403531,-0.232015482325779759387174,0.0968931284711950779886536,9.74846950878742291024537,0.0139107187347872474081356,0.0220316893799498321471209,0.00422216058058403915370649,-4.23128799017731527243313,3.74951999613616360207402,1.19892690558038372827809,1136.48066005260625388473,1119.91414214432575136016,1142.11209098525023364346,1119.22875615371253843477,-16.3065356008249935371168,-17.2278273180840209022335,206.943096950003422307418,-644.210058666171903496434,162.518148077911632753967
2.33000000000000007105427,0.560599601260022728510535,0.366544819315874237375397,-0.24989325309146112608083,0.0373871918271656694665595,-0.040215019448126873569116,0.00178793725260008610697393,0.019554417481832040565104,0.000358486776579659447653642,-0.724233490273806790327171,0.689277018192649415517792,-0.231336122671536109640655,0.0997202043031306661902136,9.7520001125078632497889,0.0140617080231904816728372,0.0219920263081284962647377,0.00408109292697331465377131,-4.23123598789276034182194,3.74948194923924793542369,1.19893374221579152028028,1136.3099936380547205772,1119.88360375039428618038,1142.50892690613295599178,1117.62643849581058930198,-120.359503374950534748677,1.82168228275262911175503,113.682430873225413847649,-678.5606875413267289332,162.518170197728125003778
2.33250000000000001776357,0.454705625883979724921602,0.541745995098845467552451,-0.329948466967350695355776,0.0387281341625488190194559,-0.0375600760798379118554635,0.000847826233891609297096958,0.0195503873012782547480271,0.000302552897139348906871414,-0.724225733220417056124063,0.689285326597762648681567,-0.230560002078855907914345,0.102248755032529364816796,9.75558439734007265542459,0.0142119315004011204095491,0.021961057451333695217377,0.00395524739091572367921668,-4.23118512794258094800171,3.74944289822783893839642,1.19894087037393437533694,1135.87886253573151407181,1119.92325055573951431143,1142.68050313961634856241,1115.83595271600597698125,-183.915801662901060353761,35.8127186954796670192991,6.53253520954436073253646,-612.440537993019802343042,162.51820911679311620901
2.33499999999999996447286,0.276104000731226650877659,0.600667950103023762231658,-0.388399888213926125501985,0.0403059376917852610344717,-0.0350372129609872115518776,3.68650674184526228743808e-05,0.01955337310783772722389,0.000247758939118108956721487,-0.72421992353144926113373,0.689291386699739883070492,-0.229684575483314085131425,0.104487212992979611181354,9.75917272371535027275513,0.0143602488462444624617298,0.0219376945920566092385062,0.00384426326633637450297387,-4.23113466598192911050091,3.74940266635996621857885,1.19894890017914024227252,1135.39041462974023488641,1120.06266734387168071407,1142.54158958218067709822,1114.5642358058455556602,-204.76280717662558572556,86.4892542656453144900297,-118.899099278089835252104,-435.486381946848439383757,162.518244828355477693549
2.33749999999999991118216,-0.00849649684379780167908791,0.575146070422224431339941,-0.434182996534977938551947,0.0421683133681678423698713,-0.0329571967215850636367946,-0.000893880130489171226271239,0.0195614945263398835872959,0.000186172542348123976800947,-0.724217964565123994979956,0.689293254444130143454572,-0.228585285119520531527115,0.106503784245390448193191,9.76271715371467863064936,0.0145058913858272693631069,0.0219204868892431473104132,0.00374707517837781760999816,-4.23108398757692594216451,3.7493605704240309250963,1.19895780190443068669026,1134.8550484998484080279,1120.35569682706773164682,1142.08600764322591203381,1113.65852080627178111172,-220.521219204424738791204,168.995065711127580243556,-270.10099895019840232635,-289.17981038139873817272,162.518276340587476624933
2.33999999999999985789145,-0.463287902168271537028943,0.472937372202862305048399,-0.468825785971968000964694,0.043332991121108027643416,-0.0314047802623479282990715,-0.00225658796887919215617968,0.0195729051629166504733259,0.000118062344097030690287346,-0.724218484393582273561663,0.689292420335305466849718,-0.22724786934175747465936,0.108258481298490721878025,9.76617112826642852496661,0.0146486341803183546528278,0.0219074916395254511158885,0.00366281379100441128321419,-4.23103282693003990289071,3.74931697577950151512027,1.19896754321323539826949,1134.28780853371813464037,1120.90764267242730056751,1141.19108458742971379252,1113.11833675393859266478,-174.334510629739327214338,234.529047642929612038643,-375.197113525675490564026,-98.9519870671689716346009,162.51830147701909368152
2.34250000000000024868996,-0.908283032777030818749608,0.352020711676140518608946,-0.476675861477518558739774,0.0425089829982356337545468,-0.0308816906640839577979918,-0.00356357597258872811976649,0.0195856572307946640021381,4.96159012622165144666339e-05,-0.724220320110548598790956,0.689290158699618404902765,-0.225737482230682406925126,0.109632937492646492794179,9.76949036779675950015189,0.0147887770136720681640741,0.0218965006421793541291354,0.00359086747628198973275593,-4.23098127567128834414234,3.74927253165789675648512,1.19897817877221224414086,1133.98337594669965255889,1121.52834206528245886147,1140.21002207559740782017,1113.16376087093590285804,-64.8395124241644111862115,274.891780149418650580628,-420.309029879916863592371,116.143478314408071128128,162.518306810255893424255
2.34500000000000019539925,-1.36900017026158415944792,0.218661310323759489060436,-0.459776986743910764943166,0.0395642211572443530664955,-0.0309272334601972224976674,-0.00486609937623739153417235,0.0195986431163754568074431,-1.07700500550030707079714e-05,-0.724222904667642053411214,0.68928709599018633813472,-0.224162903353030823483394,0.110495626065722024611304,9.77263281796071936469161,0.0149272444947305092666223,0.02188515907134350874097,0.00353085378367497303500611,-4.23092969639348126520417,3.7492287318274368779214,1.19898959381690839443024,1133.96361097159729069972,1122.28210157317448647518,1139.08953943802998765022,1113.69905414551067224238,70.1318110623575563522536,348.894016263246328435343,-497.319053013062898571661,327.923733313907803221809,162.518290694783900107723
2.34750000000000014210855,-1.87285475597330819397257,0.0603034032067965783396879,-0.41132294307769334817948,0.0340314641969565387369379,-0.031200822876095577612654,-0.00633879102750606500393804,0.0196104413279823211468944,-6.23318835342825440255093e-05,-0.724225314840624245782408,0.689284240525734004378933,-0.222527814672798418538235,0.110825987444515161595149,9.77555941232980885047255,0.0150656563115287647769414,0.0218710063383987449170398,0.00348225743225878160702624,-4.23087789726493124220497,3.74918694208807767864755,1.19900061630212584340427,1134.33403500201143287995,1123.27281214659865327121,1137.72342681053214619169,1114.80337953750540691544,199.302636819633931963835,365.385084025373146232596,-485.566474503149379415845,461.048687747425731231488,162.518241465751600571821
2.35000000000000008881784,-2.20946572479322478343988,-0.0675820246901204652045791,-0.35040323516479138232782,0.0283516177187257724379155,-0.0311964812200625080107486,-0.00743293931357794351172386,0.0196139090602778475014301,-0.000107920329067859858311954,-0.72422824418004427826645,0.689281063013091555014,-0.220709310427455562830801,0.11058413694966295892641,9.77823815575436761093897,0.0152059689643798106456485,0.0218515426955362343508504,0.00344469919903584451473244,-4.23082507334461066506037,3.74914685603328257101907,1.1990093838702438056032,1134.96012415569543918537,1124.1090269933013132686,1136.66170706551429248066,1116.00429758424775172898,299.757798303478011803236,321.762090198406042418355,-390.030943261680590694596,511.620604889514652313665,162.518172469341351416006
2.35250000000000003552714,-2.42256311538175772568593,-0.192742310101514408016143,-0.27464583853032153992757,0.0219972088942358492968943,-0.0307796343581916570508739,-0.00820058891217080761226743,0.019605583461598165284645,-0.000152342686231227061313329,-0.724233302037554094177096,0.689275967608366624261862,-0.218613428763478584437863,0.109813901126425583765212,9.78063862113742743531475,0.0153501401724334407550288,0.021824331969380040413542,0.00341775497276261986528967,-4.23077079245492004844209,3.74910763027311588757584,1.19901576884829297320323,1135.83282399352879110666,1124.88162259759064909304,1135.77327209422378473391,1117.36148256195292560733,369.334875350667687143869,288.838208202020496173645,-315.381412414678720779193,548.220858692468823392119,162.51807155703298235494
2.35499999999999998223643,-2.51591857159272125343819,-0.312651350125060512041841,-0.192831646035510256842471,0.0151124261118320488139766,-0.0305738642702382129590077,-0.00864615260093427352716677,0.0195856225759971046274099,-0.000198482022256694522113069,-0.72424122451773398356778,0.68926817580809607299841,-0.21622620898608380102246,0.108586847006345271759997,9.78273285429483507869008,0.0154999777498233074629619,0.0217870736014950487635655,0.00340084465491293473637935,-4.23071534391165293698123,3.74906823986612769417093,1.19902075559192544673692,1136.80679853244873811491,1125.55321803431138505402,1135.08480000344093241438,1118.74540187771003729722,383.4454611213996031438,235.986097955224551014908,-215.537934743911193891108,534.523448365291642403463,162.517942604811963747125
2.35749999999999992894573,-2.45784708454241229702575,-0.411257341919743391045472,-0.110584324476079964849617,0.00789278425303785793887279,-0.0311986638627916174071331,-0.00885112784139745201184013,0.019555352196689745891689,-0.000245413926536810047054904,-0.724250403700847811272467,0.689259341244451317898267,-0.213603773087818943343663,0.10694188158058284821017,9.78449780012345726731837,0.0156571121442614438756813,0.0217377066692809005343801,0.00339307872313412148615464,-4.2306591503188899494603,3.74902882446878438216231,1.1990252633626274914036,1137.75005129913574819511,1126.0615530873667466949,1134.69558242050425178604,1120.03409980377932697593,368.032438973030934903363,179.93453094418711657454,-88.7386133725631935931233,512.49656925589260936249,162.517778639111440952547
2.35999999999999987565502,-2.22659386970342421108171,-0.476127774782786783447364,-0.0176534356788051530195993,-0.000304286381107465213682883,-0.0330143393685234723400335,-0.00908636231208194249109322,0.0195170803975865565782488,-0.000293500647452192586252251,-0.724259707341628811150258,0.689250591808758916734234,-0.210801459381219108424332,0.104953244914687299216283,9.78591584031838834789596,0.0158227854977130398539398,0.0216747170883630109472495,0.00339283269836190186710678,-4.23060238033734137275133,3.74898947839810237070424,1.19902944984675707829069,1138.64696072731385356747,1126.45289068903230145224,1134.64110693657812589663,1121.30788472398944577435,265.25101883374219369216,105.578670189326814465858,55.7077409374377268136413,401.188140169934058576473,162.517540744749823033999
2.36250000000000026645353,-1.9267738686142272808155,-0.465946202784798313434322,0.0510779469588182669093079,-0.00620106289238329510399295,-0.0352650260387877487189279,-0.0091991230553191520591394,0.0194762382870514449972887,-0.000339350550166089425137284,-0.724266628761608077802236,0.689244415001436627754572,-0.20797107389991498216375,0.1026870142227905013943,9.78697446245152846699966,0.0159978603987247156026363,0.0215971576348880436868605,0.0033979468220074427950439,-4.23054589191238150647223,3.748950152306584460149,1.19903456051077506039348,1139.07630639330454869196,1126.58944643831341636542,1134.97412112519145921397,1122.04004050462913255615,87.957642516988443048831,16.6513123455831788533033,211.823271662510052237849,209.513373025615180722525,162.51730838534399481432
2.36500000000000021316282,-1.5663100220657519834333,-0.378754550569782078017766,0.104518185011002517903478,-0.0105077217221831390597808,-0.0377089917442647651335541,-0.00898491029663425581908154,0.0194372941104720420302243,-0.000377222426888077703825697,-0.724268817949209053885795,0.689243162472664927520327,-0.205283727196915122270582,0.100164216574764264322539,9.78766922209485557004882,0.0161826745217629949791238,0.0215047398460403611786251,0.00340574681219396949161116,-4.23049061373165358190818,3.74891124012596943515518,1.19904211137877680926067,1139.0867489398988254834,1126.5361472507602229598,1135.70022329489074763842,1122.35545158911759244802,-94.6211275598236341011216,-60.8651336200650163732462,394.224081933825118539971,42.7958269233395185437985,162.517041578759176445601
2.36750000000000015987212,-1.13337575771506648969478,-0.199910413133790543227519,0.142591605194753667795737,-0.0132256632178262348298325,-0.0396969313109948734874521,-0.00808448954802765303029322,0.019396728827096327424373,-0.000410401714067679785312437,-0.724267404682669257987015,0.689245742356920043647506,-0.20267664244178473786917,0.0974255070098106190634724,9.78800734405250238978624,0.0163768465198362404844357,0.021397933453408814891139,0.00341270690771473990399176,-4.23043660791209230609411,3.74887167662944342794162,1.19905128790109194447666,1138.60320075550544061116,1126.28512077021309778502,1136.94524153486054274254,1122.25401963924582560139,-250.449473126087355012714,-115.745079908495171139293,495.590203602443239105924,-103.442098274629117327095,162.516683669981091497903
2.37000000000000010658141,-0.817639097228937239414392,-0.0167194592465473822195943,0.149871608545646461951861,-0.0137823673912699454918718,-0.0398928215868812885425143,-0.00699091283602021763138312,0.019352084576921824848883,-0.000444418886267333474327651,-0.724265883365343254851609,0.689248549073621208371776,-0.200071799753147289147037,0.0945561241905197025214846,9.78800235363799941978868,0.0165792337942814553553017,0.0212778058018598219269801,0.00341504287503875810991238,-4.2303839024010310154722,3.74882984015771469898937,1.19906184725495212894941,1137.83450157426841542474,1125.95742185121775946754,1138.17817431290291096957,1121.8382410977444578748,-363.118674661435306916246,-147.61147251206554642522,497.56966661362793047374,-204.945425647160675453051,162.516356085119781482717
2.37250000000000005329071,-0.579660326073579312833317,0.161614649648847641394411,0.138516069548248549336833,-0.0137103016451427424382548,-0.0387225926934278985580562,-0.00613771164417359783166406,0.0193024128560460965509105,-0.000482496781965178003510203,-0.724268072472648571924481,0.689247600493486545225608,-0.197442431465554291136755,0.0916266431851435469990719,9.78767359778080958676583,0.0167881881396357290903154,0.0211457721143441211564262,0.00340921292440671524354157,-4.2303325210047439952632,3.74878481184687695204616,1.19907379770977828847833,1136.7876073821983027301,1125.54706340765278582694,1139.43308986792862924631,1121.22929251101004410884,-497.626817693400596454012,-197.169463067261517608131,516.635654504545641430013,-268.079036137811556272936,162.516000868992762207199
2.375,-0.383309420463190608785453,0.334359454849179726920738,0.12410261547520105851472,-0.0139308758153234464594039,-0.0367015945502917398379772,-0.00598646672559053315276767,0.019248736485663331396978,-0.000518655766836397251647039,-0.724273806400836273056143,0.689243051551416630040592,-0.194910997299456351106173,0.0886011713179038207233162,9.78704551167267666755833,0.0170020995457886223145572,0.0210032306035336652216827,0.00339253540411342275479045,-4.23028207636078068532015,3.74873729317315573794644,1.19908732339905022001858,1135.34636748580146559107,1124.97157453588147291157,1140.7613525854255840386,1120.49784591705542879936,-541.029159672427908844838,-228.288360310494084615129,436.712273389967094772146,-235.990136122114137151584,162.515545509552197245284
2.37749999999999994670929,-0.27487428374339634151724,0.432474533976967723258866,0.128824036514040646261847,-0.0148030227760155095456662,-0.0350620024774374663967258,-0.00656081319871917173491838,0.0191932408045217307857033,-0.000541871770291002400124492,-0.724281605754443558176092,0.689236407877880097316847,-0.19268195027947054853712,0.0853842470113607421300372,9.78614653365886866254186,0.0172195937443271052114113,0.0208516032842845193406855,0.00336322571129920536853186,-4.2302324390438039714013,3.74868842013546643698874,1.19910272782450277873068,1134.08246158383622059773,1124.40562160610033970443,1141.61665123487841810856,1120.0493418303994985763,-500.811599831842386265635,-250.985674066310707530647,280.513867743462981252378,-114.783833682534066156222,162.515143455218776580296
2.37999999999999989341859,-0.193718747337514818340765,0.484674302662429334898064,0.162760690116999479082338,-0.0162475700471886135012323,-0.0337249755832948749922906,-0.00723137798712833110292841,0.0191369492123943454875423,-0.000553287911378248981920935,-0.724287989006476617959152,0.689231292064843903411031,-0.190776085553953478335387,0.0820332335762413156210471,9.78500775907790476537684,0.0174398962643401295169454,0.0206922904069688703976304,0.00331975147555912692559632,-4.23018398072358703387863,3.74863884856851914406661,1.19911896290844355306149,1132.84230948664230709255,1123.71664616554994609032,1142.16392192414286910207,1119.92392674864277068991,-481.043816667953478827258,-298.908550154289514466655,171.45091144066466881668,17.8061310118668352231452,162.514719446626600074524
2.38249999999999984012788,-0.118349908904410286436537,0.50651528184788252584525,0.218045833310849812569643,-0.0177405871958682508082727,-0.0327430950552878019532699,-0.00758696198930010334837704,0.0190841887524419821786648,-0.000553423750787410042434322,-0.724289700357248822371048,0.689230996729618849983012,-0.189267070434183948268725,0.0786365492282330158513304,9.78365943079400324222661,0.0176626797416839301235747,0.0205266560566515730845705,0.00326172070152987072372275,-4.23013718050678821924748,3.74858960009960107129245,1.19913543093561747454601,1131.67724250049650436267,1122.91107885532892396441,1142.47390579208172312065,1120.13837248545883085171,-435.097293343794888187404,-346.74255800289233775402,79.1201712508101309140329,173.263908233900224331592,162.514277980146545132811
2.38500000000000023092639,-0.0447741868834492309781048,0.501317336655599188333099,0.281951186915987084269375,-0.0187458693913943111319931,-0.0321308181067445769452107,-0.00714303463276450521790562,0.0190370933480290514816513,-0.000540140741448604162246172,-0.724288101454497956765977,0.68923402700023927991424,-0.188231817357621011854718,0.0752100658590677817461057,9.78213228774856702329998,0.0178877793825312561559748,0.0203560747947593226325758,0.00319010982894229327966329,-4.23009153133223758658232,3.74854130410216823676706,1.19915080077044566841948,1130.66682301992318571138,1121.98293337553536730411,1142.55952278039694647305,1120.79024628981233036029,-391.407567864799545986898,-421.149062098146487187478,3.8989653593941606679607,382.923015768548395953985,162.513815924673565405101
2.38750000000000017763568,0.0295797944899947526375961,0.467953746955756200165411,0.338026173798944562509661,-0.0189688226166589042620547,-0.0313810108033544254979574,-0.00548469810659691324461473,0.0189965651347865603637555,-0.000511649506031838373527887,-0.72428689398159662449217,0.68923646681338712749465,-0.18772279436311647971003,0.0717533197160223623622954,9.78045503937490323664861,0.0181151804764714020878902,0.0201817008348308124521253,0.00310705177909858035190105,-4.23004615970067554542311,3.74849448778503635537618,1.19916414883015720604931,1129.72020466117237447179,1120.80533354483804941992,1142.49340061887869524071,1122.05298756430170215026,-289.710432365661120002187,-425.007931362788383466977,-42.1163936493949080386301,533.900044574932053365046,162.513237693718764376172
2.39000000000000012434498,0.0642147946764171778655239,0.412564409997237035998552,0.348751083997644262257865,-0.0182700746791098350696458,-0.0305104455636346812152926,-0.00362551491501434666395176,0.0189611952271157638283405,-0.000473955855181233632819615,-0.724289024008318849112698,0.689235252825519895125694,-0.187651456198564076105484,0.0683412529004389368569861,9.77865314439511834621044,0.0183449889873776132709349,0.0200042779216618622772916,0.00301522592527185637895082,-4.23000014390120782081794,3.74844902063087426213883,1.19917482476310754968551,1129.21827085809491109103,1119.85789371872147057729,1142.34894081214997640927,1123.4597465126869337837,-126.848439772632417543718,-348.770494168873653961782,-70.3406512629514111267781,622.180411371632203554327,162.512735682936721559599
2.39250000000000007105427,0.0552472490150503203754084,0.316498754000961612931064,0.313821559799860261286142,-0.0170128569617130111224501,-0.0294219883955763837624087,-0.00198556611834754120904378,0.0189272769145854141692453,-0.00043688620518188498245693,-0.724293836010129310487571,0.689231168144311734380381,-0.187841391534482288205865,0.0650687841176089132311233,9.77674810348418077410315,0.018577286329430883760061,0.0198240341469259305495765,0.00291773043095302575880567,-4.22995313876589396073769,3.74840385809779030878985,1.19918194518250942337545,1129.08596246230922588438,1119.06148107399371838255,1142.14169736256394571683,1125.16388962115979666123,39.6438954825052221053738,-291.902347785987160477816,-105.162276197327145155214,799.270358418760906715761,162.512212191115054338297
2.39500000000000001776357,-0.0058110048823140914020513,0.140626104643329141730135,0.229344577818877237707085,-0.0156703466884964039140815,-0.0279510779529608989479872,-0.000631324548934522025885052,0.0188902919426077245401707,-0.000406449735774836156537715,-0.724299647677633773312778,0.689226102261201623022657,-0.188152697221326825616217,0.0619626959769332408267672,9.77475656761097511093794,0.0188117246755861722284919,0.0196409522461447397234657,0.00281803293020296830029281,-4.22990537433649294030147,3.7483580592549645693623,1.19918508378763366550857,1129.41649033550743297383,1118.39838197979156575457,1141.82312943116335191007,1127.45609830478065305215,207.240345343056873161913,-182.650543026515407518673,-128.855500931152192833906,864.72517573231039023085,162.511558837182690240297
2.39749999999999996447286,-0.0832431948249965220076874,-0.0600387100189056707733037,0.140280459981901223232015,-0.0151237063853943143332259,-0.0267279671863824737354509,-5.34816219971003960318053e-05,0.018848633779342687660785,-0.000385325171808744424469667,-0.724305208020123547640878,0.689221415957256167139633,-0.188527990007109097492233,0.0590389977769864016110546,9.77268845785356887745365,0.0190473618620128903877742,0.0194550489023745110106489,0.00271941036759102122005727,-4.22985741915902568877073,3.74831139222269538180399,1.19918490285516199378435,1130.12216418902448822337,1118.14822835886116081383,1141.49741985790819853719,1129.48751549982125652605,369.650218861269138415082,-32.5504876008387924457566,-139.357569882125318372346,813.018183347066042188089,162.510993474335975861322
2.39999999999999991118216,-0.155667753738834818699743,-0.306320779904527995540775,0.056869373855655533378517,-0.0151823211953392139123009,-0.0259325138603449384389066,9.77085229573922955589871e-06,0.0188029683639084378710127,-0.000369839580691601907489613,-0.724308071245554185857429,0.689219665251822544149718,-0.189023273740457353753186,0.0562521813091280409313555,9.77054810146896812739215,0.0192827732012289324026177,0.0192664052607850987131055,0.00262462111479136450675753,-4.22980990131674072785017,3.74826380520638213766915,1.19918297883355884358991,1131.26474142981373915973,1118.235629541787375274,1141.12634158175274023961,1131.52118922151589686109,589.89517376368337409076,109.624011118241980966559,-161.77999021097437548633,860.722207496173837171227,162.510406869036245325333
2.40249999999999985789145,-0.189809237456969315260835,-0.617648964233323161110434,-0.00803733326808710873967456,-0.0162058972815412906387511,-0.0262499499081524957644351,-0.000415344618790194973316499,0.0187543156268097054029109,-0.000362337371544577775336893,-0.724307735341211400559303,0.689221347139164164374847,-0.18961424769977092141815,0.0536445042405189198575499,9.76833612872323087117366,0.019516006651736431121158,0.0190754278696301203532837,0.0025348931639186324422941,-4.22976305998066237634703,3.7482145363784118430317,1.19918110300610569751711,1133.07164005784284199763,1118.69634841445235906576,1140.68851990685334385489,1133.791126537302034194,715.917602313490419874142,216.852535220626947420897,-146.652027614835901658807,774.970558147417705185944,162.509679380597304998446
2.40500000000000024868996,-0.141354179921275940889913,-0.848558040008028591216771,-0.0158950120709701048227203,-0.0180323393828911576752816,-0.0279956461222524745358076,-0.00111144320837301430887623,0.0187037886443871120834004,-0.000370543013354250030857301,-0.724303752673419731777926,0.689226896098901087306388,-0.190200785338288824721786,0.0513340171146599300033841,9.76605132794868069368022,0.0197448135834147574241282,0.0188827370937864578992471,0.00244986796836408216720971,-4.22971728360848331362831,3.74816287737612485742034,1.19918040007333415175594,1134.84432944138143284363,1119.319892217890583197,1140.39308144367851127754,1135.39604201225324686675,730.186118046500041600666,282.096071831601022950053,-89.6235836008084731929557,545.647731435801233601524,162.509054545975715200257
2.40750000000000019539925,0.0106538890831274768444814,-0.993397641149616816846901,0.035385670739355210012711,-0.0204201468442358757826582,-0.0313115217856384589478758,-0.0020143112139318639433605,0.0186540053791308252373327,-0.000395330741721826642558896,-0.724296682258535162723945,0.689235650518095210870229,-0.190791922788648371511755,0.0493606893342978247929409,9.7636918519448254727422,0.0199667596451345366603825,0.0186891494910068588219954,0.00236839605521781213642862,-4.22967276462297459005413,3.74810894423481144599464,1.19918132841447544478797,1136.72257064807558890607,1120.10682877361045939324,1140.24040198884927121981,1136.51936519448122453468,736.191853648522055664216,329.56281626648683413805,-32.011328095860108078341,343.548784818820479358692,162.50841202747747615831
2.41000000000000014210855,0.243903334578013136768604,-1.03090601199667708520735,0.134259132486949844809132,-0.0223878840794301398053889,-0.0356742146904371684734691,-0.00286840032543802863837512,0.0186073766658787498329275,-0.000432345425297920573845523,-0.724288324510555803215084,0.689245654879487412713956,-0.191460055590771921485427,0.0476868359896248095175508,9.76125760785596341406745,0.0201794964315787153652515,0.0184956148076490904663682,0.00228869932137934712149119,-4.22962975333143376133194,3.74805315496256330476399,1.19918392151942643231166,1138.52528870962396467803,1120.96770629922298212477,1140.23302480319921414775,1137.11378593634731259954,659.487395045940047566546,350.709667160989056355902,28.7032756706145590896995,86.5221320553719408508186,162.507756307741175305637
2.41250000000000008881784,0.535944255948749948004206,-0.918737366113421605184897,0.273922187480350187716027,-0.0226148367635794211860656,-0.0407309801855598660469404,-0.00315839950364411609778914,0.0185640044717111374339424,-0.000474411703385540454297464,-0.724281348258351886926221,0.689254106760870732806268,-0.192279262387887922569618,0.0462036370957168707196416,9.75875268212060298367305,0.0203810381937095073945354,0.018303080397178185523277,0.00220852330584891346637599,-4.22958844075827933295386,3.74799607510396493026406,1.1991878956357444607761,1140.02000762330521865806,1121.86037710941536715836,1140.38391836720234095992,1136.95197585475807500188,532.849181164067431382136,389.387314150925817557436,86.6574479760875249212404,-259.512817810451508648839,162.507086462775816926296
2.41500000000000003552714,0.872079890056966400280203,-0.631453060171432545288894,0.449932879540712038490824,-0.019730029733477406905795,-0.0460170459493263184214129,-0.00206740724973708761905145,0.0185227778196191440740481,-0.000521613668408418872449173,-0.724276828644658254852118,0.689259904616109086994413,-0.193205678411584647058419,0.0448895663840470082739387,9.75618584948303535497871,0.0205700924695046485912719,0.0181122291451376246640415,0.00212486389430373854084189,-4.22954835170392495768965,3.74793819738500522120717,1.19919287983028155508691,1141.18953461544424499152,1122.91464286997756971687,1140.6663120430796425353,1135.81622184729508262535,292.612875908941418856557,376.082557368598656921677,103.229683977362967084446,-566.520353592489527727594,162.506268221814679009185
2.41749999999999998223643,1.0771365789569495863276,-0.316933598390033210989714,0.570191691541761414008249,-0.0149855156339907518575627,-0.0481046947631564580927233,0.000267081409079834744373094,0.0184826356853117976242196,-0.000573668832576411835862118,-0.724273734862322493555098,0.689264161021283627839296,-0.194199076734795139653755,0.0437203492827007711429843,9.75357074521375011499913,0.0207461348957882554810972,0.0179232935775889765106506,0.00203461845094177239470778,-4.22950917911584856057061,3.74788019183349030427621,1.19919887385150603087425,1141.48307200284989448846,1123.74078989625832036836,1140.90006678708914478193,1134.11937408679568761727,-47.5221941293067331457678,306.86708575499977769141,72.2507479329594275441195,-803.526838648866828407336,162.505575364997895349006
2.41999999999999992894573,1.15565050940617042307679,-0.0155459229584220676168016,0.633056480553922495957409,-0.00942257562161942160972039,-0.0470990234413149189141023,0.00338631800893403767799272,0.0184447387979754205689087,-0.00062628000855582922293957,-0.724269713506574097650059,0.689269324672740157922135,-0.195303869949591701882241,0.0426473396490448519724481,9.75092500279266261031808,0.0209093428573544765081138,0.0177360078269109926185632,0.00193499856150987684620668,-4.22947087303558078019705,3.74782282239604658258258,1.19920601051337238907024,1140.95192364479771640617,1124.44897829875253592036,1141.02756578274443199916,1131.79858765405083431688,-426.181655074296941165812,263.945937381419014400308,12.500649092135329709663,-1103.82100112976854688895,162.504871890636962916687
2.42249999999999987565502,1.10287114022691401515885,0.230122875716520514099983,0.636735515648134908772704,-0.00392861420159427640608207,-0.0437532414656008616926641,0.00663331514387241732294553,0.0184109264354694428245107,-0.000679242003307443660380105,-0.724261443617114530901802,0.68927884018222496109729,-0.196519376156168878999608,0.0416921190823517640033913,9.74827086407953480318156,0.0210605106434957820016329,0.0175495741328985516149785,0.00182329619403925197174132,-4.22943329658767463996583,3.74776621602149795364767,1.19921495050479220978445,1139.35216372747845525737,1125.06051958316538730287,1140.96257003254982009821,1128.60026908114696198027,-729.429776454568013832613,168.16832257699164188125,-69.3934538723577531982301,-1186.86412768794252770022,162.504015797839514334555
2.42500000000000026645353,0.969314130842179877411979,0.29192826323747061989522,0.596143266705969954166733,-0.00107176255251386211113374,-0.0401927022486830362590915,0.00847778376901564545420342,0.0183774078269432483700996,-0.000731142636244214269743147,-0.724249526681228550373248,0.689292179338795385490357,-0.197783659650905552229716,0.0407866294202816614955509,9.7456377901630162341462,0.0212006438931871196706958,0.0173628845218425330310108,0.00169738781788357929319888,-4.22939601070190374088043,3.74771010892866618391395,1.19922543190341257535181,1137.30477476252463020501,1125.28981991163755083107,1140.68059851338261978526,1125.86426701561072150071,-925.15515022594752281293,17.4744088521026270655057,-166.479197110391083924696,-1044.25853554987270399579,162.503292336508934567973
2.42750000000000021316282,0.800594060125945805594938,0.195880113534236677264033,0.54237935812172866079095,6.3210493481081383147259e-05,-0.0371032298017212602836423,0.00936717861332709775257221,0.0183410730898076156092369,-0.000786137719147142130515782,-0.724238620683327227744996,0.689304525139249668619357,-0.198972522449043370817989,0.0399541623949330182430373,9.74305833280235589199947,0.0213308095590168042554602,0.0171745770709797462849622,0.00155567240999852137578463,-4.22935813929175807857064,3.74765387458113785612568,1.19923584625986179297286,1134.72638797634840557294,1125.1478916274259063357,1140.13017404699780854571,1123.37897640339724603109,-1186.87011683034847919771,-156.200686849755271623508,-305.582152049471176269435,-975.04736004964149742591,162.502557870094619829615
2.43000000000000015987212,0.61841935621180810223052,-0.05573738302879657074973,0.498912126736810068727834,0.000262074434760197676284182,-0.0354212261743603457064822,0.00956039349767957846726318,0.018299531847794443112365,-0.000844656202684604395791723,-0.72423218795320931651105,0.689312304501886297103397,-0.200024998040990081848989,0.0391798034925593119393028,9.74056675564292895330709,0.0214522887818177146468379,0.0169827948388635643905964,0.00139774203962573107667966,-4.2293192455498749282583,3.74759726831743300579092,1.19924535329041814790685,1131.37042417837301400141,1124.50881647738879109966,1139.15268775313529658888,1120.98903021536261803703,-1214.0675676153737185814,-309.120713144836599894916,-405.912054658628676406806,-749.340858892280834879784,162.501662600195970753703
2.43250000000000010658141,0.51039331802913645574904,-0.319284305691161673923517,0.495796372755511194352351,0.000208589819605752994956596,-0.0361658157311238667719344,0.0095276139194875233279225,0.0182522916762927027434227,-0.000901524567621456792039514,-0.724230740058511957002452,0.689315001133837701452478,-0.200985378987598939382053,0.0384002474674829674672338,9.73819690654350367253755,0.0215666210485013914999186,0.0167852670753656819935262,0.00122448614113397614110157,-4.22927914102365765103286,3.74754118267305669220946,1.19925354371368042549761,1128.65605013827166658302,1123.60228806170175630541,1138.10061377370470836468,1119.63227210893592200591,-996.093226667811336483283,-427.248747843996170558967,-453.26243277137166387547,-398.691900869070536828076,162.500903863220855782856
2.43500000000000005329071,0.45517359698546805413244,-0.560348514123265695197063,0.526342102734832284482991,0.00033840585868464390746288,-0.0389088800649263211184348,0.00995859490055190678392538,0.0181982602543472871126085,-0.000960482496456567286409467,-0.724231205971067382165529,0.68931586160172353405784,-0.201773142399382016121123,0.0376749839366730676637474,9.73598230612965842567519,0.0216756033377740221779195,0.0165795131711708697286323,0.00103716417636665102566806,-4.22923783615961301762809,3.74748578116952124617001,1.19925911629939285774071,1126.38995804503406361619,1122.3725727381688557216,1136.88637558927848658641,1118.99557071101730798546,-785.225692981856241203786,-531.694026907064198894659,-492.112239653680774154054,-141.76756711017634415839,162.500130615933130684425
2.4375,0.433726910310327451458789,-0.735799162232492753865642,0.57141773592914957280442,0.000795929360111751089956744,-0.0425433993250529315921504,0.0110104429887499105644721,0.0181386923882916432926304,-0.00102186776107039711293523,-0.724229980146041563138226,0.689318637116361876415738,-0.202390392976728977769696,0.0370506749770748156080913,9.73395311641555949222493,0.0217809668717518500891117,0.0163632696542811255369099,0.000837847753912048529359446,-4.22919533759736143707642,3.74743114757906736755899,1.19926179546095657002525,1124.72992167336246893683,1120.94381792716649215436,1135.64005257543635707407,1118.92343427338505534863,-480.553315693997546986793,-600.54889523254507821548,-475.740723059208107770246,82.6997029123066909050976,162.499344326387330283978
2.43999999999999994670929,0.428679792415477545208802,-0.803723484946366695247377,0.60996464610627487701322,0.00181166060635488219629496,-0.0460872534498607822062155,0.0127115533032328004159339,0.018078574956499931375431,-0.00108074044773073633940452,-0.724223903441087335508541,0.689326522951080988832473,-0.20296637316445190202252,0.0365519669119839241133718,9.73213423131761246054339,0.0218841746061679727486382,0.016134802515736568206961,0.000629196031525263029492157,-4.22915193713900716687704,3.7473776874786097756953,1.1992623674980025239023,1123.98719146656412704033,1119.36982826200619456358,1134.5076719739824966382,1119.40906922557883262925,-100.381341511913305453163,-701.29355593541401958646,-432.785738042557682092593,294.88135805868927263873,162.498541091804611369298
2.44249999999999989341859,0.405117263474693400926441,-0.760821203638001319902173,0.618750838213044884739134,0.00373555678332723826301498,-0.0494441016245750625257571,0.0151774385789581155170591,0.0180191369000276928324933,-0.00112983942112702810157965,-0.724213277024106427681716,0.689339183880249173341781,-0.203611979824331740251964,0.0361205838583582017342621,9.73054832323090401757781,0.0219861255312615681833943,0.0158933146991515131252193,0.00041391819746692599295626,-4.22910823012189673875127,3.74732497155835186930517,1.19926185651436090218169,1124.22801496580291313876,1117.4373501474894965213,1133.47612388522361470677,1120.39784106367847016372,261.772319343350432063744,-699.728060863768746457936,-300.524959860155888691224,389.013947183647474048485,162.49755605566249982985
2.44499999999999984012788,0.348545123690621849732452,-0.639668483496714457281485,0.579163488532213777126856,0.00574501463905056561354279,-0.0513407149339607585258882,0.0173532660991191911570297,0.017961589631215944123932,-0.00116795970192233372272894,-0.724200639783468269605748,0.689353925937533196233176,-0.20435941073999747130685,0.0357821802724322679534197,9.72921357362780092614685,0.0220870528727891424214391,0.0156390493620493405135807,0.000194184077109763232214454,-4.22906476715565382562545,3.74727203320934654229291,1.19926114754142032481354,1125.29605306328085134737,1115.87118795768742529617,1133.00504717468174931128,1121.3541389614970285038,563.69843155990395189292,-603.288129834668552575749,-91.6165671151185989629084,361.252194864867476553627,162.496716430848238132967
2.44750000000000023092639,0.241361402982448208787147,-0.460881917448393907399407,0.483309703355137676439313,0.00758466558367108367039178,-0.0522674282349786037404904,0.0192651819089251462313594,0.0179049334777295031384536,-0.00120695706187300849134003,-0.724186961627538816621552,0.689369732529705347978677,-0.205036270474799026120039,0.0357145786520379759920729,9.72814472705523947126949,0.0221866351242170668778275,0.0153731242580122402091591,-2.87985693425937046979746e-05,-4.22902226206608133907139,3.74721728475747273279239,1.19925951938126895690573,1127.04650712360262332368,1114.42090949831595025898,1133.01804104964799080335,1122.20410203800292947562,858.064633754280635002942,-602.678186686084927714546,119.723426185456546022579,303.687399616435357074806,162.49585599532747437479
2.45000000000000017763568,0.0635365716835274429996616,-0.213927497524446258436726,0.309108040343197665311692,0.00875668462168007963319916,-0.0525135722288983947114716,0.0209060112665644184937186,0.0178491542503840527889025,-0.00125329488906052383470624,-0.724171567627369339170684,0.689387296726106768574027,-0.205557686720581361816684,0.0360286699402644072787183,9.72735084018676232631151,0.0222840874133035868331909,0.0150975315757505348934764,-0.000253771268549822265770538,-4.22898182123986732250387,3.74716015206105135249004,1.19925707077137566614056,1129.58637623205254385539,1112.85779702425679715816,1133.60366430560907247127,1122.87257595957930789154,950.241484682485179291689,-541.005453183208942391502,301.701347910017886988499,166.133939965906307634214,162.494797879155100872595
2.45250000000000012434498,-0.106502271565157305421856,0.000909083215672956690411866,0.126399842838446546666731,0.00857156274487366927339327,-0.0523550120310489544572796,0.0215687732101213364144243,0.0177952063497230916766512,-0.00130487372563270801438529,-0.724155240122891785681247,0.689405772869033151017959,-0.205968391408979600853968,0.0367211850369099923607763,9.72683518822832660077893,0.0223783079247734870143027,0.0148152293024586614866855,-0.000479289693265373261277934,-4.22894404585996497303313,3.74710116858175545928589,1.19925408352388562782664,1131.79771454701494803885,1111.71588223239996295888,1134.52654778919804812176,1123.03477173783244325023,845.201547881488068014733,-421.593400297488074102148,441.984345786850440163107,-22.280426590805767261827,162.493893612668074410976
2.45500000000000007105427,-0.272549656665667050514656,0.212554451788585396787568,-0.0768160251918941217041947,0.00763455836318606157614441,-0.0519972412527614571975398,0.0214400025449395410792608,0.0177440746555288172969789,-0.00135462054054542955366935,-0.724139358047289904973809,0.689423700650322102134737,-0.206380894942587406193368,0.0377115302569692723011485,9.72659601379427130041222,0.0224682282046349789117468,0.0145298563747512394367378,-0.000703922204863619937857677,-4.2289091313883480083291,3.74704112058004890073448,1.19925144341999656560915,1133.81238397145989438286,1110.74983002276940169395,1135.81358603454327749205,1122.76117382662528143555,787.973709071291978034424,-379.429293479605689753953,623.457188942588459212857,-204.146049884779841931959,162.49296430455368067669
2.45750000000000001776357,-0.442629797239444178202916,0.453823695018844008863823,-0.323528613961065469872835,0.00613865322036231952917973,-0.0511506744210587782628608,0.0204803230421655123316693,0.0176979683769163051443307,-0.00139846780095350558571765,-0.724124248826843341930726,0.689440689370076298381207,-0.206884940784228310572956,0.0389696314767314089255734,9.72662640339348349982629,0.0225530908943864273619173,0.0142453170882500396166037,-0.000926561300964423096085398,-4.22887680882191929754299,3.74698108978419508474644,1.19924966586070391727503,1135.73758309237132380076,1109.81873576500197486894,1137.64383373391092391103,1122.01404148840856578317,598.401282307544533978216,-295.921788840548231291905,695.254819470361553612747,-320.434619768191168986959,162.491817748611566685213
2.45999999999999996447286,-0.548131712579110641492264,0.637659304868631537921431,-0.519795053479502167093074,0.00476674959147693668576329,-0.0497911283808311413978664,0.0192027129824170542105044,0.0176558235563343268736958,-0.00144169166816834589187057,-0.724108659792919384656784,0.68945807040819628852546,-0.207399024126667969047944,0.0405445100988424400600962,9.72691708545426081400365,0.0226325297937389514901785,0.0139654282772729548128821,-0.00114663042599141731629764,-4.22884650565889685935872,3.74692088364916831011442,1.19924795059259103879867,1136.80439038299755338812,1109.27022107856669208559,1139.28986013189501136367,1121.15900072778435969667,301.394888601687000573293,-159.788178343118261182099,651.204539805044305467163,-357.052431938116910714598,162.490834031053140051881
2.46249999999999991118216,-0.606739704073663177474884,0.795563601648215490413918,-0.697634086142030040988971,0.00342478484751175538125523,-0.0476901504070797455092645,0.0176681097018703409107232,0.0176169225342107937937186,-0.00148772138699330242969654,-0.724093351373047311447806,0.689475056252631501862993,-0.207872085028307729270836,0.0424541811471611518769009,9.72745455462810681979136,0.0227064346330580965616086,0.0136939276890000686398574,-0.00136330747473981063119797,-4.22881770482433694269275,3.7468602593407545064963,1.1992456395755204390241,1137.2445575353797266871,1109.01979487328640061605,1140.89985643293607608939,1120.22877932871801931469,73.5308067321982150588155,-41.9400818506810395547291,611.134035914087121454941,-360.880685211221532426862,162.489818104196899639646
2.46499999999999985789145,-0.620677693272596475715375,0.928597615627677952510055,-0.85609942913219860827212,0.00197119164680502551370567,-0.0453026665807439998800987,0.0159001222621934154566326,0.0175795814374101917743065,-0.00153428923755970030538831,-0.724080847564988250297802,0.689489045892621832400948,-0.208316867683211032202806,0.0446142378671932626765795,9.72822205947338503051469,0.0227750032742841355959396,0.0134343079284226923908463,-0.00157529468083425234353756,-4.22879002730705533252831,3.74679928441837484243138,1.19924218404725135833644,1137.17204441665853664745,1109.06052066931329136423,1142.34553031146538160101,1119.35459730172829040384,-139.696124960336987896881,91.2030804447506255883127,504.871803435401034221286,-314.341268979093626967369,162.488773035546927303585
2.46750000000000024868996,-0.573529513154071857172767,1.03275299117085861411169,-0.986351323114787237322787,9.09239852087320027385076e-05,-0.0431483880013454196289402,0.0136322444767974556428802,0.0175433189437791819953461,-0.00157456535459548686330111,-0.724071977364780128283428,0.689499198356756104466569,-0.208825033154066530549642,0.0468846328325435712791602,9.7291989904423203938677,0.0228389204415366427192158,0.0131894865062031647201524,-0.00178088477782882971360567,-4.22876335230931399422616,3.74673874913486448789968,1.19923771625709219001976,1136.54607691057799456757,1109.47581027551018451049,1143.42421545011325179075,1118.65707298382244516688,-377.755006994331722580682,262.726074230914036888862,350.269616860054156859405,-250.350766326647686810247,162.487689549312733561237
2.47000000000000019539925,-0.441864631715896127861498,1.12656966616957809890209,-1.10376551007320067299133,-0.00238452042362919617440875,-0.0408868581138651238093829,0.0104994979005908362773569,0.0175082008649788470333597,-0.0016079373792698707559129,-0.724065927317537272323023,0.689506369256084106211802,-0.209413341757995585812324,0.0492140867404353421488139,9.73036200603007017662094,0.0228992978837393862390215,0.0129617002774248830238024,-0.00197860204981822451059115,-4.2287376093585615777215,3.74667958613953144819675,1.19923146173503503142399,1135.28326938168675042107,1110.37415104046795022441,1144.09687839576577061962,1118.10284347009496741521,-526.678555593355099517794,381.162949427752153042093,122.480801536906142246153,-153.580769644034802468013,162.486340305565818198374
2.47250000000000014210855,-0.275508255423224546198924,1.17398007674971505132078,-1.16587504184691748143621,-0.00395960606230730000759666,-0.0386389459469589913176435,0.00780466506495875855103916,0.017474614706614346321123,-0.00163744974146429059583263,-0.724061018169007475364651,0.689512309156197544801614,-0.210054868828989993456702,0.051602405511455257114406,9.73168572275100274282522,0.0229574870350512799666021,0.0127524839702177986838771,-0.00216721510018834991745384,-4.2287129420224021103536,3.74662235924354858340735,1.19922294008825058853063,1133.91268413261127534497,1111.38162502264890463266,1144.036619457797769428,1117.88916913560228749702,-588.399548386872766059241,429.239983680927309706021,-160.43321793081645409984,-39.242451945347895048144,162.485171439075088528625
2.47500000000000008881784,-0.0703806137573565887555205,1.17375678343189115970802,-1.18788507969737211489303,-0.0045612077897648119900742,-0.0355092084137241734143053,0.00505613319684624761690683,0.0174435203051159642972934,-0.00166250963993136696011943,-0.724055125576271052523225,0.689519229705129133023433,-0.210780311869241732125602,0.0540027649123440145473296,9.73314327767310061290118,0.0230148200831314722614174,0.0125626340696642167099606,-0.00234558521092335155872055,-4.22868927052108389830209,3.74656731295189882047225,1.19921298091734485069537,1132.34127163975244911853,1112.52035095887254101399,1143.29471230611170540215,1117.90663121036823213217,-710.21320869232715722319,494.011931213855461919593,-465.178121877543958362367,48.7445695991492726761862,162.483952035293754079248
2.47750000000000003552714,0.187900111054870172511144,1.09864385162383326743907,-1.16374513671299828487804,-0.00428083164932243579597904,-0.0311229142306267414497256,0.00175887698214224333023714,0.0174114566007123779123322,-0.00168626613601267861738964,-0.724049262553119854501915,0.689526147399288635853054,-0.211508748320223649574956,0.0563597792872518599249787,9.73471014569837223007198,0.0230721413650671683392979,0.0123923364506071873036852,-0.00251332936959368499416079,-4.22866629958240292097571,3.74651316684029023207358,1.19920200311033209317202,1130.3616180891497151606,1113.8516846787181293621,1141.71072884841009908996,1118.13289198359802867344,-723.503865621766635740642,457.648922192730196911725,-664.910891210925569794199,107.096524637065627416632,162.482425363433321763296
2.47999999999999998223643,0.388619750903036020872605,0.968216686387246450173905,-1.09758580677338923869968,-0.00341931222769595441132728,-0.0276926690482398353554405,-0.000939946431189268849504259,0.0173777065871305279320946,-0.00170945304824337098760501,-0.724046523180222112436866,0.689529828652518994580589,-0.212230724671834319883246,0.0586211446600573282683655,9.73636118759933033572906,0.0231296591460491765546159,0.0122410404898720508171106,-0.0026705240103206185665885,-4.22864337428636627436163,3.74645833585570020574096,1.19919068923491245470814,1128.72375231164369324688,1114.80859556983614311321,1139.97015785005714860745,1118.44211383355354882951,-632.814508451351571238774,332.578014986263781338494,-731.695360341033961049106,139.26071118071672572114,162.481096762838859604017
2.48249999999999992894573,0.547488422397495844151649,0.776740612722375933785202,-0.978426193177415193247271,-0.00192181223894868544697923,-0.0251150782954948775804738,-0.00370919928695042679100968,0.0173439382228780941685997,-0.00173577966459322920178554,-0.724049646752491282697406,0.689527344697185018418395,-0.212929834204002937925182,0.0608115250505931459468201,9.73807186971092519911508,0.0231869824163482181333951,0.0121072828917020008931971,-0.00281801403321180719829808,-4.2286197128755507179676,3.74640186373536332453682,1.19917931862497595396633,1127.19754554689302494808,1115.51457475364941274165,1138.0522520467050071602,1118.82919553950159752276,-621.712862423750834750535,251.701300098517009473653,-819.589819459424006709014,184.237757789609815972653,162.479705497142163039825
2.48499999999999987565502,0.664652894434589081029685,0.502597582839618417516192,-0.771412501304678310809493,0.000479506289050734397193254,-0.0231498948419684401345275,-0.00709062525496872726044062,0.0173094059554932053202059,-0.0017656245940501317116117,-0.724057600983836313623954,0.689519795154175829665633,-0.213598459310542443390091,0.0628819819284717473895086,9.7398218291857716621962,0.0232433822623555989828059,0.0119886114625472658262728,-0.00295714136588488742812819,-4.22859525552400405956632,3.74634353162946132087541,1.19916863144512020333821,1125.61518799952500557993,1116.06710207032870130206,1135.87220875276011611277,1119.3633026225015782984,-518.673357406179547979264,167.430516871570546300063,-736.657500775432140471821,209.273582686213984516144,162.477958833756503054246
2.48750000000000026645353,0.68915408683526280242404,0.260675161462757876140728,-0.550816463594467564668378,0.00280629698008143940723969,-0.0223815497072204112882776,-0.00955385209986447068997162,0.0172728110433341720819644,-0.00179550670681688224854244,-0.724068172560722311814629,0.68950954390279750594317,-0.21427099433292687291619,0.0647283582619777309030695,9.74159467151916658167465,0.0232979330483870442081162,0.0118819364210303989731754,-0.00308958036474875179233646,-4.22856989716489817254796,3.7462836911602113154629,1.19915938142823730316877,1124.60417875986195213045,1116.35172733800732203235,1134.3689645428275980521,1119.87556345293273807329,-314.839141000426593564043,107.317316328446423767673,-499.241809504576792733133,223.548042375462870268166,162.476435649359956414628
2.49000000000000021316282,0.634047733203636831866845,0.0322215172480445274927341,-0.299860830645717058029476,0.00519090080914140755002917,-0.0223405393853523155656138,-0.0110212703954868859734795,0.0172341658812722627047709,-0.00182649711749948264263854,-0.724078383686534654550826,0.689499712771089012797177,-0.214936765502033638730595,0.066336162539203241683694,9.7433774388952407718989,0.0233496924661844539039546,0.0117837078866806777011078,-0.00321751598510297120298018,-4.22854337351809750344955,3.74622302639428950143952,1.19915114375960940584775,1124.04099229452276631491,1116.60368865197096965858,1133.37599970523706360837,1120.48104283437896810938,-134.323943584107070137179,122.016740308438656370527,-297.54145730594882479636,259.96979830111382625546,162.474838386005586698957
2.49250000000000015987212,0.519587200537781179754404,-0.167294894865779197878908,-0.0469685380844725927640404,0.00720365108259613667884835,-0.0228331632091254670136049,-0.0114735307124667149786257,0.0171958200940691141589411,-0.00185885348445837678132975,-0.724086331672794902836188,0.689492238693132586391243,-0.215626726867740731163892,0.0677189896937003821264511,9.74516017460831207586125,0.0233978057051390624099252,0.0116902793478839157198523,-0.00334313080614877505131188,-4.22851542612328490378104,3.7461623310088172367216,1.19914377422226348102186,1123.93255904194143113273,1116.96181103954950231127,1132.88125725629788576043,1121.17541244443827963551,76.3115151949039329792868,196.475363449466925658271,-74.8950684400840600574156,297.429929304877987306099,162.473176951537595869013
2.49500000000000010658141,0.35226411674264213047536,-0.315280946549650331611758,0.176473343795949366707987,0.00836131183627150838255648,-0.023916189080988539683581,-0.0107747278948722886859901,0.0171578036869473038450451,-0.00189442066186248274720083,-0.724092628464819809686048,0.689486471729072625258539,-0.216315658096685181632779,0.0688898040149111268171112,9.74693844228768213611147,0.0234414729090168146019568,0.0115982542214920214540541,-0.00346861511128019597491323,-4.22848606290063777635169,3.74610152263319218235438,1.1991367821646243818634,1124.42254987049727787962,1117.58606546921828339691,1133.00152436303665126616,1121.96819248090332621359,347.199714510368835362897,353.603870749983173027431,181.557890474509122213931,361.545558239193724148208,162.471435223654538049232
2.49750000000000005329071,0.121115528425823335001432,-0.420165269696530785381583,0.375122839999300405899874,0.00866653801186064408346166,-0.0257379782482969818313556,-0.00902306627257449568590975,0.017122526964467033039341,-0.00193432685951297218124312,-0.72409824475700013124424,0.689481328522487890708703,-0.217019061684095515563087,0.0698921102402708938061693,9.74871016304923010409311,0.02348004227327065568387,0.0115045865038036054101012,-0.00359582520980812614386224,-4.22845592436976325245723,3.74604074260754149605646,1.19913019159776434996445,1125.66855761449323836132,1118.72983039329938037554,1133.78904670867041204474,1122.98314023563420960272,546.541693173242265402223,479.100104950758804989164,376.033412649766262347839,370.075623619285295262671,162.469249191661873510384
2.5,-0.0757111116572369152732946,-0.445285204692218383737412,0.466140561625723481853356,0.00814278624829254879524676,-0.0273523870374218040779635,-0.00727363400199622020525503,0.0170898060381613654812316,-0.00197746212189583731727582,-0.724104300180800630748479,0.689475640511314491476469,-0.217743423914411177166883,0.0707111941181532976941071,9.75047772024349868047466,0.0235129767796938941859519,0.0114067956652458401406447,-0.00372618627847737336061806,-4.22842567851631034869797,3.74598038956646695041286,1.19912403830734870524566,1127.15525833636343122635,1119.98156599397202626278,1134.88169142628544250329,1123.81857059899971318373,649.586107275368021873874,533.158658023978659912245,496.365812060832126917376,313.07872826892645434782,162.467345709431555178526
2.50249999999999994670929,-0.259489540515242145257702,-0.413836360093289279404871,0.472902184601512509676269,0.00714665811370670048252585,-0.0286424696095482975155555,-0.0056424405440919332688221,0.0170586362152253118162903,-0.00202509719276425335238168,-0.724111053943229276974591,0.689469157114955599752193,-0.218449054705981027257877,0.0713626915515790105626337,9.75224590298066118521092,0.0235398256814925536939409,0.0113029727632872837445044,-0.00386077661456797616157388,-4.22839584717848104844506,3.74592001000637919716496,1.19911825766521773495299,1128.91648815087000912172,1121.39562368341921683168,1136.27087576897451981495,1124.54853387697880862106,784.828541375071267793828,607.868470668349118568585,641.697878679465247842018,275.543597309894209956838,162.46535571180606893904
2.50499999999999989341859,-0.457102014149408264476193,-0.328858383994700853580895,0.38879773092582770033232,0.00584394887805399394775652,-0.0296766844626110137816966,-0.00396154859077748038725941,0.0170285628516861319015074,-0.00207490055514420032242717,-0.724120039592918041115865,0.689460286492656337919982,-0.219150596571364597586751,0.0718248266828713510800952,9.75401991125482226152599,0.0235601517486761190267597,0.0111919727125161586056556,-0.00399990302653837909857559,-4.22836700412029742324194,3.74585945690192057000445,1.1991126046648747927037,1131.07940104323870400549,1123.02090834731370705413,1138.09018081968270053039,1125.19628858554915495915,762.809787081658100760251,545.205983168273405681248,668.786723913549963072001,188.701165331853587758815,162.462866526042972736832
2.50749999999999984012788,-0.602614700599284014437274,-0.233522063236561522314716,0.251676832004499029249445,0.00478802987364042049317492,-0.0301619531331346023284024,-0.00282950298394493227407964,0.0169991830630607243524111,-0.00212580968972163981620116,-0.724132178983625807155988,0.689448076487230832043451,-0.219844338732314625861619,0.0720998993568054691305491,9.75580428381422137817935,0.0235735715087512093246502,0.0110731972554386562390683,-0.0041432629745911230684241,-4.2283392010616882572549,3.74579885851004634744754,1.19910623093716184328628,1132.73053708627821833943,1124.1216535992605258798,1139.61480938854219857603,1125.49203970363805638044,590.689351741963150743686,352.55798698155905412932,591.529544839846607828804,64.1337279896972489723339,162.460707506591262472284
2.51000000000000023092639,-0.728485479326428153612483,-0.128443608144039295160255,0.0624730069896973078114044,0.0036204292298496259724927,-0.0303747433273885945881343,-0.002140843731903616185136,0.0169696608209688529211867,-0.00217323836787167807768628,-0.724146642391827355389466,0.689433438914603180514007,-0.220565938633183800110515,0.0721391339533473952005949,9.75760184343137737528195,0.0235798251249594234546514,0.0109464431930296566403138,-0.00428971179279564584357898,-4.22831244148362728196844,3.74573854899676117469198,1.19909865636438683900167,1134.03284780194871927961,1124.78369828222162141174,1141.04782854388213308994,1125.51695722549766287557,462.96683106185412270861,174.145698992139898564346,594.16763944273577635613,-43.2813183420846954163608,162.458460702715626666759
2.51250000000000017763568,-0.850568625539863121254314,-0.00502104466052337959636187,-0.197448685452808414542147,0.00182893174022119141958198,-0.0304343756409170863863611,-0.00207852762661613196457089,0.0169385735425338773696424,-0.0022102126851089283834928,-0.724161522339773044976141,0.689418438943591449508119,-0.221373523850320857997431,0.0718552121334173066191653,9.75941250507935720293062,0.0235787369560016245306766,0.0108118248699214589136908,-0.00443739868933167112136084,-4.22828680612073704025988,3.74567844903044111504187,1.19909040528080823584389,1135.04537124158764527238,1124.99238209422128420556,1142.58564758575607811508,1125.27563311192761830171,269.652388140417599515786,-13.238453093845519603633,524.219201774724069764488,-121.513644871677428227486,162.455663941344823797408
2.51500000000000012434498,-0.917760269627753477728049,0.0876905791866440242898761,-0.417795105925662213497418,-0.000249998888597207453900889,-0.0303673942930834626918735,-0.0026478008049361234643726,0.0169055320301251671422094,-0.00224187383541403452077989,-0.724174069735854852858381,0.689405952705694380355794,-0.222175848710136791819281,0.0713479549846251226430383,9.7612312273023746911349,0.0235701115475728494030871,0.0106695549062590169797637,-0.00458451877512839126027622,-4.22826227834813561656802,3.74561803362763434677163,1.19908122843017639347352,1135.38110974265077857126,1124.71750601675239522592,1143.66892455275569773221,1124.90938900113928866631,30.0186987552485362584775,-173.933687257071198928315,380.288705893471103536285,-163.373717845119102776152,162.453250623916687800374
2.51750000000000007105427,-0.933147326712467917175786,0.161159973301945980139749,-0.610997297947401096784859,-0.00299219819071202012758515,-0.0301783870392597422527281,-0.00383423492783575023748477,0.0168689650966801531206674,-0.00227453169551259694325385,-0.724183425805335012626074,0.689396896304239392705426,-0.222849332202967376215241,0.0707178995715060099147564,9.76304859786468881566179,0.0235537118281514308570923,0.0105200904550639857959471,-0.00472890405643535544077949,-4.22823868564047433693531,3.74555707767660361895423,1.19907035252961557958429,1135.19546473536388475623,1124.12271365793594668503,1144.48709111522339298972,1124.45876452270204026718,-187.095651472286021999025,-288.51786942969442861795,286.279134409602818323037,-199.191295951281659881715,162.450753453751360666502
2.52000000000000001776357,-0.878524300980116912285212,0.21550437573376923783286,-0.773445487317808044736012,-0.00641197256985972900700244,-0.0297513361028176430422842,-0.00615662679794122709442394,0.0168270080365860753845997,-0.00231528218771261161748609,-0.724192027907706648015562,0.689388731439811053292033,-0.223256578398148358699515,0.0700714192572002569914247,9.76484988693407629511967,0.0235293044019600980365503,0.0103641298014797121618269,-0.00486813482336709811570952,-4.22821530583760019084139,3.74549535164875102566384,1.19905722695192551441323,1134.44563148528936835646,1123.27491666960395377828,1145.1003202248036814126,1123.91343252138290154107,-344.443219888860824084986,-299.870904161031830881257,159.173132372101207465676,-190.714775233531753428906,162.447662965341095286931
2.52249999999999996447286,-0.770967173339118239105971,0.222608462191440120703234,-0.824770545531452015097784,-0.00903192690782615367761643,-0.029170189119395239368826,-0.00879481476277014194431469,0.0167781129762390492088375,-0.00236521074565763803412843,-0.724202719183615117870545,0.689378508179361415564301,-0.223346526956150009946001,0.069432834677427196501398,9.76661459859029257302154,0.0234969148845917547019368,0.0102024365608841989516709,-0.00499943987728136262499445,-4.22819149203052813135173,3.74543308668772345626508,1.19904184506886690719796,1133.47324863591961729981,1122.62335913713081936294,1145.28295677708388211613,1123.50519064653440182155,-432.581355901866231761232,-220.183883411941820895663,9.66094610171260370634627,-147.099732981272097731562,162.445012072450850837413
2.52499999999999991118216,-0.608687535042792271511303,0.177781936382666982954248,-0.766090132358023701009131,-0.0111916772108682054109874,-0.0283198712728555991591239,-0.0119708003014028455807116,0.0167244220498389654927518,-0.00241833167071015507632037,-0.7242153894709569827981,0.689366311081563321039312,-0.223216498182641998049291,0.0687751522075103205455804,9.76831482944138329571615,0.0234570706712510824998308,0.010035667494844181107938,-0.00511985626269330709736671,-4.22816738001653469325447,3.745371035328356690286,1.19902543149387819099161,1132.28272470578008324082,1122.17399725254426812171,1145.14862495531224340084,1123.17793385647655668436,-487.615092163161023108842,-135.720588473489613079437,-94.562269147447494788139,-116.136209090157279888444,162.442286737554070441547
2.52749999999999985789145,-0.415657950484762839238329,0.0831281619122434395352528,-0.611341145590478474147744,-0.0126474290943464021813591,-0.0273034451183989008982156,-0.0152483869243468378451567,0.0166666869000308935644394,-0.00247433483169433960854877,-0.724226927440621115472652,0.68935538907640769856755,-0.222869243173489189890901,0.0681315061717432668420003,9.76991917965674794288589,0.0234107243321744658282046,0.00986440288218362604233391,-0.00522714724742709760385573,-4.22814327629094943716836,3.74530915852031487389695,1.19900754923369201598859,1131.03517317510386419599,1121.94475619476338579261,1144.8101454313466547319,1122.92450960108362778556,-480.7683351791768586736,-39.5734832585249591829779,-162.740028349424306952642,-85.0817258315543654134672,162.439503068462414603346
2.53000000000000024868996,-0.208649485568645570721102,-0.0717125728636294201834289,-0.35671695488594290512907,-0.0129361068860123652052296,-0.0263648346007541410640496,-0.0178695250156287628595653,0.0166079265128296071907243,-0.00253061482519954068434731,-0.72423446751575792923461,0.689348688911704643444978,-0.222373316668476900259677,0.0675300792396499871550475,9.77139183334548988568713,0.0233592221117154170972885,0.00968948351666071468202279,-0.00531952664861554298803004,-4.22811972105599487292693,3.74524799104505401459164,1.19898790690448242557409,1129.8788830298840366595,1121.97612983625162996759,1144.33492481356506687007,1122.75252522731875615136,-447.120157586202196853264,59.148536568814606084743,-208.925174102555047284113,-61.4743415082061233079003,162.436653753693235557876
2.53250000000000019539925,0.0290559929505959657625169,-0.311207937421490332674523,0.0139137805542226336563694,-0.0123636070318889831898268,-0.0260343476605412807445283,-0.0189814745655593475337497,0.016553317426455667338292,-0.00258186606133380472383188,-0.724236408962460886939994,0.689347790221712442004787,-0.221867648033077791147605,0.066986186097322458765646,9.77269422503822582370958,0.0233042231299405641631317,0.00951208898892710701111763,-0.00539584024299816396308405,-4.22809765506425527803458,3.74518848628865708150215,1.19896743522440085705227,1128.79957238717270229245,1122.24049887760747878929,1143.76551956083380900964,1122.61713789354257642117,-318.209120229000689050736,117.9763564051452391368,-188.201029717678835595507,-42.6435978147774221724831,162.433165306227976998343
2.53500000000000014210855,0.206648484359190032222386,-0.532242140058659551904441,0.326201055822530505690082,-0.0117540464274936504868174,-0.0268825822875678917267539,-0.0175552669806633455940048,0.0165020838897435677405934,-0.00261847427857429902037234,-0.724234529299506490929161,0.689350881687722516488748,-0.221469051393663407534262,0.066369317576483982668023,9.77379158802644631975909,0.0232474496455514594017711,0.00933384455814844499199623,-0.00545582037415381655015567,-4.22807743783321399178021,3.74513058496833695087957,1.19894685355671604121142,1128.28783742873906703608,1122.56601161827734358667,1143.3939196649766927294,1122.53930723824487358797,-101.323379513043960287177,130.94559427491100223051,-112.598379295516352271989,-30.4936457713217485832047,162.430205284176764735093
2.53750000000000008881784,0.357996453076163234641172,-0.740650208139981058863555,0.586037623040159050269438,-0.0111105407474426862157735,-0.0288486617826322795654637,-0.01440220011089108319291,0.0164535382154314437086473,-0.00263650262964327392056774,-0.724232501541758999508147,0.689354136692289065635464,-0.221222861999378878072875,0.0656264118381580108252393,9.77465139824132833723525,0.0231905028651856574828383,0.00915641219966514471884089,-0.00550046690104283135525076,-4.22805835809875141251268,3.74507380089935004718882,1.19892688524521462412054,1128.29295548960749329126,1122.8952268489820198738,1143.20252766435623925645,1122.46466966468597092899,132.145472148479797169784,125.724312904051615191747,-42.2763735436101271147891,-38.1438178254492328278502,162.427195392792071970689
2.54000000000000003552714,0.506760986652462164236965,-0.938786948190115988488458,0.804546945457634610221476,-0.00999760879992215266420796,-0.032048215829440493407354,-0.0105007719471130918365009,0.0164072322682192843490423,-0.00264446416215873957716864,-0.724231903962317846712438,0.689355871340833870064557,-0.22101278432509974258835,0.0648813882033313082953185,9.77524524744640110895944,0.0231347550250560682338907,0.00898100072586927034024029,-0.00553227429707625444066377,-4.22803971510519716048293,3.7450169148117788964214,1.19890785763704132982355,1128.94856478948145195318,1123.19463318279758823337,1143.18253779725864660577,1122.34858814911763147393,342.527362638436898123473,84.1629710925662664067204,17.2422458424993259029634,-47.5428561715954103306103,162.423531102818714089153
2.54249999999999998223643,0.600452860373025032458827,-1.040974877160803835352,0.910462880895521409208015,-0.0087770585185627750940407,-0.0350952516659954957822798,-0.00792935675393424514723062,0.0163629290290270776320192,-0.00264965261289150551260452,-0.724233322874640483846065,0.689355444370321812641578,-0.220744648104032631374949,0.0642411331200788415785041,9.77555053102599913472659,0.0230813614684990432712741,0.00880849240247025440375683,-0.00555446567644687916320834,-4.22802164918700196238888,3.74495942276136117854435,1.19889025435290741405936,1130.00559230279964140209,1123.316041704444842253,1143.28873889356873405632,1122.22695538382799895771,504.686174745904111205164,16.6033714476274241178544,47.7792563719059373283926,-47.8180013425127228288147,162.420437202326439773969
2.54499999999999992894573,0.65753411365712588487753,-1.06573437376792057307284,0.956939309972463902909112,-0.00739543676212782788437217,-0.0380320589672294290251031,-0.00606324069119974860125888,0.0163198000421507609380978,-0.00265293974637708946523462,-0.724237470601842847628404,0.689352123684531914449281,-0.22040495482469582566587,0.0637110255924250024062161,9.77555232077298263959619,0.0230313207356646586221327,0.00863955358035243745074006,-0.00557058524032331449371558,-4.22800446352953063211544,3.74490170819969314663922,1.19887423694786732220052,1131.47199566321091879217,1123.2776500400357235776,1143.42143407911817121203,1122.10949814240507294016,695.157595777815231485874,-52.9271476776113942719348,40.5444277348587576170758,-37.6079972400028808010575,162.417304919738910484739
2.54749999999999987565502,0.675343067486670500798596,-1.00351240754851223080379,0.968705393621605459486545,-0.00551949046586669954395088,-0.0411004340340646381890544,-0.00402218170511687428403391,0.0162773307739801156857062,-0.00264809978462763554590831,-0.72424367491584407119376,0.689346652081557320634886,-0.220081921611653352766069,0.0631985693843972462513392,9.77524389627116718770594,0.0229855923703168527061358,0.00847449905509799900071854,-0.00558420986259633433945737,-4.22798819751357957130722,3.7448447521823662320628,1.19886035628954146226022,1133.48138028168864366307,1123.05140596605679093045,1143.49146103224302351009,1122.03891539762798856827,740.56939647670787962852,-108.509652037393564683043,-0.643474308753822943351963,-4.36489724961545633163951,162.413505184276857562509
2.55000000000000026645353,0.640662495580074597967268,-0.876659973106797885122887,0.952993487910852810074402,-0.00368342369066636211513699,-0.0435787871590130534982244,-0.00207113609273030727098153,0.0162343412558121173716597,-0.00263462747015656391716409,-0.724249770319693286779739,0.689341333878620732278364,-0.219778030495229148577607,0.0626823676974052335086895,9.77462806993641386554827,0.0229449667105831381364034,0.00831312514094317139834445,-0.00559924417331522737001359,-4.22797217802872538072734,3.74478931710606177674094,1.19884852559089494228317,1135.17484264559470830136,1122.73510177984871916124,1143.41821670757440188027,1122.08767365615699418413,638.667788140358084092441,-144.668131756761113138054,-59.0292021553483365892134,49.9588799642845415860393,162.410306620000966404405
2.55250000000000021316282,0.54778507195306391786005,-0.676214460241019943431695,0.916033713248096237435902,-0.00160184160136842283946035,-0.0461626853695341621275361,8.10051693323047303056661e-05,0.0161867957686112652615495,-0.00262084617579860703479033,-0.724254085236260336522207,0.689337986030225779998659,-0.219336697791870538498671,0.0622264763266028031463151,9.77371864513506238836271,0.022909830374358092219822,0.00815481707401146879710119,-0.00561979242636473363958771,-4.22795541129074603503568,3.74473487507673041818634,1.19883728513784748592741,1136.67471922239064952009,1122.32806530727293647942,1143.19631502146626189642,1122.28870979744942815159,543.294066020610216583009,-170.006250187501791515388,-107.571579426351050301491,107.992194776172738102105,162.407076815746592046708
2.55500000000000015987212,0.407073025195909377060843,-0.423602508085539175564094,0.862500011183598425112962,0.000374305928809277172180509,-0.0485042318166290439829247,0.00226338371735757167002578,0.0161346701418209406697635,-0.0026153668833008526448114,-0.724255817498048015679046,0.689337416058060092893811,-0.218653957739799925663604,0.0619522034505224639122645,9.77253607999912787818175,0.0228801050579031939324892,0.00799869746167455701602034,-0.00564942902415748945954554,-4.22793734823105982201241,3.74468095752708718393365,1.19882598275509177909726,1137.89131297569770140399,1121.88507052891122839355,1142.8803588104426580685,1122.62763463003784636385,401.833885697723815155769,-174.263551480002291782512,-137.242702101505727796393,166.532937078185483414927,162.40382273032221860376
2.55750000000000010658141,0.220278545073594622660806,-0.131842332365430969787212,0.790023508815862141041464,0.00156544611630989776232536,-0.0498898252282828497117251,0.00430301494075877293682408,0.0160788905740130126653664,-0.00262219541495418290155683,-0.724256245373651741381593,0.689338241493192671605073,-0.217700428141978763463271,0.0619274034037972376243175,9.7711084645212338273268,0.0228551204191446109825758,0.00784396982621632203602768,-0.00569099237159121675022622,-4.22791822137284611926589,3.74462711550434113050301,1.19881467721786338920253,1138.68388865087922567909,1121.45674754987294363673,1142.51010151095874789462,1123.1213744828403378051,246.665734979347490707369,-167.255135858844283802682,-161.372127636699389086061,242.873317520212083309161,162.400541661079898858588
2.56000000000000005329071,-0.0301640425509716834928664,0.216187332017148431395626,0.683779211487062221763722,0.00183743588595580188693734,-0.0498563690082175908768747,0.00630895392724070518120083,0.0160222175456617120514746,-0.00264112904190602452991765,-0.724257376492924209721025,0.689338287897636070589158,-0.216527402219078846101752,0.0621845768427777001452483,9.76946994486512210187357,0.0228336145782254071323614,0.00769004282734471120153152,-0.00574656632061090050234142,-4.2278989594188844947098,3.74457253355630070856819,1.19880412187349416619497,1139.12464165059441256744,1121.04879484961702473811,1142.0734981722591783182,1123.84200121763888091664,83.7496229745756579632143,-118.558923162529737282966,-153.054817458818064324078,272.972187310648564562143,162.396576610620201108759
2.5625,-0.238012646880808587113165,0.464188276945247890736823,0.580995800518003702173075,0.00139778831339355574976679,-0.0484837108759090043563766,0.00769272638308358871345183,0.0159659929623905093298841,-0.00267284926101391418634678,-0.72426045061038957229016,0.689336218797726330009823,-0.215151220809622928387128,0.0627496259730544736488156,9.76766127451487164989885,0.0228137657487926109878273,0.00753656324968698682759127,-0.00581770130310583881427799,-4.22788006546006300823137,3.74451637950949223210273,1.19879414904421977006166,1139.10263676575209501607,1120.86395293406030759797,1141.74482742366467391548,1124.48623541939355163777,-73.840845789756471617693,-30.1113768513466375509324,-123.973183830505973901381,247.418511126357600460324,162.393252107610919665603
2.56499999999999994670929,-0.419129191272616996588596,0.624926730451151879464078,0.463750918525313471363347,0.000477448827036711901002086,-0.0460443299132009126184428,0.00906364295212441772875422,0.015911111312135187839667,-0.00271865347369674818789331,-0.724262457681621563132524,0.689335170398381102963015,-0.213569587165131247186167,0.0636520702641848179492712,9.76572767443206402049327,0.0227934590992548390120387,0.00738324218782806119404372,-0.00590526730248177623983086,-4.22786188367376958296973,3.74445811545644957618606,1.19878403207149220044414,1138.75543742164563809638,1120.89823796536029476556,1141.45363225310666166479,1125.07909377327064248675,-206.765268807889555091606,67.7723054179765256321843,-124.957876826695539307366,225.99723080775700623235,162.389910356699687099535
2.56749999999999989341859,-0.578432606982278052498714,0.684252271539805501099352,0.306893423440422419279372,-0.00138836902441263985302777,-0.0425331283866389464609625,0.0106948265180861982331928,0.0158573412744739926372173,-0.00277450692482156952012318,-0.724260895248153624415011,0.689337791648181874570867,-0.211832922743298041057258,0.0648299102328271092954282,9.76371755084038994709772,0.0227705084736634852382586,0.00723021794870019451212384,-0.00600915965710945541855548,-4.22784505382427688857661,3.74439757554047858434387,1.19877333960991849792777,1138.06881042171266926744,1121.2028144611501829786,1141.12003803953120950609,1125.61622157343231265259,-282.15836740606084731553,147.338402931339686574574,-125.020489029568977912277,154.593927135104991066328,162.385885295703019437497
2.56999999999999984012788,-0.646295845950299319149224,0.61589899136886849806416,0.16726265014247640450229,-0.00369770957541229331258514,-0.0397177642086726859216306,0.0117705064599446795892135,0.0158041114491767123451105,-0.0028352904859337973997313,-0.724254854312500029323019,0.689345071803400655241489,-0.209998746788066487090063,0.0661997505888791415440409,9.76168042813048764116957,0.0227429555834333801955793,0.00707800051606235873513651,-0.00612847652639875173363748,-4.2278298864681378432806,3.74433529358273275988722,1.19876155449678933884172,1137.34464558461536398681,1121.63492998001697742438,1140.82852980795883013343,1125.85206340894615095749,-306.117072631766177437385,188.630694893741747364402,-125.941235635301069351044,42.6516192288971396351371,162.382522622818100899167
2.57250000000000023092639,-0.637169626939824707001492,0.439308609894486279401349,0.031788175224395531781596,-0.00627557655293059860057703,-0.0374204498909573510245785,0.0124994925713084875651404,0.0157530889195249476641969,-0.00289532219318838985114284,-0.724243860634836478240572,0.689357496783123635530899,-0.208161533170873463971517,0.0676989972754080959749245,9.75966390592219923405537,0.0227094285886786859118835,0.00692721903290095548239025,-0.00626155815102947318345761,-4.22781617975419710120377,3.74427299900158594425648,1.19874846205215712657832,1136.53822505855373492523,1122.14596793561895538005,1140.49033186135466166888,1125.82947966957681273925,-359.438398784980847722181,207.100185861858903990651,-167.424669134595717423508,-65.084084673294611889105,162.379156368131617682593
2.57500000000000017763568,-0.545838594413738054100804,0.142769375080651017562161,-0.0998458860989137608754618,-0.00884209949205165719743338,-0.035655320796749531697678,0.0126985107508595009701002,0.015702502367620947698601,-0.00295503493326226699192127,-0.724230343460988357229269,0.68937255390131557675204,-0.206283988200553602965215,0.0693028897720321113151698,9.75771532509667416377397,0.022669147519066686069511,0.00677859855578429731925993,-0.00640653092858326118907986,-4.22780282525041339880545,3.74421152745306295983596,1.19873353246144764838732,1135.5474535906903383875,1122.67043090932634186174,1139.99140646228579498711,1125.52664298557965594227,-358.274076868027236741909,147.679024407083005598906,-204.149880669369650831868,-144.746744822171791611254,162.375118839959043270937
2.57750000000000012434498,-0.421402290375251009635349,-0.132530884774611418253087,-0.159168285467743114702799,-0.0100741614904887363118879,-0.0354390226410112238464301,0.0117992749328321207963333,0.0156509541280141981078877,-0.00301687447351465338682419,-0.724218430141155278256804,0.689385931730227219382812,-0.204307176084227826162731,0.071017944878286415333335,9.75587835052179919159698,0.0226220010454507222674714,0.00663280626544006900180417,-0.00656122958139956392875636,-4.22778882655196319717561,3.74415076609334196433565,1.19871703986353983495405,1134.74685467421363682661,1122.884363057654354634,1139.46958245800783515733,1125.10574594546596927103,-305.210427840445049696427,6.44925290162077669009477,-235.844080174506899538756,-182.937197147115767847936,162.371760107720120913655
2.58000000000000007105427,-0.275490380793805611503444,-0.378926652653848006213622,-0.139684068285785306651192,-0.0102404325769916045019148,-0.0368566843435820315488805,0.0098954711504310437913956,0.0155972582214013878038061,-0.00307631670064459784158517,-0.724211212860212283359829,0.6893944304223903474238,-0.202269715777891018193557,0.0727534744647819475726891,9.75419234999441719935476,0.0225685939068632074322451,0.00649041854284662569213316,-0.00672303140975927162464876,-4.22777404458796102204587,3.74409050192567693926549,1.19869941750895891985351,1134.02140145148814553977,1122.70267717383444505685,1138.81218606141328564263,1124.61195699984409657191,-269.623504754650923587178,-155.626053736572117713877,-285.759159690502826833836,-195.751270716532047799774,162.368412184202497883234
2.58250000000000001776357,-0.129995347810536926447256,-0.56107834830279146309806,-0.0477174274649364224543113,-0.00977956621744051519951046,-0.0393991218043121260716788,0.0078633034319139944595678,0.0155400315500464174245376,-0.00313281152017466169371063,-0.724206880246014983448788,0.689399985703451179119838,-0.200154950399559106166691,0.0744718334346042287741341,9.75269185087957346524945,0.0225101451647990967452895,0.00635170391183093128312231,-0.00688947617232929347685921,-4.22775896041808785241756,3.74403038622303174776107,1.19868030638667288911847,1133.3987371504404109146,1122.10623278897151067213,1138.04078665955535143439,1124.12698959188332992198,-211.689732475047065918261,-345.870435212517008949362,-328.991939151735721225123,-183.646521657514597336558,162.365076504587875660945
2.58499999999999996447286,0.00506012547026179343445662,-0.633736876404717874855521,0.11525610129727044406156,-0.00913415221881574285189842,-0.0423320355632792119648933,0.00660486270721484178269911,0.0154792159487816445573305,-0.00318273820300800933461027,-0.724203882229876860776585,0.689404245791683800703709,-0.198009379131855262068385,0.0761075487845464249136995,9.7514056074016330910581,0.0224484258039007421314803,0.00621714114780482288158403,-0.00705810372913034771158447,-4.22774427327952651012311,3.74397069929100867469174,1.1986594083385770925787,1132.96295278911293280544,1120.97332499777189696033,1137.16722636565464199521,1123.6937243915565431962,-127.565720531950304916791,-611.182777948001216827834,-388.276827288708886953827,-182.042256908884411359395,162.361759283855462854262
