t,ang acc x,ang acc y,ang acc z,ang vel x,ang vel y,ang vel z,quat x,quat y,quat z,quat w,acc x,acc y,acc z,vel x,vel y,vel z,pos x,pos y,pos z,mot 1,mot 2,mot 3,mot 4,dmot 1,dmot 2,dmot 3,dmot 4,vbat
2.79249999999999998223643,0.598320242682687797319829,1.19773387603170977655509,0.191765379405946262414417,-0.00475837987673996109377894,-0.0660688079420686663612017,0.0210097455092029643253237,-0.00114555014171584560941919,0.00576301771307797389143346,0.0546727159805396531466748,0.998486825592921012351155,0.0216841091165989388600543,0.0249821653754404085501228,9.89769493784576681605358,0.01861557758331565740062,0.0124366831885475911945171,0.0157414519121253544675643,-1.68302251350144294050892,3.48269335856328732248244,1.22538485370777450178537,1103.81369162957230400934,1101.92187048941923421808,1115.88831701094227355497,1093.47525460441897848796,235.993736275764177889869,-136.596662571767581084714,33.687597392509623261958,-203.143853896612881726469,164.201945792897475939753
2.79499999999999992894573,0.480025687509482656967208,1.29122296889979693013117,0.102420200730502591879301,-0.00392261926280435078290276,-0.0623945252534455346848929,0.0216229975511960589851235,-0.0011448820309754655262513,0.00573640568460833093905604,0.054705912621136075502104,0.998485184644989476332455,0.0211442567385268440083301,0.0244444915650256083816672,9.8981205125945130873788,0.0188363818256465850864423,0.0125655338431560244238927,0.0159023056339805471393056,-1.68298010246083640240045,3.48272449682519891211996,1.22542951099416153049049,1104.37780292175875729299,1101.68704224149291803769,1116.02564010644573500031,1093.22337387372090233839,224.80236231240749589233,-62.2641203802699791935993,100.262827741337190445847,4.87910818274041435671506,164.201754948714125248443
2.79749999999999987565502,0.368445931532507264805076,1.33773892913780900748577,-0.0364362520105929940661404,-0.00325351071435036861070889,-0.0579625545496328178907142,0.0219188096046949096318279,-0.00114529497148918471376156,0.00572722129150039001993511,0.054730130275713946563787,0.998483923645279602965275,0.0200531448246736923590738,0.0236431812238503125112032,9.89856787653227776502263,0.0190531504853728335391327,0.0126971223135524530212237,0.0160560655293133409948769,-1.68293775303675507970524,3.48275762710967473623214,1.22547145983955729775516,1104.93770344113431747246,1101.61054988751789096568,1116.38963114964894884906,1093.49965014533268004016,181.925122700873998837778,-6.29479974313611201353069,173.144199083332892996623,180.673203681259650466018,164.201560714088344639094
2.80000000000000026645353,0.312036562959572938424913,1.3395423523934404386182,-0.163433646002777405170647,-0.00302436033291618574722626,-0.0548645922605018113160646,0.0216959207594531570950647,-0.00114877519061549809506473,0.00573230809041699179706697,0.0547441754730853338828389,0.998483121486785085707538,0.0184862106612238008551685,0.0225400247027274999722657,9.89902735872972527886304,0.019265648321493491351708,0.0128277543571145326295468,0.0162079792315451172435292,-1.68289528718629188830391,3.48279343624212689434216,1.22551128763581718139619,1105.28742853526318867807,1101.65556824277723535488,1116.8913611018624578719,1094.12673989212726155529,116.185406963760556209309,23.3460552205981599627194,240.114763322100941422832,298.90968097454589269546,164.201427039583933265021
2.80250000000000021316282,0.298408214797245274763071,1.32803114387692255959905,-0.282822853863083034653414,-0.00302212203951723532013851,-0.0524224871849136644930134,0.0210381072971306329333352,-0.00115767036876226721633931,0.00574720486994763097438055,0.0547519578005809318121955,0.99848258551202784261136,0.0165470652038737162103921,0.021096068671423773288609,9.89947851279661783507891,0.0194734845507644714623918,0.0129531897747769599721357,0.016363469421043157214779,-1.68285226302819723720461,3.4828320885720587263279,1.22554914457890018475439,1105.51863047595315947547,1101.72728016362088965252,1117.59020496625953455805,1094.9941985502055104007,78.52567805212115104041,21.6485289714460193977175,337.108749615625015394471,388.351572074779255672183,164.201321671863240680977
2.80500000000000015987212,0.323359438477348493101715,1.31918118247182292179787,-0.396078353675541949829864,-0.0028705034212958913455993,-0.0496874096602790069066025,0.0198766019644883856765105,-0.00117653407829767229532403,0.00576260606991143686100854,0.0547584234347201631587509,0.998482091823859274626329,0.0144352053650501632731107,0.019231454729579947060536,9.89989034374820775497028,0.0196761467830271728762792,0.0130690909350831933888326,0.0165276659036084488940688,-1.68280849208379734704977,3.48287374995811749300856,1.22558517480284234757448,1105.68005692552378604887,1101.7638108876344631426,1118.57690484994054713752,1096.06849775250111633795,42.6364470225971672334708,-1.21696814467216296584695,366.693492914745206689986,364.857397817066669176711,164.201226848566705029953
2.80750000000000010658141,0.363318980368234456523879,1.31949279821425147218861,-0.451831974183413531687137,-0.00245138979994399082082412,-0.0473682618474009151099402,0.0186206810283535383054865,-0.0012062734579240815772222,0.00577195525475871027559771,0.0547665299722851911523591,0.998481514636420097730252,0.0123020058126140710563767,0.0169488658883257120590926,9.90022136069659097756812,0.0198727537825390231096545,0.0131717331774174935959953,0.0167051602019805504883987,-1.68276412745194270392801,3.48291806744783860594339,1.22561903426392326821315,1105.73181271106614076416,1101.72119532289752896759,1119.42367243083322136954,1096.81848553929080480884,4.53314167211838725535245,-33.0034281680589387519831,314.439187492650830790808,238.887428365392764817443,164.20117336739573943305
2.81000000000000005329071,0.396725946853037247930018,1.31781833265470682547971,-0.45464192167119399368147,-0.00149961672021313679840915,-0.044834445643888262700294,0.0171048623593725683533773,-0.00124195042653323355769102,0.00577026685844264815294924,0.054778678990340286258931,0.998480757394797246995211,0.0102762478878266824700027,0.014374560751950241424546,9.90042120296472916152197,0.0200622072541273982482224,0.0132583894567898340210998,0.0168995258066909348482199,-1.68271893466220334723005,3.48296348550521317477546,1.22565100261594350783412,1105.70272263388437750109,1101.59879374679417196603,1120.14910078740376775386,1097.26293489432805472461,-25.958336968779448739042,-58.4100124214741001082984,247.661405786817169882852,116.810454303324817715293,164.201145425645506747969
2.8125,0.402431298261747338873562,1.29787033098323401070218,-0.408067963010978751459135,-7.40190268882641818530901e-05,-0.0418218231664218564880287,0.0155067093119624025560066,-0.00127752800527989175509436,0.00575047725463192788836198,0.0547930271212909922318168,0.998479969847878345845515,0.00853066123232823492195109,0.0116591364633622952134973,9.90043333291314375799175,0.0202432908092208992123506,0.0133275588883672857498652,0.0171129438253656528112767,-1.68267188685415436388837,3.4830092481988605968013,1.22568204386042278741797,1105.60202102622224629158,1101.42914526079016468429,1120.66197945976728078676,1097.40253781080741646292,-58.8696454404738531707153,-70.8790755395072267219803,132.088732929426527107353,-12.6039540820786850616742,164.201137938107706304436
2.81499999999999994670929,0.351792184631632420810377,1.23057653548231038520555,-0.302883167197634806111495,0.00175425117162355962210918,-0.0380826689360013390106552,0.0139294657040533662040183,-0.00130611856164743449920662,0.00571402888032583339966708,0.0548057386346909800045601,0.998479361110977681192935,0.00707199662838588899438363,0.00898214486867387681967578,9.90019686379571517420572,0.0204145235810345125615495,0.0133789688753046549091197,0.0173463432360324090741877,-1.68262242100518344400939,3.48305510741136226116055,1.22571328778249499791286,1105.40837440668201452354,1101.24439836909664336417,1120.80954445205088632065,1097.19991512391766264045,-105.335041531136511139266,-72.01806853959323007075,-34.021642101652830092462,-144.412692373683398727735,164.201154237499594046312
2.81749999999999989341859,0.210608743283389632239277,1.0696367310609142808886,-0.122954125212191026084163,0.0041374026406981361317361,-0.0331223952684962519299461,0.0122951462228878590637882,-0.00132834607818090835902602,0.00566217211771766117806015,0.0548150915174097225213146,0.998479017176675864853053,0.00590332143857789926055801,0.00637525300350362533752246,9.89965034588849057684001,0.0205747879410813107325939,0.0134130769339979930010465,0.0175991905480960934837764,-1.68257090549017940261933,3.48310022684095788036984,1.22574645581653562942392,1105.07534581856657496246,1101.0690549180922062078,1120.49187124925902026007,1096.68047434893901481701,-134.24379929379315967708,-48.304100421456617198146,-196.397893979432950573027,-212.56109454434860595029,164.201200159931659072754
2.81999999999999984012788,0.0305636949247954370356695,0.865127143248440866329929,0.0502944986378514036218235,0.00586431725276494435900032,-0.0293084298193634663898255,0.01155981808162763468939,-0.00135086980629835055368881,0.00559447194009433414196852,0.0548224813590545076436022,0.998478858012873171645651,0.00505422422128281451092491,0.00374790597040239141513052,9.89873499121998001726297,0.0207236660137998726649577,0.0134309523921406423485614,0.0178694766774553231991618,-1.68251835126159399180779,3.48314453898086107130894,1.22578319543366731636524,1104.73715541021306307812,1101.00287786698936542962,1119.82755498215374245774,1096.13710965119594220596,-138.581067578879554957894,-4.27438838719325087112111,-328.86358012590386579177,-212.26390287737035578175,164.201259567036373709925
2.82250000000000023092639,-0.186074332477396714446982,0.607362466959984415026952,0.209991464825385859560569,0.00640600477489681758430651,-0.0266102389534372055224232,0.0121993975322233043356857,-0.00137645786994752459229951,0.00551679037720655823795468,0.0548326327564552171156542,0.998478591882964394699229,0.0044327439255135575590927,0.00109051376700561482302465,9.89739710146523954392705,0.020861333160470289099786,0.0134344664693953445844254,0.0181540507333912831677836,-1.68246576783841650382101,3.48318787565697007835297,1.22582306542858288089803,1104.38244048067213043396,1101.04768297615623851016,1118.84755334862938980223,1095.61915483455209141539,-148.30157254854293569224,44.7639710400350665508995,-463.584712551678933323274,-199.275697252083062949168,164.201339922025397299876
2.82500000000000017763568,-0.433209631977091280674586,0.285114710996913545137943,0.339196914414767847212318,0.00503680924839001141479766,-0.0252820527609552564429762,0.0146411512668792598290679,-0.00140646044521336747654128,0.00543287977015711152917188,0.0548444609967074295231448,0.998478264521004965637019,0.00398782919376489825014076,-0.00158497731547812756303095,9.89559181539612531253169,0.0209886015109773914344427,0.0134264129353361665736299,0.0184487467653534457923126,-1.68241400392794804297125,3.48322947618320899465516,1.22586556131784463197221,1103.99564754747029837745,1101.22669772218955586141,1117.5096314193951911875,1095.14073116493545967387,-129.868951922938350662662,81.9653648315597109785813,-482.013681341196672747174,-145.062217490206791126184,164.201459410794910809273
2.82750000000000012434498,-0.585945583505680267499827,0.0484100696220317802676014,0.37273879916415103563665,0.00267354751669952525605645,-0.0257484147417863830364926,0.0171810241867061640197445,-0.00143927475889004210553301,0.00534447593928641818267211,0.0548579051051673594052716,0.998477889803763618559174,0.00370838434779863224122209,-0.00421594722360795447213544,9.89328566617021643025964,0.0211069759534621252672348,0.0134100758468095049291691,0.0187486819958027801924505,-1.68236322525748849265881,3.48326894718361845804111,1.22591071827777442493357,1103.73309572105745246517,1101.45750980031402832537,1116.43748494192345788178,1094.89384374710107294959,-93.0994599496918340264529,100.965834925911948971589,-380.139918482617702011339,-71.8294215808797957834031,164.20157735898411033304
2.83000000000000007105427,-0.646034364840645913830031,-0.11157484760906827281346,0.328709924924651231137318,-0.000230856905750541721057678,-0.0272665347836319668650695,0.0191111393315499845935168,-0.00146788743460396671480783,0.00525622245986128062977816,0.0548694271592265261916488,0.998477674179741425675161,0.00352792750483861550225839,-0.00663598323826016835147446,9.89045819088211075609252,0.0212181492310792238487061,0.0133892576117209480962567,0.0190486767876136275923216,-1.68231293514739110861456,3.48330635379855557687279,1.22595790575058694038546,1103.53015024772184915491,1101.73152689681910487707,1115.60893182698214332049,1094.78158405703106836881,-86.4983606681580852182378,119.842464468186165049701,-276.257291839925983367721,-35.2859938656373088861073,164.201713368313306773416
2.83250000000000001776357,-0.59489800187021224520123,-0.188484569580266436705784,0.214560832336473605863603,-0.00383878588184585149006844,-0.0296163236992865626373561,0.0201717766938757335493104,-0.00148533971406159372510847,0.00517332685557031837775277,0.054878736607283144788294,0.998477655134084041144149,0.00336455668302280269665872,-0.00868584251846385609063805,9.8871034116132516800235,0.0213240698904014099046567,0.0133675017864904269876414,0.0193435549781165207205991,-1.68226218723147558087305,3.48334251636127234519336,1.22600617162915792590638,1103.30060391771667127614,1102.05672212265494636085,1115.05619848272385752352,1094.71741377777289017104,-95.2380920346079022920094,111.503116304450131224257,-119.719642283191944898135,-27.4708953608302586246737,164.201896282926099956967
2.83499999999999996447286,-0.458476991065179806383867,-0.158544901763976925357369,0.0982882652209700197198927,-0.00653130039586405624491006,-0.0315530994024522393193166,0.0200713580685331904884805,-0.00148764046457848042939731,0.00509936445947913128545759,0.0548900821586027834464439,0.998477638183578153352471,0.00316090255752649040843494,-0.0102731708811690889554535,9.88323063086167152846429,0.0214269650105821142516138,0.0133476645129730429190085,0.0196282735138638385341547,-1.68221153444576554392142,3.48337739542833402239808,1.22605581769129368119309,1103.05395978754881980421,1102.28904247834134366713,1115.01033361556619638577,1094.64422958022692000668,-127.670773224011099955533,78.623843725928821868365,60.52013929611477749404,-49.9614131024838314942826,164.202064269179942357368
2.83749999999999991118216,-0.259623770461005376475327,-0.0590011343540180546729523,-0.00656605393769522927005511,-0.00803345412661064448012205,-0.032592785187238140776067,0.0192576098101796683303988,-0.00147567506017504362740567,0.00503874184365850005806742,0.0549104701332238029354293,0.998477276912543065812145,0.00283349508086281481888946,-0.0114067762469201808978037,9.87886415062885703264328,0.0215291264250200321817008,0.0133317065152341127781677,0.0198981711191665161519992,-1.68216246412386705166853,3.48341096939865479953369,1.22610735168275875039967,1102.66225005159662941878,1102.44984134128458208579,1115.35879917920442494506,1094.46760671226047634264,-190.820664400739104848981,50.3058949279431359968839,186.293606195844745343493,-95.2241670662281052273102,164.202247370366819723131
2.83999999999999985789145,-0.0486635405306541368730677,0.0624192411500444979677305,-0.0854966193672332813724424,-0.00803411278550624462224672,-0.0322683830453868308874021,0.0181096399506251344579955,-0.00145372105172787268595469,0.00500024177988974902198116,0.0549478851451374594727639,0.998476143392696413592091,0.00220496615557934372287008,-0.0121623367940709315587755,9.87404247060286088810699,0.0216325173158411383778077,0.0133206560873162706964967,0.0201492071011729750873442,-1.68211658159549548585687,3.48344433653967300301701,1.22616053182550799327544,1102.09985646554514460149,1102.54057195298105398251,1115.94180164654540021729,1094.1681087448957896413,-270.353181324735430735018,20.8321203452655510091063,254.821144383032418545554,-149.78217574988673277403,164.202442230204354700618
2.84250000000000024868996,0.126986059083842695027755,0.163660571237338015038176,-0.128109507899116487061875,-0.00668641306045237790445235,-0.0306560468341537037395561,0.0169666938995961108505028,-0.00142862281476194502918831,0.00497883458333010439633703,0.054998449611573178852364,0.998474507343565242933892,0.00136460909566549909444078,-0.0126845426896976479907986,9.8688191778465093051409,0.0217387728836401401821821,0.0133150823580783506105973,0.0203773344824156876775589,-1.68207275929208344145138,3.48347764411235560899627,1.22621508384290689441798,1101.31048414497286103142,1102.55400194301091687521,1116.63290490111967301345,1093.71869583351099208812,-392.811845548540873096499,-4.75542981835101041809821,275.734356920729226203548,-221.332858392619129972445,164.202650325599080360917
2.84500000000000019539925,0.24941798599597642116521,0.219285780062160762238221,-0.149187410038490009256407,-0.00463863710346144441504235,-0.0283681805416230933825084,0.0163241388345456671371547,-0.00140246203415140863364485,0.00496249295616329588048954,0.0550583515083845481674629,0.998472659835637377234718,0.000542133927520539737887617,-0.013033889456853164565131,9.86326123519105024683995,0.0218488831835396586644737,0.01331490354842901346899,0.0205786997310107300229731,-1.68202912579451457908419,3.48351112560766784653765,1.22627103969467277089223,1100.13579723780230779084,1102.51679480388929732726,1117.3204734311491392873,1093.06144445293261924235,-455.070705728858854399732,-14.8007762594264455913162,191.10132345677308762788,-245.804799248213157625287,164.202914113972070708769
2.84750000000000014210855,0.260517706870122933704437,0.19923359012871980078252,-0.158055764835696888059857,-0.00290941630321370214851129,-0.0267061945896247959764125,0.0166304916189006259108485,-0.00137357341957383585588637,0.00494016490250769827602406,0.0551222009721292691142303,0.998470953017217777158976,-4.98064241795867501672035e-05,-0.0131970027969667644957008,9.85744630503113938857496,0.0219626270040316172449391,0.0133194949094665969491214,0.020750111133448108369226,-1.68198348503061723135943,3.48354648216058571108533,1.22632678547066031882196,1099.03513061632861536054,1102.47999806171378622821,1117.58841151840351813007,1092.48967183726995244797,-442.928835287066590353788,-7.7138689034656460208339,12.3910507123585293953738,-211.855982672936960398147,164.20314476359084210344
2.85000000000000008881784,0.176502368095757589117056,0.118297531552374671215411,-0.173397634959501223406164,-0.00103275238680588144109251,-0.025627730368050584408568,0.017346602613679769355759,-0.00134449434836302755824633,0.00490368147404331242850128,0.0551834129189518601821263,0.998469736967588117337868,-0.000260828195640189219872696,-0.0132400325857430587600527,9.85145990747227173756073,0.0220785834645696905920165,0.0133275084924212843667801,0.020889371949711004611272,-1.6819345770899867265058,3.48358464646819943055789,1.22638268668589600629559,1097.92115306136702201911,1102.47822545937196991872,1117.38242868471093061089,1092.00216453956795703562,-467.574614703890745204262,9.92907293575647820205177,-207.124021116219267923952,-170.239353414357537985779,164.203385565002122348233
2.85250000000000003552714,-0.00880886096743891539029292,-0.0202862793601427220113731,-0.198659665348556946362635,0.000968138409658329075410665,-0.0253981752530449307603266,0.0177243881204170207477322,-0.00131945926761013157708924,0.00484979138913011528083663,0.0552396244564754557160313,0.9984690295687548289294,-3.93102498918232456937005e-05,-0.0132559262844559582611437,9.84539277453377970061865,0.0221945707859224385105623,0.0133370354726124532018794,0.0209952611239083188066079,-1.68188174118500621823102,3.4836257585862790975284,1.22643932731298610505632,1096.69725754280921137251,1102.52964342639256756229,1116.55279141282244381728,1091.63847507019818294793,-417.95921729677485245702,22.60446010159333241063,-382.302212106204876818083,-82.2096339962644577781248,164.203684991708968254898
2.85499999999999998223643,-0.195104237834251348360226,-0.143812992051701338258596,-0.211761772769053058240729,0.0015736924651949910514831,-0.0260333574941262919921758,0.0170901065913229115167393,-0.00130275448514127452706579,0.00478288011823578291387138,0.0552898229259895304665839,0.998468633687899731476989,0.000516777031413367948786686,-0.0133284189557874317016983,9.83933795256314347454918,0.0223079941526551743524731,0.0133461798681692288964795,0.0210676085977496603540704,-1.68182518213736353906995,3.48366998066334199180005,1.22649540889902497475816,1095.83135697488319237891,1102.59124775987993416493,1115.47091762417994686984,1091.5911163695866434864,-311.477770759945371992217,13.3029229783008418053214,-466.254057489605600039795,43.4255587584639357601191,164.203942298110519004695
2.85749999999999992894573,-0.349412791604030048553398,-0.247399534509503082890802,-0.195203939380710123074891,0.000595887358920133220277493,-0.0271047892489527063319965,0.0154590617279808419104459,-0.00129828289703065005884774,0.00471323513073488003372047,0.0553320323157284882364948,0.998468244238570057369486,0.00119501999591948432355437,-0.0135251085885564979044426,9.83338828332346714944379,0.0224164195712961769602067,0.0133535480464806212419493,0.0211071883345329593117956,-1.68176676225427201849527,3.48371479718914978107591,1.22655103862931036395878,1095.13986868900951776595,1102.59615804128407035023,1114.22152112537446555507,1091.85560286399049800821,-271.475991898302140725718,-37.4934415134711116479593,-517.665628925089663425751,186.675579788656591517793,164.204206554813595175801
2.85999999999999987565502,-0.416863901743565801183422,-0.326849752754617473016197,-0.12972175423507814606694,-0.00207787076871015358170425,-0.02860110143422894823928,0.0134248290893610004725911,-0.00130392300731550021992977,0.00464993786581921388773031,0.0553638576809830293412595,0.998467429568306696907598,0.00181425162078661939002444,-0.0137945335517553491905263,9.82763468445831733788509,0.0225183039118949900048161,0.0133586502323771189743029,0.0211151822973949486461631,-1.6817082980210218412509,3.48375765687184646424157,1.2266077022026367071561,1094.47397701539171066543,1102.40378055231258258573,1112.88258947955455369083,1092.52449426852990654879,-224.36277029372226365922,-124.659923266190844515222,-417.130060027301681202516,293.516999861120154946548,164.204530371375426511804
2.86250000000000026645353,-0.3273222766908138181563,-0.347881287383912496391503,-0.0461611776270180809711441,-0.0051640456891933221236779,-0.0298811863857429832469492,0.0125639539060329128578042,-0.00131243856960313828342868,0.00460105339369425332674002,0.0553835628947995164961249,0.998465819615372174311574,0.00221918074392372932646111,-0.013984381330841027038514,9.82216334811896807366338,0.0226131259440300186325246,0.0133617156140687001059097,0.0210932505252012410246198,-1.68165107511470268697451,3.48379819133826096333451,1.22666620052262631546114,1094.0180548375408307038,1101.97285842495307406352,1112.13587082523781646159,1093.32318786329619797471,-167.302045674148388343383,-248.107239630491307025295,-188.713471094102715142071,348.205904607834042963077,164.204804829158234724673
2.86500000000000021316282,-0.0588477690276924536583181,-0.321381013510258328746971,0.0404452617455048207828483,-0.00839895640880938820771462,-0.0310948674622007030510229,0.0129913902605525086175753,-0.00131903540123113325634174,0.00456327368445138756292145,0.0553901950667809589434754,0.9984639373872782330821,0.00247445744285479385382587,-0.0140014880268943247426661,9.81705375354920484198828,0.0227016745238484488056407,0.0133630613205743681293214,0.021043476568928722036933,-1.68159463655716501229165,3.48383741691484383196098,1.22672522162063168948976,1093.63746678702091230662,1101.16324435416004234867,1111.93902212408397645049,1094.26552379156919414527,-139.178695943704269666341,-391.32162548413288050142,12.8396901372073450886546,380.870021091058276851982,164.205082888436379562336
2.86750000000000015987212,0.348014714503557531788402,-0.260616295269800846146069,0.107232268067619804230439,-0.0107406903729969863819926,-0.0321953919812533392863507,0.0142248344983475823871677,-0.0013189960835410096274406,0.0045291834425873747291269,0.0553861645539426364348579,0.998462213783928520527411,0.00272343623676618573625774,-0.0137577841720415029042046,9.81237555788483639673814,0.022785609626954240330976,0.0133628347411031550562299,0.020968772412222867057574,-1.68153892342002619919583,3.48387646088800639887495,1.22678358188439085019183,1093.32216135782232413476,1100.01625029753245144093,1112.20006927592385181924,1095.22753796875144871592,-104.236980117641394372185,-527.999871151962338444719,185.812035659595807146616,365.552876350883309441997,164.205363037644701762474
2.87000000000000010658141,0.869034345858202939005821,-0.170914765254793543647338,0.134242423706730201748982,-0.0105183794066658117122293,-0.0329603540392690574911683,0.0157511573456786471703062,-0.00130839573755004508377742,0.00449574807397416092991094,0.0553767030459085540794462,0.998460734644901815038054,0.00302042973061247832511356,-0.0131754670509096599023691,9.80818555902438404814347,0.0228669151473705825616811,0.0133609181932139199633358,0.0208732730464645209467189,-1.68148406644427583778167,3.48391618354359033915557,1.22683958838453088802112,1093.11628188643271641922,1098.52324499840028693143,1112.86808230238193573314,1096.09328817332357175474,-53.2603640060654015542241,-697.415956000273922654742,326.855979740191912696901,333.336784978844491433847,164.205644606302257670905
2.87250000000000005329071,1.52218426681966878533103,-0.0518917079800844394110726,0.122744551602677623436399,-0.00636766065106126200739967,-0.033125061490152346577176,0.0170780807218928534774172,-0.00128980429372346208291567,0.00446420940395832969299628,0.0553635013509747517246318,0.99845962047787462090298,0.00332659791546120048311153,-0.0122992517882958510982983,9.80452573687658635037678,0.0229475647506365530714501,0.0133570263641283465405607,0.0207622931062535522050982,-1.68143045010496861024762,3.4839567852053741070506,1.22689200470977821666452,1093.05585953779200281133,1096.52917051753115629253,1113.83434917462477642403,1096.89422189364563564595,18.07806265978835824626,-723.222892995742768107448,334.055674048256889818731,242.077692285288947005029,164.205982685856895386678
2.875,2.00937364781455052309411,0.0398169517768968764248605,0.0923573356880230261767295,-9.23707600080276197999571e-05,-0.0326241992229242480649809,0.0174562548616249875454987,-0.00126856644595545165442319,0.00443399610735079573176076,0.0553484727071577448098694,0.998458884196110618702846,0.00363319660166797758771295,-0.0112304274269387858314895,9.80142293515817897286979,0.0230297059219198609059109,0.0133508094199510287530819,0.020641539971664804586915,-1.68137843978873080530434,3.48399805550699648293289,1.22694053426297733366823,1093.20667219973165629199,1094.90713053342165039794,1114.53836067262318465509,1097.30367663474999062601,110.26330752988776850998,-585.873512032379721858888,217.127443531221700823153,104.99191322715201124538,164.206263513072741488941
2.87749999999999994670929,2.36455966276225293398738,0.109041882056879993467824,0.0667832481919515136281618,0.00754556464451343160415586,-0.0318419997340871410718144,0.0171260463937972402803656,-0.0012443551789846315266258,0.00440744283432553760754269,0.0553354735561606969618254,0.998458356362238008685495,0.00387853686340769443496868,-0.00995698943752565575338043,9.79888826761475328908091,0.0231152966410970370225719,0.013342264376033773076724,0.0205165685119544430325966,-1.68132831532299675814102,3.48403894773847166987935,1.22698667349594314757155,1093.60717607544142992992,1093.599802957369320211,1114.91998639228086176445,1097.41918145978138454666,237.169298856320494905958,-447.686705258011443220312,72.6024246817830345435141,-12.5995401981074746089462,164.206542102459252419067
2.87999999999999989341859,2.60095272934926713404025,0.160770252328966051225123,0.0681221978452678372795148,0.0165435977351425372861016,-0.0309978171426552664979859,0.0163330103059518665087335,-0.00120931837655652405123796,0.00438877561685249543976806,0.0553302761382637314779842,0.998457713190280204962335,0.00397043613725336225206419,-0.00831930129389683338525519,9.79691733764521544003401,0.0232058567259984110942028,0.0133318533072320413029876,0.0203922652724681310876242,-1.68128039501783277387403,3.48407892229707583098275,1.22703224886826700590348,1094.3925186940132334712,1092.66869700713164093031,1114.9013727960320920829,1097.24067893375945459411,335.549188956072498513095,-209.596052602050718860482,-81.0223537363089292284712,-109.606864563058991279831,164.206872289026819089486
2.88249999999999984012788,2.64025756036128989023837,0.180690842236565590850361,0.105833009816653819679111,0.0234086408766314875429249,-0.030489417006042889707329,0.0155939506320755313234505,-0.00115961781899782500997176,0.00436923816042388089148085,0.0553257095160734416183779,0.998457357995094607616693,0.00406563375752315436795215,-0.00625289014349279283211391,9.79549184695263619460093,0.0233023191100914621454177,0.0133206450108132781057213,0.020272324442492849205788,-1.68123256799025133645387,3.48411834029909739385289,1.22707826744445736011357,1095.28492202022175661114,1092.55182269435908892774,1114.51487462359932578693,1096.87114713696610124316,394.483108886671061554807,96.9347063087687388360791,-208.680951662776806188049,-180.049619728457969358715,164.207142872135079869622
2.88500000000000023092639,2.53456845101480787718629,0.184025986705043692603923,0.178624688294093697527032,0.0296689910781612747880942,-0.0301782694404369861151949,0.015103719337363048780265,-0.00110115213059951621774046,0.00433829352440880632035825,0.0553185474896156284541071,0.998457456249784547352988,0.00434496657378392187043303,-0.00388853165286893662222489,9.79457954476069581062347,0.0234048103348189831529602,0.0133092592074213252745229,0.0201599174578486022013646,-1.68118274248740151577408,3.48415807749526340586499,1.2271243117759911278597,1096.36493423844672179257,1093.15337053867551730946,1113.85796803771813756612,1096.34043083511710392486,493.975310454164457496518,407.663321417494216802879,-317.689265648983962364582,-255.49814630983840402223,164.20740732647217896556
2.88750000000000017763568,2.26949084382511134805327,0.177294107726084837484137,0.284535775734141571646774,0.0367291335517747480343687,-0.0299362741623527793544124,0.0153869793545144441238026,-0.0010408918503948510602547,0.00429807832513843298544165,0.055311267366103061826621,0.99845779747079876909055,0.0047411876925868567944633,-0.00136760782303169993456837,9.79413481950643749485153,0.0235122234934178712950636,0.0132981450275189254373043,0.0200581587157111947139487,-1.68113068018253342117418,3.48419883999718305034321,1.22716991839320477275521,1097.75479857249274573405,1094.59013930144669757283,1112.92642829535429882526,1095.59365640541682296316,501.499817378600482697948,611.92333231826012251986,-344.064145038199114878807,-283.458420820449305210786,164.207715949637986341259
2.89000000000000012434498,1.95640914431464474354527,0.166369206895441684723735,0.364135549312081918671424,0.0422211740356482276292915,-0.0297534432706149550018626,0.0165163096576835498330293,-0.00098203444799391378591813,0.00424628633547359957828293,0.0553070378679887605932741,0.998458168850440586084005,0.00528010770248315414177043,0.00123344728198115666933932,9.79410240216964389503573,0.0236230700862499129466521,0.0132880315164504766295428,0.0199692182527404921144054,-1.6810758900359716871975,3.48424059717477030417854,1.22721542871118538542419,1098.87243332533967077325,1096.21298720026675255212,1112.13764731252717865573,1094.92313873101488752582,407.707095887062280326063,684.388332585163880139589,-302.146794997458584930428,-271.011669780961142350861,164.207964650812641593802
2.89250000000000007105427,1.57954782812761806987112,0.150381726035331175772569,0.406399993623282662635887,0.0467811430692012600318641,-0.0294890734880732391376412,0.0181750472139016704120618,-0.000925795212711458780086016,0.00417875150558751334156637,0.0553128117275920871964701,0.998458176943293862493078,0.00602890016863213279441069,0.00387048998219489525512982,9.79441906924988714422398,0.0237358146047534010469882,0.0132798110771126225831962,0.0198944974482595550446806,-1.68101791367718211844817,3.48428272847427145109123,1.22726105074013158713342,1099.79333405192801365047,1098.01208096437244421395,1111.41569432036703801714,1094.23859805651204624155,314.955481440081143773568,706.60862086134920900804,-273.521696888298208705237,-271.854838037012427776062,164.208203065923328267672
2.89500000000000001776357,1.17857739519290061203094,0.128297245781196250780098,0.403116786483272149244073,0.050196881920313164704428,-0.0291065313905161833496482,0.0199444599228369955079554,-0.000870676490987118715733639,0.00410501048133058831640652,0.0553328714965808099446321,0.998457535440548382688064,0.00679303675734899137239609,0.00656243437622760095867536,9.79501431929207910798141,0.023848485301111558426479,0.0132749578475732290389066,0.0198353547835437155066884,-1.68095859307882378175236,3.48432443903147870400971,1.22730658030810979575165,1100.4472107325400429545,1099.74603030457342356385,1110.77003882808571688656,1093.56386454082985437708,180.820287814780613189214,632.785856945806585827086,-241.567387488844957488254,-261.482926045988392615982,164.208431825039298246338
2.89749999999999996447286,0.786715038154598644837279,0.0961022840561860935970628,0.338906088608149136387482,0.0521109922748433235240029,-0.0285855490158342384621193,0.021653795189012895600067,-0.000812398105499722981460986,0.00403703450755376388320306,0.0553693289295870486044215,0.998456090929006556677905,0.00733691958369928065586407,0.00938035429799244716009277,9.79581370753277624885413,0.0239594146079595698983766,0.0132754416776068480399164,0.0197926326275468904281052,-1.68090006672772518392378,3.48436459744760851364731,1.22735258190022356039606,1100.69743549100189738965,1101.17601024910140949942,1110.20785738292283895134,1092.93118342628213213175,12.573476473699242816906,518.234421388535452024371,-233.501099466916883784506,-258.629187147931645540666,164.208647550843977569457
2.89999999999999991118216,0.372668402164265055720449,0.0454448987875023385774043,0.199580278669809152436443,0.0526147309106579710857865,-0.0279550430774916092158122,0.023376220327693705142158,-0.000746832283967720656631117,0.00397561484762695704908708,0.0554164803862985944071795,0.99845418289175602577501,0.00764692908017693823152783,0.012375414657292596598559,9.79674230434776482923098,0.0240676280794213069691434,0.0132837086403637810727574,0.0197661699264428877831357,-1.68084208551841562950813,3.48440305375134951049176,1.22739956696236607314177,1100.51007811490853782743,1102.33720241151604568586,1109.60253333075115733664,1092.27071860509022371843,-140.044318240600915714822,319.931105376833784248447,-213.447612179838870360982,-218.22052832326801308227,164.208889523574470103995
2.90249999999999985789145,0.0983825832619638629417125,-0.00270811487444559293932822,0.0489161111736606327160537,0.0519155858722377960834393,-0.0276837717416947709514474,0.0241727133630819483733898,-0.000672896717548362066803336,0.00392131766243412720196471,0.0554696135294180867059133,0.998452111238692929795491,0.00771402325902492691511725,0.0155346612522674794309996,9.79772587069918365898502,0.0241724932333649451809965,0.0133019516773744388843381,0.0197554964363988033726471,-1.68078446090010547031568,3.48444050482735301343951,1.22744673919689994967541,1099.99721389979890773247,1102.77566577598554431461,1109.14061932202366733691,1091.84008078466581537214,-255.321928956601425397821,68.8784803142833794709077,-175.365450023025005066302,-142.178946247476631015161,164.209075723836576798931
2.90500000000000024868996,-0.0925751369044881811110059,-0.0473856658067647804055689,-0.10645476557877184276002,0.051059971940279204327684,-0.0279136543725324801079601,0.023826120887348929688887,-0.000591539008784754691619434,0.00387888005147937796682212,0.055525070801584634760939,0.998450111307385035352979,0.0074487464217018392598213,0.0188063341845653500539193,9.79869264620201718685166,0.0242734058618496902071104,0.0133319527648356125903994,0.0197600845125154092607467,-1.68072763520420997984672,3.48447689202338661829117,1.22749280114611836189908,1099.23346847012544458266,1102.68159481308748581796,1108.72570608063597319415,1091.55982387385279253067,-359.045019320932055961748,-141.019761609176867978022,-163.229938635538815105974,-91.416264374168548556554,164.209244237027490953551
2.90750000000000019539925,-0.235970828247177188963235,-0.0853126702844984180496013,-0.260085925600780698552228,0.050334752372908325712686,-0.0285521597165374826921003,0.0222129736531982494018855,-0.000505874082507914361699075,0.00384791157883867130512501,0.0555802927609531718933233,0.998448378553093651710526,0.00686291384732205106411485,0.0220880204463597198949465,9.79957629542705888070486,0.0243700007837116261466548,0.0133748868062261334899166,0.0197788587029348005008611,-1.68067201728251847114848,3.4845121431706624903768,1.22753776820614501907869,1098.20198880319412637618,1102.07056696793961236835,1108.32446962884591812326,1091.3829994627949417918,-372.673762396706251820433,-281.611077796839367692883,-119.471726486338226891348,-46.7222842426518525371648,164.209424041134155913824
2.91000000000000014210855,-0.298876232542076958331734,-0.0991296748596538074282947,-0.341147500372908529797655,0.0499000027818113159328028,-0.0291222478807890879093367,0.0204767471073001965098381,-0.000420019837991659290756669,0.00382339348816616679538338,0.0556356973509189722815194,0.998446948004687806488278,0.00606113491481968108542944,0.0252511854318165154809073,9.8003177905724605523119,0.0244619829434250188326949,0.0134311148003065840977888,0.0198100279220542914437875,-1.68061737430664570602801,3.48454677531214640495705,1.22758211331794431231401,1097.37009965814195311395,1101.27353942410331910651,1108.12834744820429477841,1091.32621245263953824178,-304.106337056789129746903,-344.513157733452374031913,-32.8958622711077381950417,-18.5620106658920427378234,164.209553740638966701226
2.91250000000000008881784,-0.320610227449879936489907,-0.0949366977812963475091834,-0.366263141685304716155258,0.0494645311983055516180663,-0.0295618043036238870024945,0.0190675462890329619480845,-0.000332774924273219303242494,0.0038023812610100161946125,0.0556906092111636302766087,0.998445879555271753602597,0.00511631465954841962995303,0.0282735124827111702905391,9.80086627496672768700137,0.0245485714306531883910356,0.0135005277861914001896748,0.0198510782950010108982575,-1.68056256998810726877025,3.48458225618187711347673,1.22762649212087704420071,1096.6814571179102131282,1100.3480011792723871622,1108.15999031749038294947,1091.29018940946548354987,-255.39928507847071159631,-399.271806522583005971683,81.4408959384326465169579,-27.1796493985681415495037,164.209660761281782015431
2.91500000000000003552714,-0.314082759143921752542639,-0.0754925677689183977081555,-0.339979200206192322397669,0.048753842610080248831661,-0.0298953491771871068816147,0.017923842133390040926022,-0.000243966483083066958733459,0.00377885096026869858956698,0.0557428698235928402060502,0.99844527341463329417337,0.00416332868396462885129949,0.0311105150675369812596216,9.80118108804144227974575,0.0246285958016270074832921,0.0135823157972223187289762,0.0198986638464551807148339,-1.68050638964539200692627,3.48461971611076837262999,1.22767194469391838218542,1096.09310323274962684081,1099.27718039149044670921,1108.53555192789644934237,1091.1903142056467004295,-173.421222833216290837299,-362.05173366975805038237,195.261307546438331428362,-53.2009167633998458768474,164.209760862041235895958
2.91749999999999998223643,-0.288970100835958032536865,-0.053926869840880332918065,-0.281686657631851133931633,0.047935438683547902660731,-0.0300301185083786566221153,0.0173373113189846557447016,-0.000154888315492329362542401,0.00374212764543537228928427,0.0557963241030212039883729,0.998444825738834196293681,0.00342926920632585091608391,0.0336868624966120619457222,9.80123307942381316593128,0.0247008765023907610192122,0.0136747441476125063813951,0.019948616358309433083118,-1.68044736562913610278258,3.48465984449806676082062,1.22771919059063705503831,1095.81435100374415014812,1098.53774251092363556381,1109.13629685522255385877,1091.02418482564849000482,-71.1101669716769464457684,-240.415389697232626531331,284.812585567812391218467,-84.7059835421095925767077,164.209819110964957644683
2.91999999999999992894573,-0.251717511772594937369263,-0.0351238326092670888334268,-0.197701258465964035959672,0.0469625927882509272559552,-0.03005694035200864866475,0.0170278621206367067331122,-6.93907175205352269890466e-05,0.00368878989986637633585742,0.0558539915138494408308745,0.998444131030858161857111,0.00299836828230482660417877,0.0358892760503110655467829,9.80100408156732072484374,0.0247638932668436534401124,0.0137757458270535166483528,0.0199967387918858902073893,-1.68038484342934091309019,3.48470236976117542226916,1.2277679841158029017123,1095.73755239789124971139,1098.07510344300430915609,1109.95961485573548088723,1090.76678428793616149051,4.70538530285021838750481,-119.375202470930886988754,374.154196181879115101765,-127.527277073434547105535,164.209849333461193054973
2.92249999999999987565502,-0.2070476700338420572578,-0.0243678900927167367551629,-0.076877908824003526877533,0.0458276524205555382818211,-0.0300101828779440436834047,0.0166046624927940408844584,8.49750410569418958240881e-06,0.00362013527178999721181651,0.0559134557961391831515385,0.998442917134274021684348,0.002863062278463161802744,0.0376113908252902126583272,9.80048712501297636379149,0.0248162254410734493814683,0.0138835154801220401338258,0.0200388623044614258561502,-1.68032024687203107582434,3.48474553663255859348169,1.22781897584590438121666,1095.83787793025840073824,1097.94086649856899384758,1111.00706783613190964388,1090.38654844028133084066,62.1551477267488650113592,29.4074652659199422544134,354.780461297171939349937,-143.350392568926849889976,164.209850947777312057951
2.92500000000000026645353,-0.185252119212802074388335,-0.0302298653673014894316395,0.0351184671540838086456482,0.0449400977810993015881813,-0.029933602447879067293135,0.0161124856540620468858815,7.94164946424715949323606e-05,0.00353945167816468574811806,0.055969839472267718383236,0.998440852226391784007831,0.00298179614888006982997837,0.0388467674222769260294896,9.7996859728366167985314,0.0248571543365368255451564,0.0139966908396404431103033,0.0200708596117344616194256,-1.68025486394222056674153,3.48478816197096286089163,1.22787308024595009925406,1096.04832813652501499746,1098.2221407693339187972,1111.73351716222146023938,1090.05003232509147892415,102.228903641609946362223,194.408770909681663852098,211.772073575306677639674,-129.527250366291241334693,164.20982174369163431038
2.92750000000000021316282,-0.204661519708993766553107,-0.0553510447525230805942975,0.148696295950683982090013,0.0443535369726227521325335,-0.0298503109917261921779641,0.0158107415652509117331981,0.000148369639019362736017532,0.00345908031903629413841839,0.056016811482455075577036,0.998437730906804099539897,0.00313947402943712955414313,0.0396915711159527839768657,9.79861334587335264245667,0.0248865984363432560244611,0.0141142611486793512903803,0.0200893755534667338424892,-1.68019067934064181280007,3.4848292865058763112529,1.22793011056194911745365,1096.34902244846648500243,1098.91291035311746782099,1112.06592820400851451268,1089.73891218844983086456,128.653328726252766500693,335.785642739172430992767,40.2063435490171698916129,-116.600338713626783260224,164.209758800105049658669
2.93000000000000015987212,-0.280738358127303244682338,-0.0973335441585845423384526,0.25005878336895914770821,0.0442735688711042574272625,-0.0297917511375897677006197,0.0161537458540987055588545,0.000212394148331266485870902,0.00338189072942264492421804,0.0560485370303380817103012,0.99843437250048960862614,0.00329553148876562257418854,0.0400838196092421841787434,9.79729212261637805170267,0.0249058208682867605887612,0.0142347512473427178364416,0.0200917410772038160238218,-1.68012849328465541098865,3.48486873770090621604822,1.2279886811819893388531,1096.69159478015626518754,1099.90106898302974514081,1111.93454887996654179005,1089.46703063152335744235,138.742353783484986706753,446.161483533897296638315,-174.070673861892004197216,-101.620746012579161288159,164.209666335241337264961
2.93250000000000010658141,-0.44938378903229669880659,-0.157525705267493848493743,0.315586374428603710917685,0.0448981652234617945040895,-0.0298173894411576621832349,0.0174016730842502034826147,0.000265401528469765197494612,0.00331320737525939417594811,0.0560630685103482365172489,0.998431475302983928443723,0.00335500387824171075745738,0.0399120257248826923457408,9.79575194736460019839797,0.0249168002191577468706907,0.0143560240684420161588752,0.0200767335319844281160684,-1.68006869920703594267763,3.48490728699386487221545,1.22804812483022640634545,1097.04273421738389515667,1101.14371777078690683993,1111.19557483469907310791,1089.23080845838694585836,146.205190591266216415534,567.848578953147125503165,-439.12899774300996114107,-107.157639894878698783032,164.209536374178725282036
2.93500000000000005329071,-0.769474359200986945950262,-0.242983621423846329889784,0.330665401457163832255048,0.0457231189668109716528477,-0.0300457556269981551633208,0.0193692360742962095543351,0.000308882348828240179718085,0.00326119416936838197804138,0.0560636153706123505080505,0.998429243209813410686593,0.00317212810854043680830472,0.0392256177250900894826202,9.79402638756593191260436,0.0249219240336411712588571,0.0144754515059569727891686,0.0200444526857025059896067,-1.68001150952419386896963,3.48494586934294137137158,1.22810785295464586219794,1097.42262073311258063768,1102.7403118777954205143,1109.73890389125153888017,1088.93124243204897538817,126.399468660249993945399,570.756732461689693991502,-583.282452425522592420748,-124.241464001945956852069,164.209334582019124582075
2.9375,-1.11652982184869409287842,-0.315516433209391766734342,0.284162414011445207950857,0.0452995115957039104492843,-0.0304908376246958677524557,0.0208019472811726384431363,0.000347685370095108343610479,0.00323127144942225632412436,0.0560579921393632510384641,0.998427472615829869617698,0.0026544373210815250252459,0.0381464343194514582391363,9.79215155338084386471564,0.0249238142011137427112022,0.0145897018681725165745178,0.019996245151256412941887,-1.67995614110990221234943,3.48498623705273313788666,1.22816536861396530255774,1097.67473156068513162609,1103.99750143309529448743,1108.27916257257152210514,1088.6096011383772292902,83.4431003998378884034537,448.476059428513053717325,-560.845164853220126133237,-156.597984090197911655196,164.20912640260792159097
2.93999999999999994670929,-1.49320671009306660259597,-0.373704391513600908680814,0.182066589189065652920618,0.042464796948930301490055,-0.031298709962140021378918,0.021627493605750558458567,0.000384513177075515122198268,0.00322117857234419102674394,0.0560503795543535673906455,0.998426072764898253630861,0.00185264189916001936753176,0.0367552869834198575604844,9.79016489775646192583736,0.0249249573487570937058155,0.0146950456180952992307764,0.0199344877943596343605748,-1.67990191800747168393571,3.48502865567467789986722,1.2282193129572500644997,1097.83983623511176119791,1104.98269217493793803442,1106.93467806698549793509,1088.14825251159800245659,52.2338462316394966933331,331.050547806860549826524,-478.09115023661541954425,-244.85384688592216662073,164.208874686977480905625
2.94249999999999989341859,-1.89552009363626550175752,-0.406324928979615584978546,0.0120531741593947472335202,0.0362431962275441554854893,-0.0327043774483242177808506,0.0219060172376326633969512,0.000419840953237998672654269,0.00322509931456745838757039,0.0560405201262906479953152,0.998425127994161165645437,0.000880011522577779647935614,0.0350944596361658089911373,9.78810309725793104007607,0.0249273101002706158613176,0.0147876730981331520886624,0.0198623792041694446908195,-1.67984825064005338646211,3.48507413240903041184993,1.22826889691395635395565,1097.93590079184332353179,1105.65275417212956199364,1105.88870682138849588227,1087.38533190394764460507,20.0859071324889306708883,140.279419656011015149488,-241.616389933056467498318,-317.581101084222098052123,164.20852042597016406944
2.94499999999999984012788,-2.13413183988151144987455,-0.388970641751194168289629,-0.155122028892962782187226,0.0295137684924460935720347,-0.0340909049059221411215326,0.0217199510904007402067872,0.000458917207547454683753962,0.00323821733464606633171035,0.0560288218705379745254724,0.998424621904626774515634,-0.000168241095565575815573567,0.033308872208262139957835,9.78600004145996571480737,0.0249322050381879239955296,0.0148641052563100520278461,0.0197833460259522649071773,-1.67979372908430746313968,3.48512365651009448086484,1.22831339298765684908687,1097.94026577077420370188,1105.68408927321797818877,1105.72659611732024131925,1086.56034700617692578817,-10.9549975540168702536903,-105.145392428032394604998,104.818477230030310920483,-369.427936322993048179342,164.208180667897892135443
2.94750000000000023092639,-2.23274535506568483356205,-0.314791168717749036964904,-0.332405441897975051368519,0.022112219561509348364492,-0.0352897868875565595692123,0.0212869097951320362938077,0.000502676321468693539443184,0.00325661426350807225657547,0.056016579472758121216458,0.998424453275812640029585,-0.00122222069750298201196159,0.0314669827314363811932019,9.78388668021812080155541,0.0249404169732731426090133,0.0149213103065822423609621,0.0197006526402472327552662,-1.67973842014262175759143,3.48517623250606023432852,1.22835445922408559304984,1097.8811258040732354857,1105.12702720998936456454,1106.41279920753868282191,1085.53819222233255459287,-37.6781635723520622605065,-367.476841166692565820995,473.685054205829885631829,-491.473970589607688452816,164.207793826375109347282
2.95000000000000017763568,-2.18677218532757677849077,-0.15615710068132787613493,-0.536461312718016447576019,0.0135376754657479496379846,-0.0364284486109700961220526,0.0204489894016028107837091,0.00054797487906584172075164,0.00327629309730941052983266,0.0560078027761279143015294,0.99842435587933475726885,-0.00221714248082106185622209,0.0295627373177409502602586,9.78179098256112844467225,0.0249524194421889278228122,0.014957094048125448709774,0.0196167573884416662766128,-1.67968277920881847720125,3.48522990412933575399279,1.22839460548261003580706,1097.75187495291243067186,1103.84670506738439144101,1108.09502138834955076163,1084.10297715322872136312,-55.1624536311931379373164,-546.908887460688561077404,712.722852527592067417572,-553.741500796980290033389,164.207274687195621254432
2.95250000000000012434498,-2.0382763846494449389013,0.0318253382155411559950586,-0.680850984913192625036515,0.00758593868018738858721717,-0.0372151005849044938522674,0.0193247692381483676671294,0.000588611422399425610225976,0.0032946031255178362569247,0.0560068628058166886884983,0.998424037426701604935886,-0.00311931082065398240787957,0.0275349368533223809452082,9.77973805419395247895409,0.0249683809968682321467348,0.0149705379706097079645088,0.0195330343511051079952168,-1.67962683414059821274122,3.48528246273969255497605,1.22843503258324715510241,1097.60531353591727565799,1102.39248277268598030787,1109.97641347017656698881,1082.76948471834771225986,-63.4527978572818796010324,-620.589329784902020037407,774.63435830597347830917,-545.027132792859219989623,164.206796261273012760284
2.95500000000000007105427,-1.8302768175895614000126,0.266954892545249400370722,-0.771214251013738971707312,0.00350727900626882560172759,-0.0373369149443744594019101,0.0175082104344481959135038,0.000619972407036367819874179,0.00330460184546472720071297,0.0560152016058342513971091,0.998423387532748396466786,-0.00381015746317595743741791,0.0253494187239838991709817,9.77775128079738564679246,0.0249883473564142602474369,0.0149623160285602893604384,0.0194493157217299657280041,-1.67957053411362688954966,3.48533222896499150778027,1.22847716957481711830269,1097.43461096362602802401,1100.74375841845994727919,1111.96819317987933573022,1081.37784148926448324346,-68.1926483078328544706892,-656.453434577056555099261,753.692984568776978449023,-546.55165536402159887075,164.206270632123590758056
2.95750000000000001776357,-1.61732048696544938870545,0.526153292180969622826581,-0.794510793650228031026472,0.000794978171598435551931106,-0.0364932012324134247283069,0.0150014299947935584450542,0.00064129525985593175373134,0.00329612883592493750850583,0.056034354632900906789672,0.998422306938695158784469,-0.00410391140132587012301357,0.0230423155958887279637359,9.77585296946386783645266,0.0250122998030329474206113,0.0149343350995108630624442,0.0193640595570532744740255,-1.679514105181023619906,3.4853783145187295922085,1.22852257703846179381912,1097.26435029437811863318,1099.11021559980076744978,1113.74487839302037173184,1080.03672644152766224579,-61.0373700789308983871706,-608.775938920520502506406,596.175146721829150919802,-493.297279084537478865968,164.205706385517942180741
2.95999999999999996447286,-1.43751016343652882056858,0.792023517084561867740433,-0.715538222611066920819667,-0.000951191247443026891353335,-0.0346277787448859009078461,0.0118382803735269173661671,0.000655154715668222514986241,0.00326695412208926174238433,0.056060342460582147927628,0.998420985047414832891377,-0.0039651358555250829085459,0.0207198666299477016194963,9.77406377867003506310084,0.0250395292808087560620933,0.0148895474027806121869455,0.0192753091060771132581042,-1.6794574371745847329862,3.48542149877533802282414,1.22857144162803133546902,1097.12942411323138003354,1097.69987872385740956815,1114.94906891348841782019,1078.91135509384184842929,-42.9449015146483432658897,-527.011090713051430611813,347.200671362596153812774,-402.517997533786399344535,164.205096361045548292168
2.96249999999999991118216,-1.27790516834058509587635,1.092271216583905246722,-0.495294470737780156976982,-0.00293399683252681692940955,-0.0317901624844487834531392,0.00807653904258733186527497,0.000662129327197748186913107,0.0032199206744608320496237,0.0560853490835833343175487,0.998419820101406840784364,-0.00345790211447088297047614,0.0184495713396546495710382,9.77240363020561275675391,0.0250687593208336091665789,0.0148311849783765593163709,0.0191812688568103600905701,-1.67940046149846278211726,3.48546345182997674427838,1.22862361942710762718889,1097.04962578680488149985,1096.4751601462355665717,1115.48088174983331555268,1078.02413645385877316585,-13.5231722109441001578034,-353.645300167871312169154,34.2602985745095836023211,-220.551505866847179504475,164.204312424714714779839
2.96499999999999985789145,-1.18044044301452855094681,1.31015251104957397565443,-0.223296143548934372669024,-0.00510609851720901768840077,-0.0290711516702601008299567,0.00572757042526162492984687,0.000662376895809133471419716,0.00315699590811905532808379,0.0561091813543833431432439,0.998418792143276889738956,-0.00262737642858770076292885,0.0162837779557410411435114,9.77089249972056350657112,0.0250987322685287291001988,0.0147619319287394020617787,0.0190805108560833797115563,-1.67934192143960658860635,3.48550565286673563747399,1.22867763379499539411199,1097.0618082521766609716,1095.93165222301809080818,1115.12037040636096207891,1077.80859756450763597968,15.8837016752375532746555,-116.85303774124015774305,-287.993666217997656531224,44.3769215424224086063987,164.20361661044205447979
2.96750000000000024868996,-1.08693577868013568910044,1.47460771917449084966734,0.0952242939844910873947725,-0.00815779138880702407721213,-0.0259016170157905789572794,0.00507024438741269893593522,0.000656410364332431911504884,0.00308788421651611834362061,0.0561321355610424344018128,0.998417834861680009161944,-0.00166686532065633830068663,0.0142829347799986773603909,9.76954927361442493349841,0.0251277887422782682247391,0.0146842477213834868982056,0.0189727714869714486622954,-1.67928203369737971684117,3.4855487245347025471176,1.22873065831310590567682,1097.12904429518107463082,1095.89089495752932634787,1114.04091341874323006778,1078.24602106157090020133,26.9884620308839622282449,77.1869129706322070205715,-583.303730420954479995999,349.102410048975855261233,164.202877487185133986713
2.97000000000000019539925,-0.93697637308739412098646,1.58416343009902327310101,0.458021660007453923491028,-0.0124287900886185624649283,-0.021519039853605148593374,0.00666771989034739640672678,0.00064362238230293979199953,0.00302237169278633159910652,0.056151434766665161979482,0.998417062932835608357607,-0.000769918899246595234142632,0.0124775683274274788725489,9.76839230670463365413525,0.0251542489039269581696523,0.0146005358233852432225941,0.0188587368946931711877202,-1.67922188927025817228866,3.48559184121755194496473,1.22878134001964678390095,1097.19675056233108989545,1096.3175867878712779202,1112.2038517542559930007,1079.55410961475263320608,8.47270987487736348953149,209.783957580480006299695,-712.808637874665464551072,599.735577693503728369251,164.201941422072309251234
2.97250000000000014210855,-0.760365064175094862441995,1.58204811803904488165529,0.691754728519803463449023,-0.0157972772729234843536172,-0.0173958576952705779028463,0.00970841940946905006259993,0.000625236216657260642642902,0.00296638086823034895916917,0.0561657627783813673261193,0.998416526467160947433399,-5.029477890392680672349e-05,0.0109213513797282654738119,9.76743932979548290518323,0.0251768250136321057597311,0.0145130892431337629733257,0.0187395713113527560833571,-1.67916171415586457094093,3.48563448068345627106623,1.22882939955365233508644,1097.17140784455546054232,1096.93981474543170406832,1110.4768702293699789152,1081.24469895003835517855,-42.35748761329977440937,268.635217628758539376577,-675.497734813339661741338,772.704746361358161266253,164.20112111936575161053
2.97500000000000008881784,-0.526892903442806925795594,1.46166809337199543605834,0.81166772265991526946749,-0.0182662151531539709847785,-0.012845907332430465258577,0.0135520886046509789202297,0.000606239386617496867765142,0.00292591444856040968150457,0.0561760970436584600173902,0.998416148289469673748897,0.000382844320885894484618461,0.00973296653332932429347757,9.76670650322476774363167,0.0251945287283605739991899,0.014424131940003363100411,0.0186167213013465719650963,-1.67910125218534012070393,3.48567682675026624394832,1.22887482283726190424034,1096.98496312426459553535,1097.66076287601504191116,1108.82636308018936688313,1083.41763334655934158945,-128.789053728408390497862,303.062981241971215240483,-664.145633548437785975693,1020.41844583425142900523,164.200259843249881441807
2.97750000000000003552714,-0.201274145167879781048725,1.16922832627586936737885,0.813631030716676528768971,-0.0199185060755801487952787,-0.00742832488009376526449934,0.0178074343279301869347186,0.000587757293861919881926281,0.00290743327119139189154695,0.0561874507956461738400478,0.998415626482535567554066,0.000408671408922998968815676,0.00894787191163725313669541,9.76620791883227390428601,0.0252067060709586926448011,0.0143354284910729764396242,0.0184918107574981623042465,-1.67904046105183457626708,3.48571937946783805273299,1.22891723104029471080878,1096.52746257591343237436,1098.45512965164152774378,1107.1561420616278610396,1086.34679117920950375265,-205.757089983448906878039,261.100940590728100687556,-545.593193262459635661799,1088.31281851642006586189,164.199179885639438225553
2.97999999999999998223643,0.082840821339371414899766,0.810113206047663680919868,0.714904414417764422218227,-0.020206161371581772556727,-0.00376741855543051215593486,0.0204491704254923072070493,0.000571238583522365038665225,0.00291317532057670238940239,0.0562010073415729199952651,0.998414887136322426464119,-9.9153086589934269490243e-06,0.00859460274565917656253156,9.76595572415764046070308,0.0252130236380318679956236,0.0142488426689554841669816,0.0183659042362688575134033,-1.67897982091794162329279,3.48576159816230557453309,1.22895826056641177537188,1095.95617767434737288568,1098.96626757896865456132,1106.09839711387712668511,1088.85919743914132595819,-256.861280167418954079039,164.993992267321914368949,-352.896588686742916252115,972.835057416089284743066,164.19824204420987712183
2.98249999999999992894573,0.345161772894104212916488,0.362491445908591780611374,0.553273138481928050680381,-0.0194072128034666682716569,-0.00171106713378367460316742,0.0218705973385553212318122,0.000557152853991499364370854,0.00293838229627650573266839,0.0562193894732334678576713,0.998413796590609914360925,-0.000774343259213584877986847,0.00866695137347643466962932,9.76596016604412042738659,0.0252137221422988264118992,0.0141660244043880900050025,0.0182391501572359421290415,-1.67891930189309213083959,3.48580274773415776934371,1.22900004755842262582632,1095.24315617507636488881,1099.28009961297811969416,1105.39165911819418397499,1091.21096646628984672134,-294.035373550247527418833,96.5439692607581179117915,-231.226834905878973813742,882.649042942667279021407,164.197266217351597106244
2.98499999999999987565502,0.563843411126306204295133,-0.12257469433751340404104,0.375483648448797335817062,-0.0177382659379243905195533,-0.00114181861480916338816294,0.0223419921969081856916173,0.000545563001002820433665841,0.00297512816115475106290567,0.0562443042111166816021672,0.998412284063012189783137,-0.0017250227112968335996257,0.0091396903106182106335531,9.76622900303715901770829,0.0252093794269099558125191,0.0140885004962187868754464,0.0181109406400338270037853,-1.67885858122859232821611,3.48584349607613042110188,1.22904356936120939813861,1094.48600080659616651246,1099.44898742527243484801,1104.94226293934775640082,1093.27244265385456856166,-291.824472618807988055778,44.350894494934173906131,-127.788980492542137312739,725.371325552983876150392,164.196260198597343560323
2.98750000000000026645353,0.705653820652437757665609,-0.602303605322086599294096,0.216190481821916080651391,-0.0151480113853789191691313,-0.00231462505435938315639932,0.02201097589362085299447,0.000537936363817384240008923,0.00301474043069892760557393,0.0562764453202937511844262,0.998410339270042745951628,-0.00268719450995846126373223,0.0100071392704190569034051,9.76676699888118982073593,0.0252008127119629082857344,0.0140176868226551832458115,0.0179802046015132555023541,-1.6787978540106385239028,3.48588459592821431343168,1.22908985277251892043182,1093.7840338119822263252,1099.50185408545280552062,1104.75271421573143015848,1094.83782309405501109723,-270.556471647869273056131,10.9895433162811819727267,-33.9776559412689280748054,551.85005749541141994996,164.195219742784502159338
2.99000000000000021316282,0.772435529511319218798349,-1.10761804001263541863409,0.078604467382919832041388,-0.0114471216342122046605301,-0.00546210802880911505674533,0.0212759218660481357054959,0.000536213754106227885772029,0.00304488171860985926825416,0.0563153439289768298348093,0.998408028898510768733843,-0.00341560582228350728684063,0.0112624894888497702194474,9.76757580897533017605383,0.0251891870766087419553081,0.0139548745828424591158834,0.0178456817305499525205814,-1.67873708724843972994734,3.48592631563439514508218,1.22913860977730426959909,1093.1332184483567289135,1099.50393514185384447046,1104.77237465964140028518,1096.03169294133181210782,-194.027610263496683273843,-5.44801985624883666758933,42.8059475673317137989216,320.053346003494425531244,164.193934428554712212645
2.99250000000000015987212,0.748004217497527879032759,-1.42913109118829306787291,0.0181548149633517126588789,-0.00835739005270159061866675,-0.00929553595835339203923287,0.0206782582763791362989725,0.000542119359071917142692265,0.0030574950907562440174936,0.0563587968261559033034125,0.998405504855808367814518,-0.00375072568392948585414004,0.0128938303921140653973687,9.76865239771341542507344,0.0251757238692494195175797,0.0139013386906473614124113,0.0177067552349752313500808,-1.67867646274994641863998,3.48596834701887825502808,1.22918800302377140276633,1092.81389576066476365668,1099.47461398617156191904,1104.96674395356808418001,1096.43808982407244911883,-75.3499951775227287953385,-24.8494263323214745753376,108.519900989815639036351,50.5160868104223368391104,164.192835278677222277111
2.99500000000000010658141,0.669197728116455059499401,-1.61037778629956696008207,0.0113817772548170138835477,-0.00598785533255160717230892,-0.014164832317812871970153,0.0202718528126374988862501,0.000550373946486093436510079,0.00304577749446146564191173,0.0564020315856707046830998,0.998403063423405012777323,-0.00356763475307361049848609,0.0147492493541508395971107,9.76998854913419734202762,0.025161773426658831653846,0.0138582217390292097847215,0.0175638033083137315437661,-1.6786162517429963347837,3.48601001451235958938923,1.2292374736216393760202,1092.75646847246912329865,1099.37968801019223974436,1105.31497416459046689852,1096.28427337538391839189,32.0584341067849436512915,-75.6870499869380921609263,178.277014345989471166831,-170.641924711757383192889,164.191710527675411412929
2.99750000000000005329071,0.565448959086726321565664,-1.64469257252854461626157,0.0501306713745882995270087,-0.00464843943927797237369859,-0.0205918107126250304883541,0.0200859973203477426562102,0.000554077602493641715834805,0.00300232736555322218818809,0.0564435323885448744785087,0.998400819790310367629615,-0.00273427336914631308184553,0.0166410162984298864996546,9.77157022429613064673504,0.025149014389931632906805,0.0138264458189773613294715,0.0174180712365719359002725,-1.67855666423963234556993,3.48605044603878200248914,1.22928661481357082152499,1092.97418793119868496433,1099.09617873623687955842,1105.85812902529801249329,1095.58488020051368039276,119.921576912431930850289,-146.249885578439204891765,208.524994523991040296096,-316.667809993994012529583,164.190335805814072500652
3,0.512773304880660751869925,-1.52408444127822928493288,0.105810037505910822797084,-0.00476017471140377426003232,-0.0257911764266409403167923,0.0202084182725521567525195,0.000549209836514138387102146,0.00293130790385452179303005,0.0564833622848219321643803,0.998398759940159141734739,-0.00134384853824403432964729,0.0184477350901362108226422,9.77337527748913714731316,0.0251389052668550619373811,0.0138068773021766347947059,0.0172721525835810643667578,-1.67849804696505611190105,3.48608877920757365131976,1.22933418904478997113472,1093.35607635703127016313,1098.64843858230005935184,1106.35759913721039993106,1094.70093432541398215108,180.633071448122990432239,-229.922410453132556540368,192.165439502154640649678,-384.05088264176720258547,164.189172681697272082602
3.00249999999999994670929,0.529772050746925682318533,-1.27646912712391391586664,0.164849069638560274952965,-0.00546779868429132353407907,-0.0300983440852459621650539,0.0206318341372246950859992,0.000536031581728300585663882,0.00284213876412825038747512,0.056519584502671887937808,0.998396965521844981239497,0.000409806639729518029646727,0.0201357704586491922937874,9.7753735585446719369429,0.0251326800890750053085743,0.0138003238889799779293144,0.0171295365550595789227994,-1.6784404349807824363694,3.48612568089326568809838,1.22937902014343225509663,1093.87735328843928073184,1097.94656668397124121839,1106.81895622280876523291,1093.66462578730488530709,242.438921418175311828236,-355.169145353564374545385,174.857697231258583769886,-459.790246244857144120033,164.187994702674899372141
3.00499999999999989341859,0.635759965478516653192287,-0.889745530004701135062817,0.215810705585738227263448,-0.00573816852828416129606026,-0.0335255700866985903441098,0.0214565893329536142020153,0.000522476841994490965280507,0.00274365841156552596469265,0.0565525791706760344590421,0.998395384827156062712561,0.00235025698047500869458659,0.0218205775770060686480356,9.7775272114535507483879,0.0251315125033483195704509,0.0138071884208965846990713,0.016993957545389171831518,-1.67838371387940243906201,3.48616232332952824535255,1.22942123050681395568517,1094.56827096412212085852,1096.87259285553227527998,1107.23188762336667423369,1092.40198309418974531582,250.399486872294261274874,-409.895907836853041317227,119.457246713355871747808,-451.031335752637914993102,164.186566809676719458366
3.00750000000000028421709,0.774126839318510007181828,-0.543331098855693084281882,0.226682514513110056064704,-0.00485921023495666272451476,-0.0345235722317928026003919,0.0223229390257837674582664,0.000515855371122959254805151,0.00265200294320380161247619,0.0565835694088150722991237,0.99839389821225676957539,0.00415607072352314893537439,0.023614723732221828966793,9.77979011384306318177551,0.0251360335021503754349137,0.0138271581230388629357719,0.01686967908543489033657,-1.67832810224439565871535,3.48619944655051172688331,1.22946082758747476937344,1095.1293507228008365928,1095.89708714478683759808,1107.41624245637558487942,1091.40946910854154339177,208.134719065069077714725,-370.550577719106968288543,42.1157485949578358486178,-378.257554047533574248519,164.185366380713588796425
3.01000000000000023092639,0.919176190089056044385529,-0.227874739071477372398533,0.191655850371850899893644,-0.00267962233468050942813976,-0.0337664818527706883655171,0.0232945990602688862702863,0.000518049773416746146999234,0.00258066215580132502643851,0.0566129181974193290693975,0.998392445748975898567323,0.0055503361401394377128149,0.0255242182193996247629997,9.78210975579251318379193,0.0251464628915983173795823,0.013859135822788030273367,0.0167607934779610036335473,-1.67827362112360245482989,3.48623755771355803290135,1.22949762442699417341885,1095.60894455944753644872,1095.01983996693661538302,1107.44246636634147762379,1090.5106953239519498311,172.556462590822803804258,-307.250572390882723539107,-4.71596456295638777334034,-347.558743448151403754309,164.184155932326774518515
3.01250000000000017763568,1.03129672039365938296385,0.034472465394644991043549,0.113753858340213398481211,0.000315683085128442468894616,-0.0322576116713419805415164,0.0242678767349595835012277,0.000526303838802661652813975,0.00252970169389981312801918,0.0566395706179391653090072,0.998391083256659483957662,0.00651306621805394087010299,0.0274529103233054488919507,9.78442938953998186946137,0.0251627952545600448719387,0.0139013989281903047046107,0.0166703088352036440933368,-1.67821982750902853886998,3.48627688484807718438674,1.22953242551544850158507,1095.99213303575493227981,1094.36083428283245666535,1107.39266263356080344238,1089.67167539130082332122,129.027642982194294063447,-186.773189110821817848773,-15.2696310539798627559094,-332.315624110204055341455,164.182937260255613409754
3.01500000000000012434498,1.06347479488606877495727,0.225211310634156586241161,-0.0135450704405257228712944,0.00403832569515316826269657,-0.0306819021592746182802713,0.0249941301818637287568414,0.000536248573755465792432806,0.00249126053248271755666265,0.0566616820032828927278246,0.998389933806204998845146,0.00717844527514523156330739,0.029268496467638169256098,9.78668891091152559624788,0.0251845123964985831421792,0.0139518562071810486857615,0.016600008192808362456061,-1.67816594872917645986377,3.48631793570514236790814,1.22956634995546210120665,1096.2540827743584941345,1094.08597402138252618897,1107.36611821107157993538,1088.84911720340096508153,92.9804535633613085110483,-19.599411344734527062883,28.1177054014739589149485,-374.517870879443535159226,164.181708069085715351321
3.01750000000000007105427,0.977033781271233525700382,0.390104938746194451759663,-0.208652569144805316581071,0.00890653400672090055090191,-0.0293652807268264329221275,0.025221144177845006978389,0.000544524546419881461979673,0.00245810603153082465888168,0.0566798922470623453562233,0.998388980421771043971546,0.00767178911392419476955595,0.0308640268511110732463365,9.78882592044674382236735,0.0252103704906310767397404,0.0140082032776138089985585,0.016550589370640717001848,-1.67811126137968336102801,3.48636109327260568235829,1.22959973408278377959846,1096.45703530357172894583,1094.26283722610878612613,1107.53325116056817023491,1087.79908603690364543581,63.6350276978205258160415,143.640503018062531737087,116.057784797433413359613,-404.383789995799361349782,164.18021927147776750644
3.02000000000000001776357,0.796944980176306105867923,0.499112809919824762516782,-0.388304311083611131127924,0.012612941149104486479593,-0.0288449265914791606879586,0.0247281742350590784396136,0.000548086277266880933338455,0.00242390031190779916756006,0.0566948860093142714688952,0.998388204779117161002944,0.00810434428504657605740746,0.0321449359766494274781579,9.79077796643276521137977,0.0252384281137659274851792,0.0140682835705099752027225,0.0165216019474087247309591,-1.67805442817797478838315,3.48640640415975378019198,1.22963270940844093814803,1096.5722579128475899779,1094.80417653647282349993,1107.94640713505873463873,1086.82719825342201147578,45.5321013055718779583003,276.210234250089797569672,234.799556676767224416835,-411.307561484690836550726,164.178965709568984721045
3.02249999999999996447286,0.526605707863596061990563,0.606783175766315130417183,-0.55859012646507699706433,0.0149198735554862751961913,-0.028586952524204550102338,0.0235096104377169046184548,0.000546729432599306775647507,0.00238422726735800860967118,0.0567086711417039979199473,0.998387509234810455183151,0.00855660408301440328360243,0.0330798595218370489190463,9.79248466372353298936559,0.0252663137598216798462847,0.0141303727920488210456629,0.0165113734449481019961326,-1.67799461754882917041698,3.48645300323589024671378,1.22966631560072481299528,1096.6846958100995834684,1095.6438883973592055554,1108.70724894395198134589,1085.74254822948023502249,59.3848532300866196464995,399.672610941988182275963,405.43898241781744218315,-493.909019247859362167219,164.177697397927914835236
3.02499999999999991118216,0.147354763465459670523927,0.750281766646045400470655,-0.719470298395270324576245,0.0154584309722758453387037,-0.0278359279994893245302467,0.0211860845507379561003525,0.000547938456903834846326018,0.00234098945929277213462427,0.0567213484369395171125205,0.998386881818861926518593,0.00899778400965709629355516,0.0338002269727383508612917,9.79388930292318526937834,0.0252913953099049293449241,0.0141936911913946948310405,0.0165171093935110001316158,-1.6779321561719540145674,3.48649950125125274169591,1.22970131934935755779748,1096.8691821789980167523,1096.80253959118272177875,1109.97360204714777864865,1084.3576531571827672451,81.0435794973745089464501,418.288913869364307629439,498.86509587291737943815,-508.106250716684314738814,164.176157432297088689666
3.02749999999999985789145,-0.175676382332430408572677,0.878786861030977028974576,-0.796878348107963430102529,0.0143814487716533712102773,-0.0263849888280953508157278,0.01859443982827420696613,0.000554195041642181513048826,0.00229568803378839975115611,0.0567334368060572608039038,0.998386290152935562680625,0.0094030201375722224921283,0.0343446479565770457220708,9.79494210870547199476732,0.025311449486191888585962,0.0142578629832004876581975,0.0165351212701135390215068,-1.67786833711018013026717,3.48654383112357235674494,1.22973864732243587383209,1097.08991370758644734451,1097.73533296670598247147,1111.20157442331651509448,1083.20201697589686773426,104.678237697082508361746,331.0286548602338712044,482.895493823538515698601,-442.512457548461668466189,164.17485888305600383319
3.03000000000000024868996,-0.471952662414209411778643,1.00075202883721425806129,-0.801178879500855645190427,0.0127403019239019314051697,-0.0238327439668223305113681,0.0156247261239291432288745,0.000559693517175094629526044,0.00225173836355507936066167,0.0567464959434230697965518,0.998385643030637370820557,0.00970400183979591712812862,0.0345970402927777906376683,9.79560191066859431430203,0.0253248663885619444691155,0.0143225558990416994287198,0.0165613389579645949034603,-1.67780437917806701797474,3.48658535576232919694917,1.22977931777872528940065,1097.39257336748346460809,1098.45768286548400283209,1112.38807951626563408354,1082.1450908694403096888,149.696783688604114104237,239.180590857388096992509,455.966706810401035454561,-419.821670992195151939086,164.173544730589952678201
3.03250000000000019539925,-0.777019984117542472645823,1.11943342157998526609219,-0.724707454715994070504337,0.0108997583217440019431876,-0.0198026918966208130556961,0.0122944849942911282186797,0.000558168789542219201220419,0.00221207521487796435893936,0.0567584780714809195023562,0.998385055798488019185299,0.00984362452693404027526114,0.0344367502893319285539597,9.79583719517583695335361,0.025330686412108296967638,0.0143875868332006551231217,0.0165913730917035193157538,-1.6777409028304623994643,3.48662534189027084607915,1.22982321984363363043258,1097.83839762602951850567,1098.93123592099300367408,1113.48140795736867403321,1081.10290862093575015024,171.386105971218086096997,97.3783088181355935830652,311.654901103208715085202,-331.648713256306791663519,164.17195062859070731065
3.03500000000000014210855,-0.980988096258182729059172,1.18862295844144938428144,-0.609235177890739776351836,0.00935920985034328044294138,-0.016180150314263921224045,0.0103263970573499296728981,0.000549819804691697609430601,0.00218626797633058190389876,0.0567688088684965841412833,0.998384538265361443087897,0.00964389760939123735772327,0.0338821704609103546701476,9.79562572174469181618406,0.0253284605682766554568541,0.014452567819820643160722,0.016621123464003184633242,-1.67767853205733463717308,3.48666483940854687872957,1.22986960705025372142529,1098.24950389733953670657,1098.94457440957467042608,1113.94635402178164440556,1080.4868473031588109734,160.500499777666618683725,-71.6662296249539139125773,71.1688772002632248359077,-184.765591390764114976264,164.170609059815319596964
3.03750000000000008881784,-1.11882119890373332715683,1.23338719283255060510385,-0.470390927725164220696286,0.00727434794863809040810221,-0.0130026594439322067120468,0.00944636908026387500658672,0.000539546841432319234342641,0.00217873258579438485241231,0.0567742983058893355141628,0.998384256415433601894449,0.00903357053031909190687898,0.0330430389297673224313634,9.79495576289399849656547,0.0253183845272034087348079,0.0145168670491983807513403,0.0166466739600001495391624,-1.67761719804052833460162,3.48670522931920201514799,1.22991741087032080415042,1098.64090012491783454607,1098.57290477286824170733,1113.83725234336998255458,1080.17908066398194932844,140.773777572670326208026,-200.62361590758399643164,-138.073863118919007320073,-69.8987532392508370548967,164.169255694810061640965
3.04000000000000003552714,-1.18519617810532529311729,1.2704548875662160511979,-0.335164429559632548460968,0.0042230713075117175953066,-0.0105404263616523889007803,0.00916240697059436844107427,0.000534366265697966110262418,0.00218616174135654412966079,0.0567753447056237869894346,0.998384188544176653934414,0.00809493150014504309064378,0.0320673105634932398277925,9.79382610937255826399905,0.025301413378841480783521,0.0145792225770431192050092,0.0166645328434096816339061,-1.67755635900432209517419,3.48674720224041712057783,1.22996539441115504409652,1098.9533727852028732741,1097.94145633003677176021,1113.25598470618706414825,1080.13735353696256424882,88.7133593347262632278216,-290.849032751208881109051,-325.342505969918079244962,44.2121795690136778489432,164.16789420255256004566
3.04249999999999998223643,-1.14457451748081506792687,1.31157080224030742066077,-0.224048090433725033410184,8.13847593030367789240787e-05,-0.00876099129604872468857213,0.00910511014636141216560539,0.000540031701143417366788035,0.00220252924808560365463328,0.056774782049947063178319,0.998384183452100226752179,0.00696130005808232033004401,0.0310805240183103723139446,9.79224507183186609893255,0.0252789611690736985838424,0.0146378618492634601788716,0.0166720984401743550773478,-1.67749616196017914404592,3.48679081786121258801359,1.23001234724949770615865,1099.08446692159145641199,1097.11865960911222828145,1112.21053981352042683284,1080.40014156182701299258,-4.14867867998518491390314,-365.646364823222540962888,-521.807461283890233971761,174.873499973186056877239,164.16652483321007593986
3.04499999999999992894573,-0.962750848038878670465124,1.36418308680488564732514,-0.131700267850928892654494,-0.00511672639063017430094416,-0.00646376816219950117020643,0.00887531733699716690599857,0.00055456413185110513264231,0.00222071580851269847339813,0.0567724511115282465256726,0.998384267351343557272969,0.00577718114087053674632344,0.0300606604124845772085806,9.79022962605971613925249,0.0252526054840030433901177,0.014690789164595822319237,0.0166678752295511614645029,-1.67743728095603161776239,3.48683575586357363818024,1.2300570203065568364309,1098.93262939180294779362,1096.11322450592069799313,1110.64694739976766868494,1081.01172103682847591699,-115.648729639681462799672,-338.439845265072960955877,-585.222759309602906796499,260.987664139480443736829,164.164874639110990983681
3.04749999999999987565502,-0.715722593279933150256511,1.39151646429295161588868,-0.0927615496240629666679922,-0.00876525343769589924958208,-0.0036900781014018828318779,0.00863497762390172396429477,0.000569937657985256952708486,0.00223569518899046932453034,0.0567696332519170912545015,0.998384383739509995159267,0.00463757372761455094467564,0.0288746329330336962137871,9.78780388909073550962603,0.0252239982629480358200524,0.0147358450906389919915496,0.0166513285465974443522175,-1.67737969714221790695774,3.48688195011898383057769,1.23009898464813072216373,1098.50622327339306139038,1095.42646038278689957224,1109.28442601697247482662,1081.70507988252438735799,-230.797387689229140050884,-204.883894315966955446129,-511.982405658647621748969,296.784280743375347810797,164.163495018412731951685
3.05000000000000026645353,-0.416433610597339964876085,1.36385177443202509905973,-0.0957755612785294307975903,-0.0107151767662442918421783,0.000166281813266408321286272,0.00868335506156856819226508,0.000581893503751080339719826,0.00224906112227746257659078,0.0567688596478447896065411,0.998384388611529449697457,0.0035102606064336197566611,0.0274746884015574441284535,9.7849971586694124425776,0.0251945686735428504843259,0.0147712464061704566720135,0.0166224182008461833504054,-1.67732336114333868692938,3.48692853107315237082275,1.23013839079636699835874,1097.77864245335672421788,1095.08880503434079400904,1108.08703537147425777221,1082.49564244054545270046,-370.17871908812821857282,-33.3665191168597843329735,-449.323338670061843913572,347.770452169356019567203,164.162112082772296162148
3.05250000000000021316282,-0.0744889397188360086188297,1.22398554757295041639509,-0.147387696761392739119856,-0.0103883776180435892511067,0.00577192244074805922010585,0.00936271171766436642591724,0.000588115278497344166723504,0.00226288426052717074610232,0.0567711553077865152538983,0.998384222877741644985861,0.00235392916014590808382323,0.0258549617538114742676392,9.78184360950134035306291,0.0251654654732823869489611,0.0147957762147515169831591,0.0165809671806715734632132,-1.67726870720598975061932,3.48697459578142510139287,1.23017624015968252138009,1096.65532967795229524199,1095.25962778720258938847,1107.03780932362201383512,1083.44393214337128483749,-430.088667085337931439426,171.198552856962123769335,-305.319722449036930811417,333.506957061679543130595,164.160449908419991515984
3.05500000000000015987212,0.141170425670799154493906,1.00226761987282642074604,-0.222094744182903897078418,-0.00825170216018538543734095,0.0105543213244974135034404,0.010014712389772169667812,0.000587508868410873959058083,0.00227105357281337906852348,0.0567730230098937097005241,0.998384098865852442905577,0.00128670739147338647478946,0.0240266516729193482793114,9.77838238445014162891766,0.0251375507014022087082239,0.0148089027838902136807731,0.0165259823324225146867761,-1.67721460799003319053213,3.48701982073364158409845,1.23021499945289658484171,1095.62819911793008031964,1095.94479779862558643799,1106.5604367592291055189,1084.16317722585381488898,-396.627302436135607877077,381.508352552063058737986,-109.237171949691912686831,262.011890484524087696627,164.15906319341192443062
3.05750000000000010658141,0.243969594665672473432494,0.682732879198235220741253,-0.303863969551171120286881,-0.00553298081368615909253483,0.01417302391848668588481,0.00951428363140154227661771,0.000580215959696744843984706,0.0022719816369954769393058,0.0567716226992450861965622,0.998384179627474166451861,0.000338499726718656523960505,0.0220316510370350965297703,9.77465547202973894513889,0.0251109771904606225711998,0.0148104646073386313903653,0.0164562396410573227867324,-1.67716003001751778889172,3.48706483345385365169022,1.23025587584623141701456,1094.67219316577165955096,1097.16716954996286403912,1106.49162346387356592459,1084.75399159579387742269,-368.231181229710841762426,629.46259670994982116099,43.7683113009379880509186,227.293777958998646226974,164.157675356144693523675
3.06000000000000005329071,0.234579197896998825623172,0.238453796203362877736964,-0.367890283261225525812677,-0.00298923745800392997792883,0.0161305011810688493645305,0.00716137688923103137017545,0.000564209351852983900972582,0.00226322332841361701857852,0.0567638143375527523537549,0.998384650756898528456418,-0.000447155285072865782414198,0.0198689869504084792861676,9.77070749035856422892721,0.0250853174526898155261012,0.014800513898377028534914,0.0163703697352741116277652,-1.67710459160990699167826,3.48710942636494625190835,1.23029973446418572358141,1093.78704321178156533279,1099.09211078217526846856,1106.7792783157337908051,1085.29964611564878396166,-262.089400594919538889371,744.825398128493816329865,144.575383499344184201618,176.904541121215657994981,164.156008926262444447275
3.0625,0.140943395540863075643401,-0.129172707648967072247004,-0.369437537353987044408399,-0.00193026105747926414284155,0.0156249137802742400077394,0.00467417301823227788332149,0.00053385768040621725712136,0.00224203493250832138275475,0.0567504280997910698358666,0.998385475794552501582757,-0.00102507194506575027848072,0.0174667544678838784766306,9.76658466442686190589484,0.02505977100876124671891,0.0147789879973627691356342,0.016267339268310108957305,-1.67704750912844158250437,3.48715344029538432124582,1.23034635301026074039044,1093.36174616279708970978,1100.89129654060525353998,1107.21450038137027149787,1085.63851430139993681223,-96.9598750479710957961288,708.348667426541055647249,186.413726482582546850608,121.715751235435945432073,164.154619375231817457461
3.06499999999999994670929,0.00546753198943979515367353,-0.43195357952715118798892,-0.312625169225724364174823,-0.00208314481845158026157572,0.0132929130645592120940623,0.0027157987289490349847032,0.000486478690133460239895108,0.00221440528638511702902436,0.0567337320503052966458313,0.998386513369978190191034,-0.00151687721782570866801976,0.0148188100176192272261488,9.76233264305652070902397,0.0250329987257468834782603,0.0147459842832166152654105,0.0161471196736569753971136,-1.67698881184515391495893,3.48719737040979982367617,1.23039372089709142521485,1093.30224383654172015667,1102.63385411930789814505,1107.71134694814668364415,1085.90822487182595068589,31.0902020417422413345321,650.064820805132740133558,191.704355574669989437098,106.168841186902213280518,164.153228690538469436433
3.06749999999999989341859,-0.127021322318578544496859,-0.648256625658161333980445,-0.221547728880116173710846,-0.00310182175018291214976807,0.0101595553281585721655533,0.00155339043865319274134729,0.000427425356756468111888575,0.00218655568490037184245511,0.0567164277177260728324271,0.998387593080231061648533,-0.00203915977891085814510674,0.0120731822266656758230186,9.75799643246870829216277,0.0250036247747835137233974,0.0147018961722974478983916,0.0160103946307158448436603,-1.67692907180478756323794,3.48724195511701617888889,1.23043914495344752779715,1093.51719717300579759467,1104.14162064463084789168,1108.17302215924360098143,1086.169358507334436581,132.295969891665833984007,509.753323612460178537731,163.977718541935104212826,113.853005722777695041259,164.151836713726908101307
3.07000000000000028421709,-0.219493691194895923501917,-0.74698013615198965986508,-0.118816998955891553468867,-0.00472809344174599573834561,0.00704811319528604249273762,0.0014329053948347306082084,0.000370227816110581990985406,0.00216310492607165632053534,0.0567023416554125747612858,0.998388481294218754769076,-0.00266751811807380140306734,0.00953144748489493688625718,9.75361984481370924982002,0.0249705300419210060591801,0.0146473973533840784444493,0.0158584470147531270134422,-1.67686894989018542290182,3.48728733484067898729108,1.23048225838876557070023,1093.96372368600009394868,1105.18262073737037098908,1108.53123554085641444544,1086.47748990043987760146,214.219551502477855819961,320.1230314254428321874,130.400829250120580127259,156.953225607674852426499,164.15044255061744138402
3.07250000000000023092639,-0.257978802735305712268143,-0.743793190325221620362584,-0.0215967846327690393692933,-0.0065873329109521717647513,0.00414934782448828608225622,0.0023315773626733471250716,0.000329930810672036045009398,0.00214837710568439128541729,0.0566926233567748641406503,0.998389097721308571564691,-0.00346954433929392430657757,0.00751880369272176982131661,9.74924468361032481311668,0.024932827655155916785068,0.0145835266948755627736123,0.0156931974198964985234284,-1.67680853134489993294665,3.48733424514839063235172,1.23052302449042705312365,1094.58829493051825920702,1105.74223580175817005511,1108.82502630549424793571,1086.95412463537286384962,216.254695676484573141352,83.1279518389710148085214,90.7334408761036002033507,195.113260900011084686412,164.148765965571215019736
3.07500000000000017763568,-0.225822759208479384440693,-0.664559760988601255782271,0.0172494491822683393422722,-0.00771401652442271507786886,0.00254148861524443065579293,0.00365260739896589503236668,0.000312621102054855466191585,0.00214551402170996916712875,0.0566889527089641312440627,0.998389336659839976562125,-0.00449934482826874065919398,0.00617845582355949253516858,9.74491013913144321634263,0.0248900600395511213680511,0.0145113846651932221210046,0.0155171817216313429055319,-1.67674796160199623962228,3.48738240063341109475914,1.23056012778481327352154,1095.0449971643824937928,1105.59826049656521718134,1108.98490274523692278308,1087.45305620493991227704,143.108843101257065200116,-174.764702073165693718693,59.4477830102745343765491,216.552312022536227686942,164.147364870408665638024
3.07750000000000012434498,-0.135084642117287490048483,-0.539785737236790352788773,0.00673277624923437206794219,-0.00837156384188723554085065,0.00144118062573465530173955,0.00490312627229068462991757,0.000317191260513547616372437,0.00215162484090346012993722,0.0566898282337908454575626,0.998389287367495326108724,-0.00570153288323462653641727,0.00549973853792247099891988,9.74065298450620531411914,0.024842306932303780814264,0.0144325837231506874658304,0.0153328579165784364968239,-1.67668791418089058176122,3.48743014676194684753341,1.23059395023430950821819,1095.30383914602452932741,1104.86841229139236020274,1109.12226522054561428376,1088.03688619548552196648,54.0597174323022642283831,-424.868082176326367971342,72.1386421504136592375289,263.628027761711734910932,164.145958360403824372042
3.08000000000000007105427,0.0238576329514819489296951,-0.372493049487537808417414,-0.0428218397707702397303464,-0.00878142997262891002174801,0.000519751359455669376813391,0.00532909374674255670312206,0.000337631760743099937002731,0.00216330917203729844802695,0.0566908844203399195360582,0.99838920528958352562654,-0.00701663405082332547468837,0.00536827224006337835188196,9.73650713269121226289826,0.0247900180986776672020788,0.0143494141920627975295144,0.0151423508559091878761249,-1.6766286987267917663047,3.4874767512741646768859,1.23062545952684221362006,1095.31529575154399935855,1103.473920085683630532,1109.3455959559889834054,1088.7711963437484428141,-42.7925922622771395253949,-563.779110431926937962999,100.566753575778747631375,261.948244076853484330059,164.144262775678640764454
3.08250000000000001776357,0.182156728547330531986503,-0.239466579288400399638803,-0.0888826559211285810446768,-0.00894539998639816251457813,8.30822523481628618128789e-05,0.00466648508237056929698339,0.000366313877822214875156631,0.00217609899446584908674907,0.0566902001301906391383945,0.998389211530083642287536,-0.00836700781409616817230201,0.00562914221569220558916147,9.73250434017430698929729,0.0247341015893026081040595,0.0142646209810948429441702,0.0149469483524482856656723,-1.67657026685287169343042,3.48752162255707176541364,1.23065468215808260232791,1095.08987618471314817725,1102.04951673923278576694,1109.62509898842449729273,1089.34662741586976153485,-121.926357567056456332466,-575.470789443455487344181,133.68447791008577496541,206.229825026780275720739,164.142842594959262214616
3.08499999999999996447286,0.343608884100582268050772,-0.132819896249422503275994,-0.110000163470787420960662,-0.00853366761916128126197467,-7.1545960541824797293553e-05,0.00340066029573420254561444,0.00039511675208055315172001,0.00218270499884672813939446,0.0566847203534166788063686,0.998389499219196174806257,-0.00962172235996467534180354,0.00610633144049824942017901,9.72867529138150111123196,0.0246757417147899678344647,0.0141814437955222055753879,0.0147466899450312792507756,-1.6765130312937770451498,3.4875643524112125426484,1.23068219762595676414207,1094.70566396370873007982,1100.59656613846641448617,1110.01401834553939806938,1089.80234546888232216588,-175.963846089920593840361,-586.380695159517699721619,186.967988614837281602377,157.287462504431175602804,164.141414741884119621318
3.08749999999999991118216,0.507285718496548243550137,-0.0520700048286542316322567,-0.087923824499677949440013,-0.00688943263834199126627311,-2.68997862058624923292487e-05,0.00183648401458421425130885,0.000418009461562996755251004,0.0021798793992382861119117,0.0566723098323240054297045,0.998390200723947573990813,-0.0107271272068540993172014,0.00666068967558855126731565,9.72504962743728285090583,0.0246160962645706332674322,0.0141033642786687792025635,0.0145404163649647429068512,-1.67645669502383820592684,3.48760527446298862486174,1.23071096446171668326031,1094.21005695426356396638,1099.1176132634352597961,1110.55993893149866380554,1090.13306472839190064406,-165.311961762976238787815,-459.186817454074798661168,199.297947885683839785997,79.0112846745631571820923,164.139693046470853232677
3.08999999999999985789145,0.594953930816727427632884,-0.0326646191982362318895206,-0.0311904443549352768105809,-0.00471387065128634277777486,0.000137429869364620252250933,0.000893860346902347895244045,0.00043171019440138943450494,0.00217029269271126409868167,0.0566542352636424523248948,0.998391241614539071136392,-0.0117422735357053040217146,0.00720545747880244492195034,9.72165631595569657008582,0.0245561597548020274506264,0.0140337582943648540162451,0.0143259044869581599751518,-1.67640063485038148805017,3.48764499740661770843531,1.23074339549447908659374,1093.87910415489386650734,1098.30063205119608937821,1111.01050808496779609413,1090.19740189225512949633,-95.6816092965190421182342,-208.504234156348076112408,157.618955553551415960101,-17.7962745254705438924248,164.138252401792044565809
3.09250000000000024868996,0.614028904762964788943691,-0.0688865269350893982824857,0.0483908702109821925452238,-0.00238187505083253467375037,0.000358782898565062507469092,0.000556512279749285152484484,0.000431923053047636993674596,0.00215930307329186476836269,0.0566335435269609624442388,0.998392440873776210175095,-0.0127798001686325532477717,0.00763043547561424034819666,9.71852427389263517909512,0.0244967089784673443253471,0.013975661559325764857209,0.0141002717556325367354031,-1.67634500511275241763087,3.48768320261461672870951,1.23078077129719520854678,1093.73164890778093649715,1098.0750920926534490718,1111.34803370926647403394,1090.04408335576454192051,-14.9383407173435358572533,46.0543454024414842251645,97.0363682197264978412932,-109.034223826521980527104,164.136807489476211685542
3.09500000000000019539925,0.555058295645082466762688,-0.177165587464209961510164,0.138451137113632383179862,4.87061023956184371321021e-05,0.00057820669157631016197435,0.000943738700303474778961765,0.000419053621736372469783888,0.00214693932988936414182901,0.0566160301790599937432624,0.99839346807491824442593,-0.0138435509022932015654739,0.00790561948410748935311965,9.71568324488382195625036,0.0244385012644694477046414,0.0139316787053927106793116,0.0138601452051483088612205,-1.67628963239371153726154,3.48771919309051803281818,1.23082296474710251033002,1093.8044124513071437832,1098.53090377820831236022,1111.49568992606646133936,1089.65223077312248278758,61.8098199057853392446304,272.267873541574203954951,-3.15523789918195118886501,-168.956723868544912647849,164.135071665005455088249
3.09750000000000014210855,0.446373054533982516201007,-0.316146433226293599449974,0.183844945401244880267555,0.0016143536180323050325397,0.000599404381730546365579515,0.00191930744881896840625668,0.000396336910749040861618592,0.00213634000847959856089764,0.0566047967210123112447029,0.998394136614376148664007,-0.0149938125470852681719869,0.00805542370778999580749336,9.71316182633909619426049,0.0243818167865621458767489,0.0139039515195461416824374,0.0136029263803013385908391,-1.67623434096506596091558,3.48775325807913949560657,1.23086768892559850208102,1094.04069800730985662085,1099.43643146036129110144,1111.33225751977056461328,1089.19929973642183540505,110.885537353490320811034,428.70051684018113746788,-132.090229563121368983047,-195.961243247852138438247,164.133626295627806257471
3.10000000000000008881784,0.29430384912462348445672,-0.490678243677279690704296,0.174391915755009646593621,0.00256950456297159188570611,0.000233240040458005851815512,0.00342949087910612588486758,0.000367051562176993833273853,0.00212839571731364808962472,0.0566003571389420007120563,0.998394412689636023827688,-0.0162457452220420503485876,0.00810090902377314653337592,9.7109867675641474704662,0.0243265633950900395099382,0.0138937721926272635120103,0.0133272641201352039924677,-1.67617939199213816792167,3.48778547377399616991056,1.23091271235273969075763,1094.35884013807458359224,1100.67440636240917228861,1110.83523877825086856319,1088.67242455688324298535,120.061092597054823727376,506.638501659755888795189,-248.631716561845507840189,-215.918491644929474659875,164.13218596973962348784
3.10250000000000003552714,0.122971000087638240860777,-0.675986323309054060182177,0.111624765213233098637424,0.00304009650915367966514391,-0.000671960184247571718635372,0.00508203593684419027004529,0.000334045938502244605002034,0.00212187972966545231739977,0.056600105322355154235936,0.998394445161100541064059,-0.0175717790717879532302881,0.00805313670055055400021082,9.70918116419082544155117,0.0242722133203180402694077,0.0139013317594399148785511,0.0130334092814499719753529,-1.6761243641112968383311,3.48781735565494832584932,1.2309566926090671490357,1094.64100347029511794972,1101.96962396866001654416,1110.08909893696136350627,1088.11970727819721105334,78.1367511321166858806464,475.92132055129798118287,-335.645110402499881274707,-221.52902202956755672858,164.130752822986977434994
3.10499999999999998223643,-0.0510317578697151580380265,-0.843674992353256492094715,-0.00698000932148245059605252,0.00314283563155038237618699,-0.0025074454411299880798869,0.00615494555717908085890056,0.000303771188125782952774157,0.00211950840825098638445234,0.0566014728604217337570859,0.998394371330777685713542,-0.019014036816881692282255,0.00800086935875752094937674,9.70776162795854347109525,0.02421773370163957106449,0.0139255292528000940849298,0.012723432428773608429684,-1.67606851922962962753161,3.4878503915998493312145,1.23099797978458669334145,1094.7495238937351587083,1103.05401296516561160388,1109.15701322623840496817,1087.56477944673542879173,-19.4741801874447055809014,367.750977456270106813463,-404.815956816045854793629,-240.010673067632183119713,164.129331847527737409109
3.10749999999999992894573,-0.236468257571041839959491,-0.981291738843444449891251,-0.181554048389523936535284,0.00280222051771342357817662,-0.00599675809084653562569533,0.0058774174555243172829444,0.00028183678935707931045157,0.00212274425175782918695511,0.0566008790532861530420128,0.998394390103969242566961,-0.0205878254008250508033662,0.00802101779551199489670665,9.70673702039638719440973,0.0241617802372185754011813,0.0139639327992824406610151,0.0124009422931335450829282,-1.67601204222141819677461,3.48788515235490415022923,1.23103574491292611092774,1094.54363256935789650015,1103.80837885594132785627,1108.0650191528811774333,1086.91965391285907571728,-142.395094034103152580428,158.165853187123246925694,-353.925282974031063076836,-230.175393219001676925473,164.127645123874145838272
3.10999999999999987565502,-0.351490902776251001871088,-1.01658558893248041066215,-0.323806624238969886775408,0.00202458699204158872747561,-0.00981089130350345020592506,0.0045937414160143507160794,0.000268094293841471687910721,0.00212920960071117390879913,0.0565969570950534614506289,0.998394584502215853838436,-0.0222365085104914220193173,0.00808305766931782104789406,9.70610716660943495526226,0.0241029871617681121231946,0.0140126981690731223367807,0.0120707672275510331794113,-1.67595507775504448666481,3.48792262163665212071351,1.23106953984783151767601,1094.03754842356465815101,1103.84484223110121092759,1107.38738681136828745366,1086.41390248064044499188,-271.58222901264690563039,-114.513977450079892150825,-178.240366797614825600249,-190.651192415440021932227,164.126257972387435302153
3.11250000000000026645353,-0.401792620487174567678323,-0.956062675943320394722491,-0.432878883032062289348829,0.000776690065638690140502332,-0.0137176936454277541982405,0.00301440316729105223930718,0.000261375793412407764985256,0.00213973323982868252057798,0.0565935629517920202324888,0.998394735187551618516011,-0.0239626335748571520078976,0.00815071321289665903786492,9.70586071722479282186669,0.0240400289241669423700998,0.0140668800617922695739281,0.0117386914524537280118954,-1.67589804654935914385305,3.48796309304900908898617,1.23109926596859997616207,1093.18572142429457016988,1103.23580896869088974199,1107.17381731889304319338,1085.96639795078181123245,-438.537531934268770328345,-390.572128400773181056138,40.8995579579340855502778,-174.112084466457474718482,164.124893518927336799607
3.11500000000000021316282,-0.364435703272018352016914,-0.788393624307223594982474,-0.504970726204457154295824,-0.00133611447503464248962035,-0.0173858126185377805106302,0.00117818487709331906967969,0.00026202286003316902288085,0.00215720205370176524792281,0.0565937838647159255356378,0.998394663672653281949465,-0.0258027747469868964924622,0.00823012854007591776461794,9.70597482635008290685619,0.0239716012518188040236744,0.014121187438305661185356,0.0114108265286638043550793,-1.67584183713160905782047,3.48800633355816946945538,1.23112472849138887553977,1091.84486076389316622226,1101.89198158909721314558,1107.59188460115797170147,1085.54334205830809878535,-524.971203840789030437008,-557.256452293780057516415,262.66296033641640406131,-127.552098176013700481235,164.12328637556566945932
3.11750000000000015987212,-0.243357710811268473927171,-0.598626023754179725777647,-0.508635847632044724164757,-0.00345968414720014679972215,-0.0192607037100417204100733,-0.000340509253355803637435678,0.000268995829079797499870652,0.00218123486925274811740194,0.0565970645727499679922268,0.998394405981706145603027,-0.0277276279206097112095541,0.00830796520941378367763885,9.7064162341922415322415,0.0238964737998323371870324,0.0141704661567739181177172,0.0110929419056703844337353,-1.67578712993354317362105,3.48805157301555990301267,1.23114661511262912796383,1090.56086540509068072424,1100.44952670722204857157,1108.48713212057509736042,1085.32863745990175630141,-518.825287613992372826033,-587.050884035955959916464,439.916512333011553437245,-47.8255053092662976155225,164.121975048961644461087
3.12000000000000010658141,-0.0371603028746138180915537,-0.401312307182417171702582,-0.450888996992896362581149,-0.00510283631098921129642942,-0.0199106792743116295385519,-0.00205918450731149265536812,0.000285774273407588918875788,0.0022035832663574676099083,0.0565994537534891886676469,0.998394202003208830475955,-0.0295467321761824844306155,0.00846027769306974958274381,9.70714318928323471880049,0.0238135059141582929032044,0.0142101769456348808740032,0.0107896088009897892640021,-1.67573294046658549660833,3.48809851683253491216874,1.2311662793079747313385,1089.25073432582325949625,1098.95672716891749587376,1109.79146716282298257283,1085.30421453176177237765,-545.599689386711133920471,-601.98857350057016901701,605.128519765197893320874,37.8457746507600774066304,164.120695966392048603666
3.12250000000000005329071,0.271005099331411758445398,-0.203839382174521133173073,-0.316795087995139834635694,-0.00539388826906092404278592,-0.0195024376723414508139065,-0.00426812378515135058820729,0.000309458929904388873894511,0.00222018187010420515667408,0.0565988912569894073167909,0.998394174885569474220404,-0.0311545575667557875232383,0.00865402850825503465459487,9.7081051780207605617079,0.0237214336610264801830095,0.0142362108456229458086639,0.0105047615418211934268378,-1.67567849273423474798506,3.48814721184964726674593,1.23118389318618759453727,1087.83286695815718303493,1097.43958383971926195954,1111.51277471940102259396,1085.51786633315555263835,-468.349101717068151629064,-470.496484178930586494971,603.57393890459582053154,114.821726184257101976982,164.119201953450954079017
3.125,0.538091073723116930516142,-0.0959455576045483843339312,-0.166166936609196791430065,-0.00400394606216793614433813,-0.0185693006683390754441021,-0.00549298549794644246774267,0.000332170085988803492991345,0.00222721177072568226815164,0.0565966743448061693211315,0.998394260066430838662654,-0.0324534601395273861190738,0.00876827568265071272124445,9.70924586929259447742879,0.0236190430020914582387448,0.0142451135401287579118623,0.0102412434059186343432435,-1.6756236668520969601559,3.48819694000272750855629,1.23119967267353480622205,1086.90898881723796876031,1096.60424474802289296349,1112.80933685734589744243,1085.8783231626830456662,-290.798482404585968197352,-214.007089981537347966878,431.355479128215051787265,167.201525152771779403338,164.117993566411655592674
3.12749999999999994670929,0.76739213581156717758347,-0.0556716757867131845083364,-0.00610245486885956089917471,-0.00142369074485813179586913,-0.0177639292325135061956232,-0.00526481666522510185352024,0.000348850739185554016130036,0.00221638884247722742909525,0.056595299195628098742894,0.998394334678834316498808,-0.0332547547364068843411822,0.00873768190486114322557132,9.71050674662634527578575,0.0235053258480751349479565,0.0142345489684932418467112,0.0100001579304412613335984,-1.67556774636058114502646,3.48824756891959530946679,1.23121385428760410363225,1086.3788745461342841736,1096.36954838981159809919,1113.66955211504205180972,1086.35387395891939377179,-135.411482678731033502117,14.5784571127026918446745,240.38423030997876139736,192.256162616972233081469,164.116826148141797148128
3.12999999999999989341859,0.937869193314041393882974,-0.0635656365970044961999363,0.136685270769867445173062,0.00165065764823711376256543,-0.0176009765678455942783387,-0.00414280753045822170560486,0.000359827878028721786975858,0.00218600719056710052212722,0.0565957979583323472771994,0.998394341336021229338371,-0.0334912521449918718086103,0.00861129990362860010810753,9.71182818293380201168929,0.023379358258035307788214,0.0142036219336493761689066,0.00978113549071313141680672,-1.67551044596709974854321,3.48829914785722028369719,1.23122735796555682341591,1086.23193140384432808787,1096.6771370335864048684,1114.01125800889576566988,1086.83960397576788636798,33.9796527686735103657156,247.591218830831735431275,-3.5422582994212801210665,173.983088444571961872498,164.115694846359502889754
3.13250000000000028421709,1.01966546345295316911006,-0.110412363534896557082376,0.238650358140412327534463,0.0048612403986831569796534,-0.0181585370770291701369992,-0.00276114472526678596253635,0.000367958911682192022982174,0.00213272030157627637964035,0.0565961882821623615824613,0.998394398839873575823844,-0.0330625623739463428418794,0.00848512588342235571370331,9.71315382727725307177025,0.0232406715543107822430358,0.014152986867836701151413,0.00958198750772303563250087,-1.67545155710385706981924,3.4883506505078014647836,1.23124224235495161039466,1086.5487728099776632007,1097.60750448396584033617,1113.65184082354494421452,1087.22378940114231227199,226.902631562855418678737,526.839751060207049704331,-307.298306882446183863067,121.554455028436663610591,164.114609615849531110143
3.13500000000000023092639,1.01084918234946874449065,-0.18835279562683721055194,0.306476856031571709415573,0.00845457024299136987444125,-0.0191332203360976872696941,-0.0013767819657204594281652,0.000377854174967956414794845,0.00205481494483068880679832,0.0565969845678082339457404,0.998394482538921490544226,-0.0319011694843553475497977,0.00848843794095150566691999,9.71443284022547359768396,0.0230896318052083888983095,0.0140846144950251567912192,0.00939903625984247689806317,-1.67539059193068551323336,3.48840118341630756049199,1.23126050523776187084479,1087.36644456165868177777,1099.31133578888761803682,1112.47476647448343101132,1087.44737625091011068434,344.582898938968412494432,692.756021769370136098587,-524.60302447594790464791,33.1929700021653673047695,164.113363769799633473667
3.13750000000000017763568,0.921092018325261663314052,-0.26011427289282512687052,0.32215724588625899160732,0.0109662632823249797664467,-0.0199539695324532501130577,-0.0005628459900894875779509,0.000390855326180210456681746,0.00196380014886853330666194,0.0565990660613549939617073,0.998394515927100600904964,-0.0302045675571716368268405,0.00869606353219466374215862,9.71562029728619336310658,0.0229274710544765079889284,0.0140017226314403126635755,0.00922820563958069717269694,-1.67532877231651289307024,3.48844991284261851660631,1.23128229778835507346457,1088.27168730467246859916,1101.07128459281261712022,1111.02882570116526039783,1087.3897542511531355558,364.728108918196596732741,730.890528099841617404309,-618.925426489399342244724,-72.1048232928766879012983,164.112374842636512539684
3.14000000000000012434498,0.760103789499223303494091,-0.331892281423821988717293,0.305557972177061765162165,0.0129370659526036897030155,-0.0206701145470149123817283,-3.35935738673268088970263e-05,0.000407567159998034904324488,0.00187166904624982304884695,0.0566015747630562587877634,0.998394523158587676725517,-0.0281871808619557837061187,0.00916073225957296163879384,9.71668140821783055116612,0.0227567022978174306191423,0.0139086922641228870334285,0.0090649399312953803792281,-1.67526858419251012399798,3.48849530634601512346649,1.23130723410972353626391,1089.19008510624962582369,1102.96578842938674824836,1109.38013934203650023846,1087.0868521344457349187,355.891454133832951356453,811.428438015190295118373,-697.967307433888322520943,-173.413934557724189744476,164.111439687207052884332
3.14250000000000007105427,0.503026078077870697491392,-0.413136179664789104926115,0.258432723854340906655125,0.0149145256373413373496284,-0.021614776802845358377736,0.000457151801127755538778352,0.000426757667064693460914904,0.00178569724347674434368483,0.0566061077513048543918828,0.998394404315005035144281,-0.0259821427818736003234612,0.00988462138597201792067359,9.71759358683206286855238,0.0225812729887839708231567,0.0138104911040795984983331,0.00890458064752952874187919,-1.67521195241503706441222,3.48853640335422943152821,1.23133457320562689218946,1090.05114457534159555507,1105.12842678288848219381,1107.5389891639958932501,1086.52268457836453308119,246.743372129645450741009,739.832162229520122309623,-602.065431818040565303818,-221.831618023957332752616,164.110382632158660953792
3.14500000000000001776357,0.249823505566262898947016,-0.472515502005323773104806,0.200393433314005303680361,0.0160259538355643320339805,-0.0226863324176480446459081,0.000882924301164831129562494,0.000448434863538600106316195,0.00171489925724612065315033,0.0566145273695165193728052,0.998394046538659374334657,-0.0237641769524137361213612,0.0108845659342718392714744,9.71834583278073615986159,0.0224059939087558161741054,0.0137123495810533204547488,0.00874304298774858899834239,-1.67516051951115563234396,3.48857335359204556723967,1.23136329882641915034469,1090.42380196689782678732,1106.66494924053426984756,1106.36981218294636164501,1085.97769404432597184496,60.9590862015933723228045,529.019247298822278935404,-348.030948046705987053429,-209.659598849025229583276,164.10955814615559233971
3.14749999999999996447286,-0.0241726165311691304493635,-0.517538259391701616074499,0.124172247908016189499314,0.0163768658113263715359054,-0.0241038780016105819159478,0.0014307596201641164385121,0.00047760446005394363360938,0.00166740662815926762342633,0.0566308183596578307295033,0.998393214496808845126452,-0.0216950632883969110609179,0.0122617674955417116366974,9.71893891218807581822148,0.0222359807242212097200262,0.0136192169090145320103913,0.00857694499968715030890909,-1.67511450878022682964286,3.48860687346696973776261,1.23139263743229454561856,1090.35594000634955591522,1107.7735230193825373135,1105.79883442376240054728,1085.47438658411942924431,-125.073766652442770919151,370.563841726433281564823,-93.4196848095345444562554,-188.395286248946291607353,164.108794668850464404386
3.14999999999999991118216,-0.351171554792895967977984,-0.551045595033530455353343,0.0136389205365559859628455,0.0160436345787414794128445,-0.0259856776953092463711137,0.00219533870967370502158555,0.000516658860677785794664196,0.00163609434326256468657246,0.0566499487802568923999758,0.998392197702657191449305,-0.0196528420744515389118057,0.0140370951833674491304738,9.71938657528755811654264,0.0220758156088087138801956,0.0135356689033213004047518,0.00840343469142661864124122,-1.67507162488934913113781,3.48863895328574136200928,1.2314208661568444291845,1089.79843313363562629092,1108.51776844916639674921,1105.90271375889869887033,1085.03571761308126042422,-264.158175397102411352535,172.625641627659234700332,158.796949482351664073576,-121.918852999399732084385,164.107951837373548187315
3.15249999999999985789145,-0.601339988333556840771621,-0.562706604765024986924971,-0.0884404578742111063816012,0.0150406201586352119420331,-0.0275799032338857087742756,0.00272920754875123584490271,0.000565682255222875354609691,0.0016145063593395072958081,0.0566693127431728838061531,0.998391148212778745119067,-0.0175398304394999218769335,0.016176751096113557715217,9.71971174518739822190128,0.0219289755550264447991893,0.0134651542679650754880116,0.00822089066662526346540574,-1.67502923853513907559432,3.4886710219470460359048,1.23144647714083044220956,1089.03514912936407199595,1108.636651227520815155,1106.59281917117414195673,1084.86479231912244358682,-333.074992000479369380628,-49.2869745165047277168924,360.435724657257424041745,-22.4962520831907859530929,164.107312607770467138835
3.15500000000000024868996,-0.801271471577127858409995,-0.563172486237858871405138,-0.184798427448169516607024,0.012929143397975855975246,-0.0290609519367642787912587,0.00267166596463829387336775,0.000619860105186679859710919,0.00160372594388931313628965,0.056690364150365220308192,0.998389978659932397775378,-0.0154175533853742538492604,0.0185510225565432285144141,9.71994417180027348024396,0.0217975227539811411414661,0.0134098482125120949809416,0.00802906063850922051272629,-1.67498572891833719111787,3.48870499099903330630923,1.2314679594685686847555,1088.13305817363311689405,1108.27133357658385648392,1107.70489238218510763545,1084.92323635266529890941,-355.31699266286852889607,-215.188770041535491372997,469.818136727522073670116,59.4799142614152387409376,164.106741265102385796126
3.15750000000000019539925,-0.940905135305373341303437,-0.561268982184743747687605,-0.258580944362295339633562,0.00990558989074984130862589,-0.0303664142054752422827946,0.00181114950272519693690032,0.000669712492308955254123604,0.00160316767821634328927694,0.0567095166293813263136414,0.99838889397452923457621,-0.0133262439975337168562852,0.0209293465565044967124919,9.72012039109317349527828,0.0216821135489876741508919,0.0133712150796362373716963,0.00782822477631189839186732,-1.67494053674018306132609,3.48874120682601862597494,1.23148565283095745570563,1087.25856416604960941186,1107.56070737731306508067,1108.94190985481191091822,1085.16219189042953985336,-310.82095310881169325512,-349.021394582549135066074,466.688897010736525317043,130.126529197153161021561,164.106227952356022115055
3.16000000000000014210855,-0.995633248071748466756503,-0.565643950159687713963308,-0.284133075685586100611602,0.00651429875771278484031246,-0.0314506808039991606062991,0.000219858072103028376505229,0.000707081894409315194448273,0.00160981711331633519680706,0.0567256034205826376037862,0.998387967388137842483786,-0.0112617477889019809711435,0.0230985055776547557049305,9.7202821962412304657164,0.0215824952445395415456808,0.013350060674149509185038,0.0076184929686847870436428,-1.67489371281327370510894,3.48877842033833074353311,1.23150140586711009937915,1086.57895340808909168118,1106.52622660367114804103,1110.03833686723874052404,1085.57386899865105078788,-220.722161839062380295218,-502.443850392375452429405,388.153287746089631582436,202.702092776921517724986,164.105786658070314842917
3.16250000000000008881784,-0.967206178540972905111062,-0.586758068857706205356806,-0.245107756243214541802544,0.00306077776454991620086465,-0.0324510854665857328971157,-0.00185049066356920781893647,0.000731611167663348874699858,0.00162169056624336910092665,0.0567387020704124972469984,0.998387196041510383004436,-0.00923379292570374737847416,0.0249941331419538254055013,9.72047434141250299433068,0.021497747219781686983664,0.0133469006013906509033884,0.00739941610956823710154584,-1.67484511272863456632365,3.48881539560702025326577,1.23151709007187459832267,1086.1549533568543211004,1105.04848812535124125134,1110.88267629354231758043,1086.17570235431412584148,-75.1791379115291107382291,-560.298858074214081170794,204.68913585214505701515,222.469970089973884341816,164.105342724745128180075
3.16500000000000003552714,-0.879186577830314397452582,-0.618274930293874702691426,-0.158568697578777589862753,0.000935399909228247766063147,-0.0331087508987574705154877,-0.00321450811193549042601991,0.000747238661625508073481361,0.00163203903338983479301416,0.056748019194417874400127,0.998386632831794407216819,-0.00715579481134261813357611,0.0266282910876018685808475,9.72074359693778511370965,0.021426616998584460671573,0.0133620308655359940064322,0.00716977241553478326918647,-1.67479481530631058028291,3.48885188573634508202304,1.23153436055437248697331,1086.20305771853145415662,1103.72473231330013732077,1111.0617825464994439244,1086.68621884910089647747,106.614270726324775750982,-525.5294690677259268341,-41.1614323275452633765781,187.473274181051607456538,164.105045504601292805091
3.16749999999999998223643,-0.74474964118927777789736,-0.654098271626299743175537,-0.0371815980617752617209959,-0.000572211635654759826798144,-0.0339224345267323187935737,-0.00383619268138898298486916,0.000757596379278824738796871,0.00163228136963263566368287,0.056757321640219383918069,0.998386074802680711925973,-0.00490536078544216019858837,0.0280061584885417311219236,9.72113666521702590728182,0.0213679023145356521140581,0.0133951564768222258772212,0.0069280211421524195286592,-1.67474303078236874675611,3.48888798930853516466755,1.23155448391736621616133,1086.68802471048593361047,1102.42084078001266789215,1110.67686913190459563339,1087.11306872521936384146,300.53046469357201431194,-547.758787404575627988379,-270.698808159846862508857,153.032901203736031447988,164.104824963091289191652
