t,ang acc x,ang acc y,ang acc z,ang vel x,ang vel y,ang vel z,quat x,quat y,quat z,quat w,acc x,acc y,acc z,vel x,vel y,vel z,pos x,pos y,pos z,mot 1,mot 2,mot 3,mot 4,dmot 1,dmot 2,dmot 3,dmot 4,vbat
0.0025000000000000000520417,1.20107292500948026336971,-1.47074053666041248966678,-1.13449762656679076222588,0.492291862526048340509277,-0.241313010326003385408455,0.000315676911370938763357064,-0.039668174759429158937607,0.00110839340147651267687312,0.0672368856118117502740361,0.996948452255504324881485,0.19050903639222452334856,-0.262555261273968887358876,10.932447848596103412433,0.0433852465198671655155493,0.161065616841116893143138,0.726098838439089844243313,-3.98427764364102854344196,1.2319038202069170218067,0.183709648678450021552777,1186.12028730850329338864,1228.87320417963587715349,1252.14149225283722444146,1166.66465628915693741874,350.488676476561522576958,-1308.80091553181046037935,-789.23593638173770159483,-866.186142983497120440006,163.936878340351626093252
0.00500000000000000010408341,1.88500505911599791630806,-0.990309526589290278764111,-1.02485436324907519534122,0.493186674094720167715877,-0.242491939013726925944425,-0.00449299429337959421032478,-0.0389739112031709244998723,0.00078895471119624655670366,0.0672532056449757220661922,0.99697380234478327754033,0.195673121672173433438502,-0.25290377787261897335469,10.9411073221801391497365,0.0444682007983802154993391,0.163435301530493154453794,0.728640511767433385337256,-3.98422945903832292913194,1.23246763112043211663149,0.185504767841802059580303,1186.99650899969469719508,1225.60120189080635100254,1250.16840241188288018748,1164.49919093169819461764,482.942342013939253320132,-1171.68722424544307614269,-830.080656942937025633,-1017.61418779910866305727,163.952969104157091351226
0.00749999999999999972244424,2.6464928629041377661224,-0.396498166912837068931452,-0.758964026662266366685117,0.495608189221976136451531,-0.24405284296249110664867,-0.00806268253544258767240294,-0.0382746654442871273027471,0.000484533516796171331592752,0.0672702471763876874710775,0.996999183762847462908496,0.200486501156261709422068,-0.243156324412379248878224,10.9497262247458841954995,0.0455354892079270628935106,0.165824623744643628864281,0.731186514011989530104074,-3.98418136673691236637751,1.23303187089238508455935,0.187299050408371747789005,1188.53499901857298937102,1223.01476805840866290964,1247.99108896812253988173,1161.57658535016139467189,635.50944777148288267199,-740.634985618771679583006,-748.205042329118441557512,-1128.61111535289637686219,163.97140832173255375892
0.0100000000000000002081668,3.12883851907184862284339,0.160132843062247204324322,-0.479905047791538585943982,0.501753672248162585489695,-0.246107725739004967735468,-0.00863711652274717391064573,-0.0375720059033194386799437,0.000199450596582680713536595,0.0672875311532896008825944,0.997024504880434370157616,0.204812874138625672371106,-0.233390915314503039068583,10.9582637919272372073465,0.0465810751117777949170673,0.168234601122300347908478,0.733746151178086281063884,-3.98413259969607658206314,1.23359656353079549795382,0.189091910085736614188789,1190.17405623855211160844,1221.89802696271249260462,1246.42737720023728797969,1158.85613535493371273333,702.757075364115621596284,-282.399693834895458621759,-591.840477843788789868995,-1136.48775199876558872347,163.986056672571891112966
0.0125000000000000006938894,3.2952242240809983542249,0.825937067582260375786518,-0.204945175761862968810689,0.513369303800750409472187,-0.248168177411531715170767,-0.00738470102657486429653666,-0.0368714247258139435348134,-7.35054759808396849943626e-05,0.0673039063195386422222555,0.997049583728997990128562,0.208751417415636325580763,-0.223800136823780221329017,10.966656973639798522413,0.0476148191317271041178572,0.170659450812986612788791,0.736329811265520661756057,-3.98408276100718072854079,1.23416175378502890325194,0.190883712460225923868151,1192.04878439539356804744,1221.60276958923418533232,1245.03188657890359536395,1155.8941465901675655914,760.081645386571949529753,-36.7669908276639105793038,-572.500340903207074916281,-1203.95057016280611605907,163.999969493493182426391
0.0149999999999999994448885,3.09824889439926343115417,1.58540156687362965293175,0.0371454789799150128515315,0.526758822099368972935451,-0.248743192599427453970407,-0.00581447092669995415498141,-0.0361793915250561703977894,-0.000340590183509102543447933,0.0673172793925657236835391,0.997074284410319977567383,0.212369960015948738840663,-0.21460543370597803813915,10.9748268842632068498233,0.0486446257424853686912591,0.173091564857062063520488,0.738947585431020348423203,-3.98403107925331578798023,1.23472777503134456544842,0.192675822784719980029777,1193.97446446548497078766,1221.71419200857417308725,1243.56487549572125317354,1152.8363825041196832899,743.82060926259316602227,68.9936267118809922749278,-675.365193236711888857826,-1207.35825980882486874179,164.013280038188554499357
0.0175000000000000016653345,2.412591159029879861464,2.41109726654900047293495,0.232933075395811317598316,0.538407037799144116974048,-0.245624906334657694406687,-0.00494121503618609632380032,-0.0355030700406951948977508,-0.00059977711012678465874598,0.0673250737797410486740191,0.997098496388303168203038,0.215546652040422226370708,-0.20603682091764344286311,10.9826839774045090791788,0.049665882892681985361083,0.175522082997611156285345,0.741608634927204968256831,-3.98397742926657505435628,1.23529518815160055389413,0.194471579260887011963987,1195.76788744170653444598,1221.94773772279359036474,1241.65506061272003535123,1149.85735529112344011082,712.414367994278904916428,43.0115450381435877602598,-1031.9260276011389123596,-1234.81107533007138954417,164.025874341995404392947
0.0200000000000000004163336,1.06534649171864859162895,3.37008365559972844494041,0.426922996913364327653539,0.549032071029834423114835,-0.236640694976458371145966,-0.00504864424423681103226702,-0.0348480862041517167049243,-0.000845572688927074406217699,0.0673285854361599239714664,0.997121917000604929270935,0.218082336082945971167391,-0.198288889544312257884329,10.9901296315712535545117,0.0506703809979312039257771,0.1779428337750338373624,0.744319318282518960216976,-3.98392289878465177821454,1.23586545786815782399515,0.19627442197301167570167,1197.53653630545636588067,1221.92924973376489106158,1238.40524535771555747488,1146.66232712746932520531,557.410240885247048936435,-106.882638073193504624214,-1394.01705927853140565276,-1069.29109886396008732845,164.040173305108055501478
0.0224999999999999991673327,-0.396084686252538842321513,4.05538255970775463055134,0.560977639119917714793928,0.555039407722406785694602,-0.225319538721897805189087,-0.00538055232281684382017461,-0.034212573276736074623372,-0.00107089434569877166129881,0.0673318315832409780563594,0.997144331509178472039423,0.219751672922048557623498,-0.191387858952879269525127,10.9970601390250468654131,0.0516492062914715860388881,0.180354832844967560845362,0.747080565519443018374091,-3.98386823779898202602112,1.23644001767141564762653,0.19808675295086569656533,1198.5549386461327685538,1221.41332453242762312584,1234.68497531632738173357,1144.51089979680364194792,289.08965172645361008108,-346.217557677618913203332,-1702.96189890805158029252,-720.918831096150711346127,164.051421288219444249989
0.0250000000000000013877788,-2.0111713511888624772439,4.54482629271753246769094,0.653787004917738667764127,0.555512215542363629872114,-0.211554071227652434883382,-0.0047116790356062504541157,-0.0335930092851419101473986,-0.00127168511481886951919318,0.0673372709363409538418921,0.997165680879551485915613,0.220395456612361956283408,-0.185319868903131318438327,11.0033675397373276183544,0.0525971552884903492675051,0.182759593415567550556133,0.749889670604295011102636,-3.98381427452143732637069,1.23702034485999279311841,0.199909773167584375874739,1198.9819845640886342153,1220.19816194537679621135,1229.89043586317529843654,1143.05773297198857108015,32.562375725683516236586,-702.537743439779546861246,-2297.06621265872809090069,-460.618636105073051112413,164.061989410832609337376
0.0275000000000000001387779,-3.80864694524227331839938,4.87841049211943378338674,0.678663572375186152640936,0.5443332587712916836864,-0.195112174761197965100479,-0.00233065043044862864676792,-0.0329804420851424265337393,-0.00144596900896697567323601,0.0673473441129572164554062,0.997186075469023935902158,0.219908713085818136034888,-0.179943178292636590809295,11.0089448552575106532458,0.0535122521586982521912823,0.185164854634749187489717,0.752739298008757273805713,-3.98375995009051653283905,1.23760747399979842420237,0.201742943340247199435211,1198.71775052476118617051,1217.9006358152287248231,1223.19964425303373900533,1142.20780661627827612392,-235.375661483067347035103,-963.38047181216143144411,-2527.75976696812131194747,-165.002329167055080461068,164.073901082857105393487
0.029999999999999998889777,-4.94906986433013340587195,4.96660254289745584088678,0.595970484897280994296409,0.524871246343721287175299,-0.183361441171261546623228,0.000554740076924945435705994,-0.0323711144436532038959342,-0.00159673347975249025829103,0.0673630453235347925744492,0.997205511637089481169482,0.21828996838128547630653,-0.175221680256106654427484,11.0136872407122812234093,0.0543983375146240497044481,0.187568836588205445359279,0.755621644113117385543887,-3.9837048554587854987119,1.23820238934572324218664,0.20358612645723775380624,1197.80510625667329804855,1215.38125958631599132787,1217.25163702833469869802,1142.23272132615329610417,-513.272964786210536658473,-1088.27880271396657008154,-2334.12930169010860481649,142.64522495755042541532,164.083197302840147813185
0.032500000000000001110223,-5.52876197572164684856943,4.90395973647897243097304,0.383225873856456344945798,0.501204985510212419619336,-0.173183275975530903689759,0.00372692092667618705970067,-0.0317692358955613610160817,-0.00172927082917397945995008,0.0673829967424114384400013,0.997223834202043191154985,0.215580823186115655420991,-0.171279168153492172832486,11.0174967498242963870325,0.0552604956987005485613551,0.189956672734426401660812,0.758530287270857805914659,-3.98364953588738579526307,1.23880575704557105432002,0.205439587966393583107205,1196.15138570083013291878,1212.45924180165889083582,1211.52899774458319370751,1142.92103274106602839311,-781.176479299437460213085,-1192.25843347635304780852,-2158.51154845808923710138,360.629423354202685914061,164.091852867979412167188
0.0350000000000000033306691,-5.62768680617570016266882,4.74143162699272746607448,0.0663640296164758475283563,0.479924592076161171672055,-0.162804175440309895073199,0.00659287633065534697113241,-0.0311777402501254748135029,-0.00185068878322752045605115,0.0674034313622113301356364,0.997241043152871986521291,0.211871399637975271756929,-0.168193751428167309613926,11.020287038007237967463,0.0561052528864297433974784,0.192314827720828529500352,0.761457257671918519292831,-3.9835943889084903801745,1.23941733783676211189118,0.207304637262477248205172,1193.89922386017610733688,1209.41996741893422040448,1206.45907928604424341756,1144.03586844292431123904,-1031.637625028361526347,-1192.30416219252288101416,-1777.40822800838122930145,513.124725496709515937255,164.099986907475113184773
0.0374999999999999986122212,-5.27111694399085806139738,4.46819592464336690085247,-0.338718973349151797336276,0.465596872923927262988286,-0.151378785794220482863182,0.00805716954686556963149968,-0.0306012172691067750596172,-0.00197226619017796655358721,0.0674188366851382753219823,0.99725722365849556183548,0.207350602170317616090855,-0.166065256459350690798615,11.0219840285790819933709,0.0569440752294247468090482,0.194626944848891675343694,0.764394512607031062501051,-3.98354022134752483452758,1.24003678697142549758325,0.209182093357232867791851,1190.99319757568832756078,1206.49772099069627984136,1202.64195660454129210848,1145.48665636854957483592,-1399.45179320648162502039,-1209.63611176757763132628,-1316.39337017163666132546,673.377277088775713309587,164.107503448141756052792
0.0400000000000000008326673,-4.55883241850717269016968,4.01950851349262983092103,-0.838923423857640848666506,0.456451805671122035068521,-0.137216115550538697576144,0.00686225453943982433013815,-0.0300435234416127142087483,-0.00210027372793943935269656,0.0674255939834295242585327,0.997272655458712575793356,0.202112045910425780492758,-0.164950654764158571863319,11.0225309947388439013594,0.0577812129086164374958123,0.196878534280368666653516,0.767334482020183727968288,-3.98348708173445587021888,1.24066376695386448858471,0.211072133031458247787171,1186.90196489414370262239,1203.37178686009633565845,1199.87711243518606352154,1147.40275482836818810028,-1569.88820170331428016652,-1067.81720482176660880214,-699.42334978945780221693,708.611008851402630170924,164.115823596891004854115
0.0425000000000000030531133,-3.88384841977370953713944,3.56504708437078754457161,-1.18749690030560306475138,0.452073292607611587623495,-0.12684797016998558549794,0.00294013831571496688302436,-0.0295022895371829067812097,-0.00223582228103402823674029,0.0674232248870314382349633,0.997287637228168155623109,0.196161467465965938528072,-0.164744695006579150442505,11.0218890824643391823656,0.0586142845199882980833372,0.199065821934975240026233,0.770268622850813100555456,-3.98343402252026201892932,1.24129775816823517686771,0.212973882520527818540401,1183.14375656717174933874,1201.15863496658744224987,1199.14483985559400025522,1149.02971141280659139738,-1530.60616119296423676133,-813.703193499259668897139,-2.43890150541119643534671,641.111233223364592959115,164.122183939593440982208
0.0449999999999999983346655,-3.22465868360277685411575,3.07553867592152219145873,-1.37941352447493104094178,0.446556348621345966520835,-0.119522239930910018079757,-0.00329057957944676928579986,-0.0289693235731379207520408,-0.00237347773067012870681913,0.0674109481395101378664592,0.997302618833196041769895,0.189385717742184322975874,-0.16518760202299406780746,11.0200367222709747494491,0.0594303516255849442750936,0.201196307392577045103366,0.773188303795405929008666,-3.98337962956460422958571,1.24193751543748032162284,0.214885193293329002095504,1179.24893408817888484919,1199.30327089260003958771,1199.86491792765900754603,1150.60831099448500935978,-1686.78680674838778941194,-771.432881942746803360933,559.964370598754840102629,677.147066182260800815129,164.127960829498107386826
0.0475000000000000005551115,-2.4754965713750833877782,2.51118556964078631921211,-1.37854023164984940130751,0.438993435597251180357858,-0.112972008419309682958342,-0.0108919372067740188869678,-0.0284366396570691383482998,-0.0025052838719088559547854,0.0673900447531348978369437,0.997317828748946810790699,0.181635038463043491097082,-0.166007679204469238420927,11.0169656391555665919668,0.0602123745698442611185008,0.203279252859352915772106,0.776087281549457830287508,-3.98332261416277511045791,1.24258162874175059897652,0.216802661196423301914749,1174.70982253342981493915,1197.30147055687370993837,1201.94466170858777331887,1152.41544674371789369616,-1598.58384903536580168293,-730.816778735106026942958,876.043264101553290856828,648.948170228413232507592,164.134231260631850091158
0.0500000000000000027755576,-1.87921958614054429581586,2.09396917732813880874687,-1.19228358608114182182192,0.434232467907057662070969,-0.108536301097332657517036,-0.015838530220013750243746,-0.0278900344319621684707755,-0.00262185028451088555923043,0.0673633724952706625099808,0.997333540237303250997059,0.172757312702351090161201,-0.166785044653260022817776,11.0126794514210981645874,0.0609415022164105160684677,0.205335765964177047182559,0.778958957238767735198337,-3.98326071759498789859322,1.2432284660427386224768,0.218723192580892483727339,1171.25601484300204901956,1195.64918699892450604239,1204.24513424816677797935,1153.85305184562707836449,-1266.21874258544335134502,-691.544563864545466458367,923.713081823735137732001,566.24937302190141963365,164.138914273067797466865
0.0524999999999999980571097,-1.29579293873346368393129,1.75247005922314835757447,-0.862869795887081680874076,0.431350405841354644920216,-0.104966725018566131577558,-0.0187497938933207410061588,-0.027323323591499189960663,-0.00272062960093170805656038,0.0673317762330421926142421,0.997349916301827343900754,0.162757523797442987811834,-0.16727980824370944357149,11.0071873111652145382777,0.0616072094393908947784766,0.20737627203073305537373,0.781801045440877917513944,-3.98319307726398585955963,1.24387645771804034033892,0.220646368748126958658773,1168.37872882050260159303,1193.84374773755098431138,1206.56322711770644673379,1155.24669360882739965746,-1027.95516923088189287228,-759.407693959156290475221,852.025897188150793226669,557.059160118615409373888,164.143045508796404874374
0.0550000000000000002775558,-0.702461912544836586391739,1.47579170002146486950778,-0.467344234538509761822667,0.429065784792640736444724,-0.101969790569511373212741,-0.020028152686980025404262,-0.0267370611851692405180891,-0.0027998700921935751328995,0.0672974597261704193806864,0.997366857743354762178001,0.151667840526757524699519,-0.167399664709895257264094,11.0005049260042895298284,0.0622003714643467736644666,0.209402201940858651019184,0.784615006646295798375945,-3.98312068777590599921723,1.24452493800625041409091,0.222573158826425948619843,1166.11623899684764182894,1191.85214852912872629531,1208.50526373410752967175,1156.63834764622015427449,-737.980694243787411323865,-833.763486171618865228083,615.918650283264810241235,567.506751680047727859346,164.146727682193869668481
0.0575000000000000024980018,-0.0654524743544119269600401,1.26537953050352669492895,-0.0566136265063626048510415,0.426354448268566277313596,-0.0994638324228291070827623,-0.0195936175835041449799778,-0.0261317952292329860886078,-0.00285372302478041281470489,0.0672639863855772346390438,0.997384224524947349266313,0.139448944080436509906917,-0.167047624843608744082957,10.9926560423106973729546,0.062706997584067156181753,0.211416458650549143882813,0.787403019705932294414197,-3.98304426155776303275502,1.24517341989564278570413,0.22450312093314914174691,1164.68882534928366112581,1189.6749303066928860062,1209.64282036912277362717,1158.08422736722764057049,-432.081446178654232426197,-962.989150826206696365261,266.835069220951595525548,663.619306877399480981694,164.149878819862067302893
0.059999999999999997779554,0.770856074880758801448621,1.05855884919535458976725,0.385275642237203452822314,0.422772550468062668915792,-0.0965005315976434352442936,-0.0174634410331444139830026,-0.0255158109725685082469493,-0.0028818265181956991168033,0.0672348151511718422623787,0.99740171298328594851057,0.126186320517928551865339,-0.166308497132695243259093,10.983668445712991612595,0.0631221563635618182486198,0.213409890208979102776965,0.790169740641509354972527,-3.98296556413453783918044,1.24582175073542411603,0.226436881955645485930972,1163.95583176595437180367,1187.03720277499769508722,1209.83943908021228708094,1159.95644418060714997409,-118.437172293170135617402,-928.229139435143679293105,-125.230039565622121244814,715.569786465949050580093,164.153059995138193016828
0.0625,1.50235241660682583564324,0.894289841033506172074397,0.678146803721509372486764,0.422389833575671724830158,-0.0933971706144289259832192,-0.0146949200052117617820713,-0.0248979967455022141442633,-0.0028828571384258133009082,0.0672118124681372053341732,0.997419084820252765943849,0.111956058836698929548348,-0.165284597681428363502576,10.973577640505514096958,0.0634403629810862540461258,0.215372706460749213652761,0.792919314503368832802721,-3.9828862298406790820593,1.24647046769632430240904,0.228376434830482727411649,1164.09663948781781073194,1185.03378460951716988347,1209.01667017129466330516,1161.66207629955738411809,181.729002315841910331073,-702.6979387044769964632,-504.855733131898432475282,707.110938295999631009181,164.155220964364957580983
0.065000000000000002220446,2.1811952586266221132405,0.706500203539404569852422,0.878162957791999820855722,0.427318218132860694336017,-0.0898554001408952418561427,-0.0116018019814095457720171,-0.0242857823978575373957689,-0.00286442069769560865230562,0.0671942323296328969384206,0.997436004152164934488667,0.0970410409105589844003248,-0.164067100518884845250511,10.9624264613918178667973,0.0636709560291219833771947,0.217296401273070816095867,0.795653090393676820646363,-3.98280880718156859998658,1.24712083974724752266638,0.230324085610513484834172,1164.86447677753358220798,1183.52371308147530726274,1207.31516041455279264483,1163.49199887208715153974,433.10841197180667450084,-493.946101492928846710129,-891.723709218421504374419,806.1594865607269184693,164.156885576675364291077
0.0675000000000000044408921,2.80501032160692087558118,0.442350791875326720958839,1.02276530808336785227652,0.437221578659285792234357,-0.0868960098156929677815086,-0.00848726264843196326337349,-0.0236813430243987994849864,-0.0028372338707940429787524,0.0671808200925811532799869,0.997452278430723815461079,0.0818060443587522445607618,-0.162646334557400379372538,10.9502694315329627272604,0.0638303256794238021987198,0.219179921091865709259494,0.798368349192465909247574,-3.98273460186498606816485,1.24777385988240774317148,0.232280867191155454554163,1166.26218154767684609396,1182.56405410205252337619,1204.55805162520255180425,1165.69287373236102212104,549.234410133839901391184,-188.908902798948304280202,-1080.14188600545730878366,774.736118485861197768827,164.158323603588314654189
0.0700000000000000066613381,3.09022660117027880843921,0.200929851660425623505191,1.08317259908718122041194,0.447072981914688805105129,-0.0861370120519851373286357,-0.00665338776841843237280782,-0.0230836867593453530511649,-0.00281329803949056022824293,0.0671725653225227203879655,0.997467701590275535039609,0.0666520571598386013523196,-0.160956435534854530589044,10.9371748997485465082491,0.0639398132830207022170299,0.221026239221693593384188,0.801059473879014771746654,-3.98266281397441668232773,1.24843022714582985166487,0.234245983627170167862275,1167.61064882820278398867,1182.57916856748056488868,1201.91445098452550155343,1167.36567946451646093919,522.501768761186326628376,167.067582212257860874161,-1074.92055341949912872224,589.559225072208619167213,164.159066041216448184059
0.0724999999999999950039964,3.08500369997435663904639,-0.0403685225313049345086114,1.10102869050312479615172,0.457767080968118800221589,-0.0864294389574411514587382,-0.00524552289459173995411767,-0.0224930691004399697929816,-0.00279964087947824017549303,0.0671704213689894719108153,0.997482105931052909220114,0.0518691231967445404160699,-0.158962954233523356961655,10.9232266987259620805162,0.0640138289203332072618835,0.222836374829633254712746,0.803720737806570495465053,-3.98259335016851823141337,1.24909005893895619365708,0.236219282687310710988626,1168.8746903914827726112,1183.39939201311381111736,1199.18344885810506639245,1168.64066985772205953253,450.855357911587759645045,431.28665413291935237794,-1076.35859823294799753057,413.607745383570431840781,164.159347306266369059813
0.0749999999999999972244424,2.84226330769295865152912,-0.267657439477928082993685,1.08677238775852202934402,0.468175990795271890210216,-0.0870307154876857058667383,-0.00364322608063419014004514,-0.0219087287708603535574259,-0.00279668430021699646395583,0.0671746923349854085927291,0.997495449431510583515603,0.0376018712622423409430716,-0.15661136934199040848803,10.9085248804782146692105,0.0640567002826237519297337,0.224613420878319480777918,0.806345644475352396618462,-3.98252625294219297913401,1.24975347841130401960186,0.238201482157047561560859,1169.86492561776071852364,1184.73560183814515767153,1196.5326579933607717976,1169.43371819143430911936,288.666323639153858948703,601.343639033211161404324,-1019.2079034670759938308,181.617244614744606678869,164.159254925544900061141
0.0774999999999999994448885,2.36704333312234638242444,-0.466492051665243989688747,1.02093998444042544093691,0.476131408219337748377598,-0.0878408536875513873409815,-0.000808297439992589918621169,-0.0213296683330166450542897,-0.00280331512570460754732449,0.0671848085090711866218527,0.997507788217514734796509,0.023957246142611979267123,-0.153851952498587490891779,10.8931849726446312587314,0.0640701230730861270856735,0.226361001125683636292507,0.808927013196813038398147,-3.982461517124759264874,1.25042028211325573217039,0.240194014139938766261295,1170.31802200967854332703,1186.40611020827986976656,1194.08740934076968187583,1169.54875608079578341858,44.0024214893582694685392,727.942413432082730651018,-1016.60240091414289054228,-97.3209405625310921550408,164.158722353500536428328
0.0800000000000000016653345,1.64459259617399666808524,-0.658492211221147760724648,0.860560284330556868326312,0.480539396595659640265552,-0.0892778919761080119732455,0.00422589447044232138783748,-0.0207565565320492646794737,-0.00282373155767387268993973,0.0671988926632958449847166,0.997519232908817943261681,0.0111486590642706530351891,-0.150691325763896294409605,10.877337260093112192294,0.0640634359649462914454432,0.228079704360135415708299,0.811457594248296332217762,-3.98239851122285548612467,1.25109004602860185428881,0.242197815757310586093354,1170.08493772520751008415,1188.37531390530557473539,1191.44964598879005279741,1168.94711348862165323226,-215.113898344134014450901,659.057513969354999971983,-916.287419662420802524139,-310.806466169924249243195,164.15758745642375515672
0.0825000000000000038857806,1.00486444360339488568457,-0.767852405844814178692559,0.659468186565941527632617,0.48011798928448135015401,-0.0912085415401056170958682,0.00840577173387292882200672,-0.0201895211114693426401878,-0.00286127712023490510945267,0.0672144637663028288177003,0.997529959774520191828628,-0.000636414179224432247083953,-0.147135355856334831825549,10.8611265742176161808175,0.0640441520143181647339858,0.229771326535988418271472,0.813930260614080691716765,-3.98233668918342509357444,1.25176248383120847229577,0.244213976046743386216775,1169.24245251795787226001,1189.70139777812664760859,1189.50597224245757388417,1167.99472374994616075128,-443.218102211130428713659,415.159592771533084487601,-724.913079486349715807592,-408.893693374875169865845,164.156237848045520877349
0.0850000000000000061062266,0.391552498830945894248146,-0.811164749522969685813223,0.425048039650322728721932,0.478657648222130693849152,-0.0939464059386782290861362,0.0105903522314107004231865,-0.0196273647963463096499659,-0.00292145808199324426637777,0.0672301886050779562431501,0.99754009446999036825332,-0.0111704594244192816077099,-0.143176395750106183468731,10.844710343682661957132,0.0640236472608701340236692,0.231439695551062196710035,0.81633807950070313985691,-3.98227533586744186777651,1.25243677106125916864698,0.246241634807666032180862,1167.86884721415185595106,1190.45111186916324186313,1187.82508059135830080777,1166.90264502174727567763,-666.581046804867014543561,171.387364681595357751576,-675.500491154206770261226,-419.604564846212781503709,164.154479878312145046948
0.0875000000000000083266727,-0.308322632993358547448537,-0.782580008842391317003262,0.181694033674584781712369,0.479022260632676166736132,-0.0975045721153999789265754,0.0100608935494816351119418,-0.0190671477994952681678242,-0.00300647030030530646588227,0.0672457880065873564445766,0.997549738592081070009954,-0.020304932981268616204451,-0.138775991038133844623914,10.828255573688347013217,0.0640083130678758271958628,0.233091978963195806118236,0.818675383116731381072384,-3.98221407959585782521117,1.25311255597948245643636,0.248278315741362165525175,1165.90954728393353434512,1190.55833460153462510789,1186.12846978668653719069,1165.89670092571509485424,-718.850005775722365797265,-88.6358437606306210909679,-561.810113362845299889159,-252.687196145280296377678,164.151910649156320687325
0.0899999999999999966693309,-0.877445709668941309367085,-0.701994781308598714275604,0.0644967285886467039945913,0.480820228461029175459629,-0.100155601121651893770093,0.0074934650104931353753468,-0.0185114184369421161391323,-0.00311430694388466645233793,0.0672579556777983950111022,0.997559100736234660722346,-0.0280015940316404692012053,-0.134019769568429342188054,10.8119340327288888659041,0.0639952732594912393482289,0.234727403772125586822739,0.820941810486153111803276,-3.98215220493001620383211,1.25378912509022266696945,0.250320083877296983843053,1164.27459718527325094328,1190.00793265036008961033,1185.01603002454407942423,1165.63920904102087661158,-601.34228810693571176671,-326.485606544247900728806,-370.612014263634364397149,75.7433290981681750508869,164.149396081790911239295
0.092499999999999998889777,-1.42241255463645455137112,-0.591032798050460383976201,0.0663661900910567786882055,0.48144490025066127847353,-0.102079471137309293893303,0.0046076689773442685432725,-0.0179652851108588126893828,-0.00323663695267459522800224,0.0672621064491993464473651,0.997568439551490881989082,-0.0343734299286040517751317,-0.129049670951882244906983,10.7959182329060325855608,0.0639701343014519446805721,0.23634180728355183576106,0.823141268359866673520742,-3.98208890004055682254602,1.25446614271962197939558,0.252364284726121934632204,1162.90283584339886147063,1188.92590656881338873063,1184.27540971536836877931,1166.27541757120593501895,-481.117647240852875256678,-490.817552301904925116105,-227.592593436702173903541,421.647851747774950581515,164.146506082287430672295
0.095000000000000001110223,-1.89875263641667468839103,-0.484508109342896287063951,0.152286662286949314726314,0.47870416328153098106668,-0.103358134354938277499336,0.00326640979334996695016002,-0.0174285768531714096996055,-0.00336704427938084530774754,0.0672576524455527346990635,0.997577830333428061670986,-0.0394943160610591453840712,-0.12390517011006238479176,10.7803785920575965207036,0.0639241157060571052461739,0.237938743756187232047949,0.825277009780287618134764,-3.9820245070188642344533,1.25514388627946726906259,0.254410388548843624523244,1161.86900894906898429326,1187.55384488885056271101,1183.87806705736056755995,1167.74744829975975335401,-327.020871098238501417654,-577.551044728215288159845,-78.0431144183238956202331,776.168925266528503925656,164.143314646313484672646
0.0975000000000000033306691,-2.1990371600588884959393,-0.42206985276761799230627,0.286923556776334520712624,0.47131558815630819614384,-0.104081181787980717179387,0.0043132916266034352845149,-0.0168958064938194395254722,-0.00349959255881080594230426,0.0672460222402709167921486,0.997587303797522362280858,-0.0434318623778902485055298,-0.118520001555679932447873,10.7654793185499997321131,0.0638511007588709461613163,0.239529854829362842671969,0.827351092223297723826647,-3.98195981890411543346886,1.25582304104510655839988,0.256458888431857434664352,1161.26773148790766754246,1186.03815134517230944766,1183.88519414327674894594,1170.15626219753858094919,-183.101940028882211208838,-649.742192522216441830096,74.3565357774968305193397,1211.24921843274819366343,164.139772603727152500142
0.100000000000000005551115,-2.25204434415744181308128,-0.443947690373639403116357,0.428944809206940336210323,0.459860470718115865729203,-0.104237229418307875139504,0.0070690077703262962222075,-0.01636220417636106289061,-0.00363219297516862230090773,0.0672303706860435390524344,0.997596746641367215779894,-0.0461852984757093604217815,-0.112855757262774025750929,10.7513746228547084626825,0.0637526741931990492684434,0.241124517492416728936533,0.829366352198026235420514,-3.98189559396754289011255,1.25650400135780659915952,0.258510869490382988455934,1160.95349924892457238457,1184.30513392623947765969,1184.24984973624805206782,1173.80369439192350000667,-70.540242472634361092787,-591.651776833850249204261,163.322086017387704259818,1389.76058118232572269335,164.135134691860173461464
0.102500000000000007771561,-2.01143724393903511327153,-0.567582610056081904303937,0.489511519686472162948832,0.450695017634861361255361,-0.103662340770011615620483,0.00990407200007496248128636,-0.0158256759077192443729842,-0.0037645598975923071256855,0.0672139906832455169549689,0.997605983110167460203854,-0.0477343349593239846262449,-0.106939314170836186068669,10.7382053457963717590928,0.0636339751018643734470359,0.242726940096619520081944,0.831327154863211292834535,-3.98183297870992802813817,1.25718694651107165682902,0.260568044027208345347901,1160.91503027554449545278,1183.07989246100305535947,1184.70180457336368817778,1177.10506510345021524699,3.98578808758430414016516,-423.26973511017138207535,168.245436752886547537855,1274.73423658930437341041,164.130960814282190085578
0.104999999999999996114219,-1.51056089411243443798583,-0.80783823224734463419594,0.467727967804248523364663,0.443860852138800165977983,-0.103188369401672572212014,0.0127765348919076666273087,-0.0152865708294824976382076,-0.00389662685993018807761867,0.0671999019258953250721689,0.997614813414522072498869,-0.0480741790330481699733411,-0.10085353113295880689293,10.7260961987235123871187,0.0635009484681245128800953,0.244336723292025576048658,0.833239264693350745183409,-3.98177298765220166743006,1.25787184205844093654036,0.262631070569573021877829,1160.97342818936249386752,1182.18878525068862472835,1185.09107692001248324232,1180.17736557487000936817,29.489783286635486092564,-310.148338844283557591552,112.762932443411258986998,1197.41530941819519284763,164.126483948535451418138
0.107499999999999998334665,-0.720567208741170195374082,-1.19811233599260580362511,0.357418969061252478347512,0.439320591748962652189903,-0.104264991778937762822999,0.0152571287655637686381249,-0.0147466032655918927174454,-0.00402940003843279062611948,0.0671890564183851846102868,0.997623150669843972160322,-0.0471972278157010705079699,-0.094713725093096390317271,10.715153741359898731389,0.0633608324153758645236323,0.245950770445696964561222,0.835109249052929936141254,-3.98171567462837883155657,1.25855875576341702526406,0.264699610178452338082877,1161.06247919197767259902,1181.52915076678164041368,1185.2656192355807434069,1183.09214165054117984255,33.7691141199684068396891,-182.447473328829630645487,-2.73616598992702853010428,892.93258680436258600821,164.120782989478442459585
0.110000000000000000555112,-0.0130511266737737274823417,-1.55866784577894890162497,0.223331318660157096545049,0.438889815607292732568823,-0.107341793973509555537582,0.0160521324380345914439872,-0.0142124486269588502090899,-0.0041644853311127681683157,0.0671808492091993669781402,0.997630930779375590944369,-0.0451089380399523620646107,-0.0887418609807251734800104,10.7054645456768575684237,0.0632210440711440946337518,0.247557284564885654587485,0.836946390000995465996425,-3.98166105019515992324841,1.25924737624768257049368,0.26677366599397323021492,1161.14227375996233604383,1181.27654788404447572248,1185.07739609006284808856,1184.64202850889182627725,41.4857197724358783830212,-61.3166905406159798985755,-142.774195975789439216896,421.847343692206379728304,164.115773737447625535424
0.112500000000000002775558,0.612203318563810272578962,-1.88290736577227235670762,0.0884863101053475209489818,0.442102688805679266970117,-0.113066971358755041787703,0.0155886060815326535355929,-0.0136865689035814801222113,-0.00430353468072580940678717,0.0671748379587619320885139,0.997638137439159078390105,-0.0418262139509000124837357,-0.0830674859333558612828341,10.6970940227169215575032,0.0630899434032471534417041,0.2491509223041474541116,0.838758208961602247377698,-3.98160912244887343902633,1.25993746677780804610336,0.268853172900954062729539,1161.26990779083985216857,1181.22256731407856022997,1184.55174825570179564238,1185.20137836900221373071,68.933390811753213256452,-11.312106580089665186506,-247.912426354832632569014,75.4239433280871907072651,164.11051348384580705897
0.115000000000000004996004,1.08705378484854020548767,-2.13014713427711610549409,-0.0188582316708004182892466,0.447692733338155457456509,-0.120518486665786531131239,0.0145420632487034684476868,-0.0131697691853827607982863,-0.00444935605348529324837292,0.0671705673777962530834884,0.997644773007152152466404,-0.0373572615317597778172853,-0.0777827394869815558209325,10.6900853768793169251694,0.0629781019678050668630931,0.250728479399549009087877,0.840551630821817608030244,-3.98156016650451904936858,1.26062909970219361177612,0.270937365268903773696252,1161.48694071402110239433,1181.21998735114402734325,1183.83783395828868378885,1185.01914822553226258606,118.742647370527166117427,-20.0304000541109239463822,-294.494884190907839638385,-210.587476823684283999683,164.105056961237409041132
0.11750000000000000721645,1.32718426977849324188696,-2.26016551661207243384411,-0.0738076405774562432915431,0.454171679108746728648072,-0.128184527950416127239919,0.0136326330477347795744336,-0.0126597108137756052953504,-0.00460282853730908589340309,0.0671671376704557482328894,0.997650919151101378545832,-0.0317646832252965194420824,-0.0729049655138399310683184,10.684458701768074107008,0.0628928551181018591353933,0.252291811771781560036487,0.842332460960584339382251,-3.98151447072258468651285,1.26132276074979121638364,0.273025474284736224817038,1161.86362102769248849654,1181.12241531380800552142,1183.0792738347472550231,1184.14844098488379131595,209.64204412694056145483,-103.154070078790226716592,-291.242342564465275245311,-480.364254848746895731892,164.099376880533384337468
0.119999999999999995559108,1.34526063884872204567955,-2.29858855934138617271856,-0.0730015851022832173988775,0.46050355103078738361333,-0.135152074225365459447801,0.0129835232387785805274749,-0.0121515376439487784304694,-0.00476292774623780085230251,0.0671647379708464886682862,0.997656624152848947595373,-0.0251639801996358970781476,-0.0683887124446683203338182,10.6802110434687822504429,0.0628387773475717059668,0.253846695430493707323905,0.844105531729457458922639,-3.9814716932477405286761,1.26201892614898247835242,0.275117293461835110690572,1162.53515093465580321208,1180.70421700075007720443,1182.3816222454663602548,1182.61732695128853265487,284.286010016422153512394,-223.67667257576655970297,-186.013556771104390463734,-602.855892329126845652354,164.092317712944236518524
0.122499999999999997779554,1.17582032894312038528994,-2.26502316268346026717495,-0.0202499360697216586324476,0.463846059829817691788634,-0.138790544343246224912036,0.0125025038812847707342391,-0.0116404266094591087726817,-0.00492798966183688891967707,0.0671633735589834968138234,0.997661948910950946434184,-0.0176988454436186846974177,-0.0641810968423341121624759,10.6773173071010418766491,0.0628185698974480510869967,0.255398690078197931896398,0.845875687059427616709684,-3.98143104490369070802558,1.26271785734355956876129,0.277212572587351990804905,1163.28505107777459670615,1180.00403195092917485454,1182.14920605089173477609,1181.13416152323816277203,342.161721516094701200927,-360.54618939338035943365,7.46996263210348221406321,-606.29170865104185850214,164.086242631642818423643
0.125,0.882760773261702436087717,-2.18931815030148069212146,0.0763504146311962395010653,0.465572100033974811683635,-0.141605582777808158834176,0.01190692761987365011489,-0.0111213450778380011640945,-0.00509908484780127214952561,0.0671642925374810323413399,0.997666857162107678647089,-0.00946629839347455301346024,-0.0602203716248876502747933,10.6757317776007827347939,0.0628393420321065043765429,0.256953155891771700680692,0.847647120104610407587131,-3.98139197499869812446605,1.26341927763460604161594,0.279311055504844363284178,1164.24595954223627813917,1178.90148605378317370196,1182.41897205862687769695,1179.58586840803332052019,482.699279692632899241289,-560.541380872200079465983,246.384745368822905220441,-686.411130892610685805266,164.07997859321423561596
0.127500000000000002220446,0.462563112389894004472524,-2.03430462844710380210245,0.220201489490799540149624,0.466519937773966941740866,-0.146209948701456149411371,0.0116862194274403655147587,-0.010588448144215315341321,-0.00527387583232584705034141,0.067168941733530190818513,0.997671323951809019270343,-0.000644420690335958251671045,-0.056413868284177215439712,10.6753895433130345793415,0.0629017134690661172680137,0.258517238460539755529055,0.849423352333458558938162,-3.98135367469044654242794,1.2641226379118535305679,0.281412560441206216488297,1165.69854747623776347609,1177.20132504656817218347,1183.38112977773585043906,1177.70210586877510650083,597.151097124696548235079,-656.99400088110394335672,454.966180002110888835887,-699.664269227195632083749,164.072254430663974744675
0.130000000000000004440892,0.0984766239164715506682057,-1.8136855650546486184993,0.338148871793526428763954,0.466284208778755704383201,-0.151878146458832158360863,0.0125450666171588818414984,-0.0100403856949761137451471,-0.00544945027741092040407533,0.0671786759219195894754506,0.997675282683374020642475,0.00856322982314737177200747,-0.0527548754061049340879919,10.6762095367999503281453,0.0630037938626216986737205,0.260090662608534861632847,0.851209466338959774844852,-3.9813159688294641469497,1.26482745519609141027217,0.283517579217621940035343,1167.23171502785976372252,1175.616516049377651143,1184.69380295863743413065,1176.0875470618973395176,700.704319924943206387979,-621.917599118841621930187,616.345563626509260757302,-663.718249616976549987157,164.065652656566044242936
0.132500000000000006661338,-0.243810174270293056331127,-1.45101219583302132321023,0.421215444648632586499559,0.464918814085691967097347,-0.158198065709410029544557,0.014443820640036584071475,-0.00947821978142348794960093,-0.00562025717329213934936316,0.0671950529648287914197269,0.997678642459688291843634,0.0178897857840904332682452,-0.0492753125950110976161156,10.678097465197447846208,0.0631380901336296707082596,0.261669411765510173673022,0.853010989148155540640062,-3.98127919292273801943338,1.26553435527784641223548,0.285627411729373059667836,1169.2020690758624823502,1174.09173705097396123165,1186.46285759586839958502,1174.38351462069022090873,984.37011757669006328797,-602.374344904819167823007,861.518395771053405951534,-769.988228646933976051514,164.058889304156394928214
0.135000000000000008881784,-0.609743953402589022871894,-0.833353786172414512378737,0.454965042524580420835179,0.463205241298250414150317,-0.164122713247300294758801,0.0169005690869203847870317,-0.00890700213650311850566155,-0.00578297022505789518748154,0.0672172215497874453449256,0.997681424187541798787038,0.0271088288312610371788569,-0.0460869476522012266883621,10.6809493032571580783952,0.0632981472305724074400857,0.263242775904223180738484,0.854834196588534989125208,-3.98124402337053640010822,1.2662438004961906745649,0.287743263194213394484677,1172.15356561574321858643,1172.60464432485355246172,1189.00139493749270513945,1172.23760591866266622674,1179.84849896215450826276,-458.124915646112242484378,982.384400380168699484784,-790.803069323055069617112,164.050598367782299646933
0.13750000000000001110223,-0.874134630157635927893978,-0.186032936598008374895485,0.423444788191287280199049,0.461904730019547182795492,-0.166675650989921736444543,0.0185764206303525788999131,-0.00833123769794076943218109,-0.00593597199080478019062035,0.0672409281539190911702875,0.997683877176687494703344,0.0360329587271705636952746,-0.0432845737833856547549516,10.6846541418713840698729,0.0634775988441932392802869,0.2648013105782836551505,0.856683814885206063038936,-3.9812099658832043047596,1.2669558252009469612176,0.289865728298992930689337,1175.10131157067326057586,1171.80111247274339802971,1191.37477959776924762991,1170.42949927407494215004,1261.14282103148866553965,-214.030073326239090647505,977.437888694247703824658,-698.233718759001362741401,164.043552645078420937352
0.140000000000000013322676,-1.09233301158814266607067,0.546798217950702936107632,0.338021013473782550029512,0.459675319441590901625716,-0.166416856742967633753238,0.0196873402208319892014998,-0.00775598730097375611142185,-0.00608149841936902330052916,0.0672629738621386003005753,0.997686157708861820481161,0.0445625550603885589584507,-0.0409730007639814847175685,10.6890973061128260468422,0.0636760858702911936024549,0.26633432602403173117267,0.858563550027800381769794,-3.98117659682731206416406,1.26766996500647111112414,0.291995711417985248647966,1178.45927972090066759847,1171.53449395822235601372,1193.88858438096394820604,1168.74643732486765657086,1382.98378227509488169744,-19.5238019714906663182319,1002.53237959764101105975,-625.309403693017316072655,164.036376645345427505163
0.142500000000000015543122,-1.26526919098706591704229,1.30137041237829076401056,0.219409406316422112004361,0.456462193896016998895249,-0.163974031761349559044305,0.0203645554252738086864483,-0.00718536821505684746708154,-0.00622263200363339877979607,0.0672803043202121475729882,0.997688421279460224688762,0.0526268103318869306939121,-0.0392319161020137918693962,10.6941633576171319930381,0.0638938444632805857548163,0.267833017345037005529917,0.860475813606106365583059,-3.98114330001228733380003,1.2683857954346189345074,0.294133509443094465218849,1182.01623048204874066869,1171.7034934628859446093,1196.38744149575745723268,1167.3029522556098527275,1424.85089768930015452497,156.981183815697306727088,952.89661608895119115914,-488.202473880394336447353,164.029101684884011547183
0.144999999999999990007993,-1.37709099532169920721003,2.02320129876964083237567,0.0762800881147982640095861,0.452798643486086671572366,-0.15929005707079402220927,0.020608679088377761245976,-0.00662074854914643674136387,-0.00636024928268203674358583,0.067293355936875104417183,0.997690627466996660110965,0.0601249474539562178687646,-0.0380739351205554577006751,10.6997391803760191208994,0.0641285859235325023108842,0.269293604769747618732367,0.862421299060195933883222,-3.98110910650119631526422,1.26910310384869418065534,0.296278012172279725522372,1185.58353420934713540191,1172.31939987730083885253,1198.65306746140868199291,1166.30542495546569625731,1507.86856978971422904579,345.283294315005832686438,880.165382520048751757713,-305.043786994384902300226,164.021718966558580632409
0.147499999999999992228439,-1.44101432177012656055126,2.78536699676561294580779,-0.105003572987553819850781,0.448619508612942252678835,-0.151440257808831330033073,0.0204661354935481154537769,-0.00605853545292417937362384,-0.00649042492678731774286005,0.0673028580078957050503163,0.997692785178195706841109,0.0668754175444529475047517,-0.0373948275375694944022698,10.7057170376746011442037,0.0643696504517117518151537,0.270721888322338899435238,0.864398215389911683814717,-3.98107301385026302043002,1.26982131985588031497514,0.298427562976392002358494,1189.555573330997276571,1173.42990993446096581465,1200.78826840835768052784,1165.77773332063793532143,1361.3243694125219462876,446.784087503737794122571,645.47726418118088531628,-69.1226168369666424950992,164.012750707356701695971
0.149999999999999994448885,-1.44011820471124774023508,3.2955799195509611898558,-0.251613180138062997315274,0.445465162363790578847755,-0.14339314722120158340779,0.0199677446459519923604997,-0.00550075129325422549492197,-0.00660880774058301718315578,0.0673085918241281555562949,0.997694934842361935700694,0.0726956343316832315215592,-0.037206648257698801685045,10.7119981801661836584572,0.0646038603789648169239968,0.272114636770038997859444,0.86640769229940373108434,-3.9810342698792782201167,1.27053979807718420147467,0.300581225084937508906791,1192.39015605640975081769,1174.55332031481952981267,1201.88045378231458926166,1165.95981187128086276061,992.795362120522440818604,467.545563368139085014263,268.836945971770319374627,205.613753008446849435131,164.005197474886756481283
0.152499999999999996669331,-1.38658156617044747704881,3.64415477227469741805521,-0.380341665064038103594157,0.442405821185816727769691,-0.134260132533893544737325,0.0189969934360198697276267,-0.00495023205160782537453956,-0.00671421535206457361505406,0.0673108356293035392514668,0.997697060065698138053847,0.0774875464562155003012123,-0.0375414602613432998867715,10.7184943564517602965225,0.0648234335549536383469515,0.273467065364609851485511,0.868450695775007108778709,-3.98099363841338149683224,1.27125835762617844792999,0.302739148741260677422105,1194.51955014159989332256,1175.76763775130166322924,1202.13245313821653326158,1166.80580208568017042126,741.462501580553407620755,535.433657966359078272944,-71.2461419755981637536024,516.958330262968502211152,163.99757364285363792078
0.154999999999999998889777,-1.2592488078724894950966,3.85570951913138726396824,-0.501987693088185249479238,0.438485785926622406716291,-0.122426517403026485775186,0.0172186752543189713904326,-0.00441113245145415954623358,-0.00680710188058333137695044,0.0673085391374549368848079,0.997699218209427418635471,0.0812048353155746804876713,-0.0384608213898208067815787,10.7251301007970401002467,0.0650226705606855581720538,0.274772134773010934249982,0.870528221809423574661935,-3.9809523120070728907649,1.27197688587998025688819,0.304901896719038334460095,1196.0974685643125212664,1177.23048860465132747777,1201.52422307243659815867,1168.54460352259570754541,405.464804132725134877546,525.35730900749467764399,-338.397318652687033591064,744.017250372598255125922,163.988355781565019242407
0.157500000000000001110223,-1.09730093495766767297539,3.85696090560911608591255,-0.571586120162884347983834,0.435064496643562559352603,-0.112244783075304263575411,0.0153104263669702044675658,-0.00388553372854262470820208,-0.00689114597134907018449734,0.0673023808056267269783746,0.997701338948823401864274,0.0838929858144504686512377,-0.0399861362362258360159117,10.7318440425446937069864,0.0652030578457850340523549,0.276025689882315961032333,0.872639048291309671334659,-3.9809112446006031937884,1.27269567988812970504853,0.307070677081617671166924,1196.54687416226352070225,1178.3944242963391388912,1200.44046654495309667254,1170.52588833754316510749,6.91423654134268250714968,439.41939773935661150972,-489.233451260769925283967,877.932314377584702924651,163.980624434456188964759
0.160000000000000003330669,-0.879185444180378139478194,3.68846139843432219151964,-0.611802553093117262861256,0.431962352122985948632561,-0.102303967930952366405251,0.0134206276214733997292905,-0.00337414621054632881194668,-0.00697001083619553946785219,0.0672930475247864173793388,0.997703356869958923880404,0.0856185664450401645586552,-0.0421093834699237321017584,10.7385910528332360058812,0.0653667291584606319210238,0.277225713160728692852075,0.874780323021971062402713,-3.98087064291964276563363,1.27341534016592383693478,0.30924615223701262811673,1196.13203974701923471002,1179.42758559334811252484,1199.07805581613274625852,1172.93426509448363503907,-288.698477811021518846246,380.286668601092628705373,-541.312632825519813195569,1010.14441919314685947029,163.972849605479666479368
0.162500000000000005551115,-0.624129884898042996965728,3.39992536289719993192193,-0.637425586391886400683404,0.429392216370995616347983,-0.0931353251048553237856353,0.0121166319538664399302341,-0.00287341748648011017369663,-0.00704013718920867490047577,0.0672825380151789026461628,0.997705179611307668707809,0.0863185776012228844766838,-0.0447209090756685925804881,10.7453443206421788147509,0.0655049155690679146823996,0.278378058646819692700802,0.876946637432290287961223,-3.98083087889905895551124,1.27413646894529053454903,0.311429727709828463311226,1195.10338177320841168694,1180.29585763934460374003,1197.73390338082549533283,1175.57661043350890395232,-517.984086697696966439253,297.729364225460528814438,-488.097825487738646188518,1078.98843479419974755729,163.965043982568062119753
0.165000000000000007771561,-0.347597116801281469378182,3.00362073376702909399683,-0.659159470173837802597916,0.427844926141146220111011,-0.0853047910353907229419335,0.0115625642209552653705273,-0.00237467066124673982160931,-0.00709468017122128445650642,0.0672749347259491425887745,0.997706609772171071348623,0.0858848466793063480828607,-0.0475965386770620391132525,10.7520956023256388789378,0.0656051748233552889377762,0.279497561606033506631519,0.879129332715609113080291,-3.98079241223669111349182,1.27485888252551360366738,0.313622170977032710403876,1193.54211931353074760409,1180.91623241447541658999,1196.63756668869405075384,1178.32920726845463832433,-744.776416650301371191745,214.452928775290075691373,-399.26421421805537192995,1187.38527565565050281293,163.957206569741458679346
0.167500000000000009992007,-0.0316144923379309480959698,2.45895276210965629815064,-0.685820935773831852344529,0.427582546977393063158956,-0.0777122269428003331626087,0.0106804787959976690142616,-0.00187134235820395219106194,-0.00713060288618738540022957,0.0672739580759127014930598,0.997707436173048689553866,0.0843040385937317282571968,-0.0505630375955251898378862,10.7588549781347566636214,0.065661483320514107964172,0.280594975642674326898884,0.881320263457695429742955,-3.98075554497531758357809,1.27558214439738426548843,0.315823601902175621347624,1191.37949968995690142037,1181.36812228322105511324,1195.73758230973521676788,1181.51353681178716215072,-793.88965961634244195011,126.75913001344258645986,-264.687585256114971343777,1110.73805847699895821279,163.947770524973378769573
0.170000000000000012212453,0.187618722848916091860971,1.98794824043400164548245,-0.698852950526236527117874,0.428317748440036838442069,-0.0731364399919907093305937,0.00901219999367025050018842,-0.00135592000395591441401499,-0.00714980930033020170566438,0.0672833184575572784691389,0.997707410830370289289704,0.081685375730686890505261,-0.0534342779275794044213654,10.7656497287831545150993,0.0656767180421413132584973,0.281682238722138822417662,0.883510381283572399091497,-3.98071956112821023765491,1.27630622420515837944777,0.318033330630184629672641,1189.57267101544903198374,1181.55002806454263009073,1195.31412876241347476025,1183.88289756083963766287,-678.049483887252222302777,56.4309852519272183712928,-122.359424886826559486508,848.832974347350614152674,163.939884498472537188718
0.172500000000000014432899,0.331273460941221786768551,1.53885971351159600573055,-0.683434726711270923438235,0.429815629830234469110906,-0.0702216500349960859317378,0.00649391652007812528180075,-0.000824732228736154370472844,-0.00715625820944706513698774,0.0673043645392749495526274,0.997706420519646641764666,0.0781901981760453612668726,-0.0561102415673009682905992,10.772523824034921702264,0.0656556689692218420351111,0.282764712315629329619782,0.88569313085977363630974,-3.98068364363118076809656,1.27703140721041696892257,0.320251003222890684440927,1187.98925227052063746669,1181.65027720948069145379,1195.12578518530108340201,1185.75770168352391920052,-613.085317668082439013233,64.0134756381484635312518,-55.4038307802329157425447,679.257772718073624673707,163.931978203770427171548
0.175000000000000016653345,0.396983372336886075615325,1.04951092497012288262681,-0.619268024396794958263968,0.432339973070043737113366,-0.0679162439854485433521347,0.00355174811607370010183016,-0.000280195456864007247550774,-0.00715146599219250011375548,0.0673348619358342670437878,0.997704599334784725250813,0.0739303729600061521054499,-0.0586194915578416644863502,10.7795365647994287883193,0.0655961447356499111061012,0.283837880379241680461888,0.887866508400777076914778,-3.98064678454330556078844,1.27775788319171668128149,0.322475874074496071663987,1186.5072444271086169465,1181.8700954427333726926,1195.03710960851230993285,1187.27918642443000862841,-465.708845952533351919556,127.226958417077781859916,-23.2066017458238249560054,429.089966430458105151047,163.922470217657803459588
0.177499999999999991118216,0.363626809601863165699598,0.683476906670835160362287,-0.530859137822349835822422,0.434213574243253963569344,-0.0664264762279129089561636,0.00167043087334897938193989,0.000273361044551156560575289,-0.00713842263951724228382423,0.0673715044738355944842212,0.997702141324483093853814,0.0690567958513943064291496,-0.061035823000924624426311,10.7867590320553006222326,0.0654979077760074884784203,0.284893979180421308416982,0.890030544316320559872224,-3.98060837167237124845087,1.27848519246208214283911,0.324707012495051294820314,1185.66070804075798150734,1182.28641200156607737881,1195.00975217657196481014,1187.90315151567619977868,-265.141220221540947932226,244.981121173306064520148,-7.4040440020326405701212,128.551560241840576281902,163.914531592474531862536
0.179999999999999993338662,0.25810785050392032191624,0.346310237879698612495361,-0.42163454638596342682888,0.435054915313835999235437,-0.0649597786500135110365761,0.000513160616723260052524092,0.000830685801669425781870726,-0.0071227931391380358214227,0.0674100585021687043196792,0.997699285016103831758016,0.0637845351188348064219724,-0.063459280906493983898109,10.7942708562200646582596,0.0653653082050941330871652,0.285923642983659631600091,0.892186716688637471150969,-3.98056818716959925907872,1.27921278394304560599437,0.326943608740101088194763,1185.18153832600091845961,1183.09500104859989733086,1195.00008938850214690319,1187.92194422563920852554,-145.906097084025390131501,401.805656161513638835459,0.922628582111428063861069,-68.1213562229458489127865,163.906578645460768939301
0.182499999999999995559108,0.114363260307424871586868,0.0194597504570011570201871,-0.31038781290768929777002,0.435269269031966388183719,-0.0635459701552403416480175,-0.000132935088819362170857452,0.00138980111312861885630721,-0.00711031351783458602511256,0.067447044572103570514443,0.997696219031940612076426,0.0583405230611713371269289,-0.0659223694739943938403215,10.8021569504863013122531,0.0652044705974238747447913,0.286923517972824115851438,0.894335714935063919028835,-3.98052713947125269555727,1.2799405905775724789919,0.329185922375596740074855,1184.93117755533785384614,1184.29544028237364727829,1195.01436531948252195434,1187.5625447345614702499,-69.4613239119007062072342,575.700007973136507644085,17.7076330337513212498379,-191.963746311284751300263,163.898614627995272030603
0.184999999999999997779554,-0.0502763374376832550272098,-0.302111289845212571680833,-0.213569873283154493259772,0.435121071592474262246242,-0.0627659156606158730173917,-0.000344661083822490844560948,0.00194841063695699390559413,-0.00710400267318476389549753,0.0674776335160480605912525,0.997693247587859266545252,0.0528953454190366351150843,-0.0684636753489548388618147,10.8105043666632987253706,0.0650169633634476856753892,0.287890490298812140590456,0.896479679437297338751023,-3.98048658403900379454399,1.28066804329647254689917,0.331434148793517235898065,1184.83423170644141464436,1185.97350108846558214282,1195.0886275536709035805,1186.96212549408278391638,-37.5366339089395850692199,830.084642969540482226876,54.2470559936190923622235,-259.137269733900893697864,163.890637819161440802418
0.1875,-0.244210922266856256257483,-0.6702185424069706520811,-0.129269384519494129337502,0.434232475716480270655495,-0.0635550535730032006842549,-0.000317809987896475242084154,0.00250263296369989665310363,-0.00710685890596432934956939,0.0674985221488102055120706,0.997690577498746344886627,0.0476165827256666562838916,-0.0711591879033149216082776,10.8193982869453613204769,0.0648062067212844539199068,0.28881872173356359922991,0.898622620840209607173676,-3.98044730536053847913536,1.28139423671147456573749,0.33368829301755109639771,1184.74349438579315574316,1188.44586349722135310003,1195.28560059945061766484,1186.26685838589196464454,-44.4015322759241399808161,957.512083980781540049065,92.8992227709385645084694,-210.909189292442334817679,163.881051154720296381129
0.190000000000000002220446,-0.386836697398548590154377,-0.941711600114901847824456,-0.0907708401826538696655078,0.43273683845316818219473,-0.0660440520762594768244824,-0.000186311630441506574781471,0.00305240883634338164634436,-0.00712407281446852599926522,0.0675093166199026151197415,0.997688198185783026161744,0.0427214803108700302836098,-0.0740086607833686377366789,10.8289179797990300357924,0.0645828691719732700393664,0.289708824777668016992038,0.900767010954186653215459,-3.9804096458219038190407,1.28211891867732274974401,0.335948112278534549712816,1184.61222404506179373129,1190.7610615083694938221,1195.55312366752559682936,1185.90757954762057124753,-69.5559466574194971144607,941.492915421667134978634,126.841474207594615108974,-64.958053141617654091533,163.873050467695804854884
0.192500000000000004440892,-0.500551558210168945350915,-1.15276392931939586361523,-0.0844434280351250010632214,0.430598842134199577547093,-0.0697619877017832124010965,-4.79824090355153676191666e-05,0.00359914493065965034046538,-0.00715568381423880867792109,0.0675100192192695514048495,0.997686109157375766720577,0.0383120615724376195609935,-0.0769754305242027064837274,10.8391338920252717770154,0.0643498441027450379658958,0.290564743968892480463495,0.902915758642854227034036,-3.98037381742630769210223,1.2828416968080313953493,0.338214192368107458008808,1184.39571465250605797337,1193.15332807432969275396,1195.91980797048859130882,1185.94206812018387608987,-104.799044075070824533213,1028.65015893430518190144,178.100158242432200950134,119.498228231168369006809,163.865038614862527310834
0.195000000000000006661338,-0.612306793850952546520716,-1.32703371219571120143144,-0.105220672350677266204677,0.428005819044956159480364,-0.0742857982478095230094439,3.47108377799410473753434e-05,0.00414150279309541229089131,-0.00720104549531684103025331,0.0675024143354909372805039,0.997684206968030506956779,0.0344625516574056239837986,-0.0800833513165196547722857,10.8501040600665383806245,0.0641103520001213567081066,0.291385304153841506735745,0.905074254551216483832832,-3.98034027459670625148647,1.28356267236709942203277,0.340487429570827337954597,1184.08822882468643911125,1195.90431230304102427908,1196.44362445873775868677,1186.50507068877641358995,-105.60070511505718116041,965.17094518712747230893,202.014646567658758158359,286.158122882852467228076,163.855413911069376808882
0.197500000000000008881784,-0.704829055063122544844134,-1.41383651729861337109639,-0.135224729259427856042919,0.426593195692129778517909,-0.077373719121078113336587,-2.66393332177262966121382e-05,0.00467724099534838795577674,-0.00726209485920775461159637,0.0674883845392928588546866,0.99768236905132867686774,0.0312907100979906149795795,-0.0833814722618794745834236,10.861870933104178504891,0.0638728888788177018298597,0.29216710393130712608567,0.907249093310868115480616,-3.98030988620730763472011,1.28428159422302523573478,0.342767263394085808236866,1183.86771112693077157019,1197.97918280026533466298,1196.92988120332688595227,1187.37285873459813956288,-59.2590437675880323808997,767.494404811622416673345,205.455527539561273897561,406.58899256786719433876,163.847387141720474801332
0.20000000000000001110223,-0.826417924239107870576504,-1.45410413813380645642326,-0.161029954530459706862899,0.425846995349034584954495,-0.0800190991717987798459433,-0.000297512702053928548666384,0.00520612522933958706689017,-0.00733758129313798104081945,0.0674705960074355737265961,0.997680436917470214730486,0.0288354470655547111268557,-0.0868716855675416288473656,10.8744591410032427347687,0.0636412354701313132121498,0.292910238830536462373288,0.90944694321824626204176,-3.98028336996407228198791,1.28499838830629165009611,0.345052076072013769181268,1183.79193360584849870065,1199.74178432709913977305,1197.47090209643556590891,1188.53801565161575126695,9.06775108069267865573693,646.88932701314968198858,231.83070464856407966181,493.671728927483400184428,163.839358005758867875556
0.202500000000000013322676,-0.987098011466208014041968,-1.46055502843716755734249,-0.168325115323211482731836,0.424816757573815095838654,-0.0830533914537437967240407,-0.000791909258273187596256781,0.00572346028849140316813182,-0.00742777274122206551676406,0.0674509422871263503163064,0.997678313197532862233174,0.0271481397992476107539073,-0.0906551641863178048197369,10.8878734779137076316147,0.0634209142977558149034678,0.293606020590706173756246,0.911677889150081410818416,-3.98025909661367371938923,1.28571418883936772203924,0.347340213123142227402695,1183.91304988233423500787,1201.2136294353310859151,1198.08903472656970734533,1189.84121737923555883754,110.305776454106208461781,513.516446878338228998473,278.866072348091392996139,532.86926648938742800965,163.831330727657729084967
0.205000000000000015543122,-1.19636663068443249713368,-1.4227352678342513048193,-0.135295204439433047749475,0.423041858076955823442233,-0.0866643494550202730941635,-0.00157408118926437171417043,0.00622959034846638521482065,-0.00752711610583823090281363,0.0674311049886986840773417,0.997675928035444248287433,0.0261464278197069792397667,-0.0947144888308584370628651,10.9020979714757082490451,0.063206956676268757910897,0.294254975299763132934316,0.913950123577316420053762,-3.98023590586488884568439,1.28642992995964711155921,0.349630822443509126085104,1184.34346248811903024034,1202.30936656149083319178,1198.86523245817602401075,1191.20236198406269068073,270.867054842028437633417,385.697286597041625100246,395.05243835183102873998,598.421793854958536940103,163.823311309709765737352
0.207500000000000017763568,-1.48649000435442646406159,-1.31945908646187892721002,-0.0313466977077182518129916,0.419970398895184393595059,-0.0909739867875287155918329,-0.00272614705149375061501993,0.00672777380782674499365426,-0.00763136737804105767107865,0.0674119204489804224600391,0.997673244477641274485791,0.0257654850811516698827486,-0.0989688118577649322826773,10.9170955620426717302962,0.062996103407287132314174,0.294862308433272046759299,0.916270047110816499014163,-3.98021340947558055489708,1.28714630937177498815061,0.351924183106105237239802,1185.26738515654437833291,1203.1421158683162957459,1200.06429691832886419434,1192.83332634851035436441,406.71611003595177180614,215.230121559217053572866,492.222163979843116976554,598.411834003130138626148,163.81370562319884243152
0.209999999999999992228439,-1.73751197714256799820021,-1.1834872038412800332452,0.113452556097184908967535,0.416571023849897803525977,-0.0941121711825741308343751,-0.00359214634983075426291621,0.00721967040337457253984521,-0.00773844411912963901778451,0.0673944570690890171205112,0.997670205883666172397284,0.0259701668810288464894764,-0.103372058509556496996851,10.9328087769357580327778,0.0627885221925386649566292,0.295429628830390256233329,0.918644302122915923369817,-3.98019135195555007200596,1.2878636338969415842115,0.354221033420472231068032,1186.37704303829877972021,1203.38551716928691348585,1201.32634327807522822695,1194.19442115407832716301,506.921323328244966432976,-7.34104155126264057429353,560.438213103091470657091,553.972185282193890998315,163.805722423330109904782
0.212499999999999994448885,-1.96131867832841955134882,-0.997305366235273327291111,0.309836806089982430556518,0.412627693603209166894885,-0.0964532878293615919540471,-0.00376354109884854005213528,0.00770312336366980789786885,-0.00784983141103375546554499,0.0673774691614934251315816,0.997666909585025130091651,0.0267836974175930213337704,-0.107963350843779559706803,10.9491610748312044876229,0.0625888107274603228136201,0.295951172709030596585933,0.921080479569247767557272,-3.9801697103678685962791,1.28858150902504609014443,0.356522308950741828592612,1187.80199177318559122796,1203.10541066055998271622,1202.86648798384430847364,1195.60318727492131074541,686.015991625162655509484,-247.030668016031768274843,733.069401433157736391877,641.898313513910920846683,163.797769901167669104325
0.214999999999999996669331,-2.14566948268668244992341,-0.716298651346927051086766,0.577621273344790298054363,0.407245690848960395502587,-0.0985002397596199952278795,-0.00279174125276416672941648,0.00817673606008136738543257,-0.00796288430714001474464148,0.0673577266987534645226177,0.997663611622247259447249,0.0281274400700532271890619,-0.112755618793720951975601,10.9660594195416845053614,0.0623927199331277410054852,0.296423304864270542591242,0.923584633842706392847788,-3.98014907461963840518138,1.28929927788199472082908,0.358829585791979099873572,1189.80712299642459583993,1202.15036382920675350761,1204.99169028524102031952,1197.40391272164788460941,774.604797641858795032022,-440.2253560742788636162,814.005284656013145649922,681.132161918002907441405,163.78827194476187401051
0.217499999999999998889777,-2.18374605674398436505612,-0.430068528944982098050076,0.800903006090443514430888,0.401593637768383970865216,-0.0998172480671121603590379,-0.00118477178318099102445615,0.00864276214104675935545608,-0.0080729062261340796963216,0.0673349070789946435589002,0.997660358418816728409695,0.0298700384415456592079874,-0.117674154994009821928458,10.9833973820078263372579,0.0621941643764391816073811,0.29684927202901117970768,0.926159079397187889881593,-3.98012952157114696660756,1.29001609047520049422531,0.36114346419259557574577,1191.67501576139488861372,1200.90428388018858640862,1206.93651440712437761249,1199.00884808451132812479,780.91212860554082908493,-548.945842023840214096708,796.036426329919095223886,657.175737929582624019531,163.780401534031312849038
0.220000000000000001110223,-2.04797917389377825969632,-0.0810906098260944230293745,0.990469401963369189267894,0.394605496415474599203321,-0.100709078726109374501974,0.00117275236792611730306246,0.00910516404575331846082964,-0.00817771771068837374785154,0.0673123165094241387995666,0.99765691653167043462247,0.0319251739111777316226792,-0.12260519125204646928573,11.0010583835775417327341,0.0619938748667483302545733,0.297235154419518754487228,0.928803039265499563725825,-3.98011065147179365908414,1.2907314226336497053893,0.363464908962446375806365,1193.71168363945230339596,1199.40563461908755016339,1208.97187241689061920624,1200.68979141129580057168,842.461424393740458071989,-586.721127890177172048425,812.808889223241976651479,674.075082448552507230488,163.77258573468066060741
0.222500000000000003330669,-1.74192327509307376409708,0.325405850114400485573185,1.12775515000260839748591,0.387498466280462416921893,-0.101134381463070896489675,0.00421380774224154163593026,0.00956653060140253211351968,-0.00827759068434369416067398,0.06729352474416655516265,0.997653025944246207856736,0.0342479319015662198033567,-0.127463995459636769691514,11.0189190139848456340133,0.0617970461511797297671222,0.297584569495857709231501,0.931514525440897522834405,-3.98009247174093161447672,1.29144481543535993850469,0.365795397867630434074471,1195.88732288336359488312,1197.97067824073769770621,1211.00055885324059090635,1202.37922349675409350311,908.987974243426947396074,-471.974203172703312247904,787.03540038713913418178,661.12855716296451191738,163.764821512029726591209
0.225000000000000005551115,-1.23278387112536869096857,0.800397731557483171904721,1.17821665861166602340404,0.381503209440783475070447,-0.100777730446546517906192,0.0079929344740494127213859,0.0100288750756764681593136,-0.00837315887664590897954131,0.0672836043842703207529254,0.997648326777160754375018,0.0367915965388942028946317,-0.13217463050836250615383,11.0368525386170421853649,0.0616103422341771900239138,0.297900208618967266005484,0.934290201355016614037652,-3.98007570971504653911666,1.29215627209445504952612,0.368136278029192298699712,1198.25662351066944211198,1197.04576360322403161263,1212.90704941882631828776,1203.99543419711062597344,1095.96968231075970834354,-171.936813604952334344489,779.227346800870918741566,674.184298263707546539081,163.757127175344493252851
0.227500000000000007771561,-0.439229792331498947177693,1.43127759301330881314129,1.12333059557020109586745,0.376377904957488185200276,-0.0990059444418866507753307,0.0127135033193497143377826,0.010492839954198663124374,-0.00846738499119379685320386,0.0672870590151583292115589,0.997642490404249238089562,0.0395522678087600887408826,-0.136691337347234181942568,11.0547318326209413896777,0.0614442724015565946982242,0.298182245860819816751786,0.937126051514599156533336,-3.98006132088778397104534,1.29286533994834518246364,0.37048784514898353004142,1201.36717129491739797231,1197.11099417271293532394,1214.89669558724494891067,1205.75014498807263407798,1188.33442177483334489807,289.903415664593637757207,658.17947223786120503064,601.69258421756182997342,163.747984836787452422868
0.230000000000000009992007,0.30251639504953847792379,1.97863141384904395181366,0.985913308400697574462868,0.374204765334013034205896,-0.0960261511155664493344375,0.0160973248346418101872857,0.0109592464838666955873059,-0.00856183380957379822073783,0.0673054068659129089979842,0.997635398983448107301797,0.0424921910144831771471985,-0.140959954064323100819678,11.0724323745894235315745,0.0613048750444885742760803,0.298431863210569470190592,0.940017215464511335376585,-3.98005063401656267174644,1.2935714782655769461428,0.372850134479977002310847,1204.19829561954361452081,1198.4952806815470012225,1216.19794678001562715508,1207.00389711819843796548,1176.2701772903244545887,869.718274253045024124731,427.035492033337106931867,450.033673066127050788054,163.740449325747277953269
0.232500000000000012212453,1.00706570597665878707971,2.49497108548674706440806,0.775665089851705014112326,0.374729997554721638852726,-0.0911432527075708986963321,0.0183837528195287536192382,0.0114252841347744094752104,-0.0086517278646155958143904,0.0673355351037280003279051,0.997627335912734447553873,0.0454276062453414647412941,-0.144995669222743650550456,11.0898343938108983053326,0.0611826075655567472311169,0.298644803076189346846547,0.942961162234776550938875,-3.98004316044595851664667,1.29427570901574462425287,0.375223059811865267132447,1207.2485221813690259296,1201.45958554397816442361,1217.03187304741163643484,1208.00031335340327132144,1367.03879451347233953129,1636.11224611736224687775,251.678379030408677863306,375.172040215420224740228,163.733008738145912275286
0.235000000000000014432899,1.6373152258067662501162,3.00029010664159390131545,0.475998299703143501471203,0.379181308561195973272362,-0.0828595075022178079171553,0.0198450230974498049996146,0.0118899505687423290983817,-0.00873198265029005195325684,0.0673720321629363155802039,0.997618721150540732622858,0.048171612955778944642482,-0.148772326807196209053075,11.1068246330047912806549,0.0610652325846926247177038,0.298820498132224998677486,0.94595433218947655440445,-3.98003796443013957429002,1.29497864282552743731003,0.377606057612182632876596,1211.03348959211098190281,1206.6758419121338192781,1217.45633867516767168127,1208.87975731927554079448,1373.99765854633983508393,2106.45183029659892781638,67.6485666656389525996929,271.992717291277358526713,163.724199577066144684068
0.237500000000000016653345,1.85301744725614780939793,3.26737882006422708514037,0.212977076092626255165996,0.386536337961816467423404,-0.0738995841085566818051689,0.0201762326037267791800645,0.0123545346882192232790265,-0.008800157987315086749458,0.0674116516716425084876363,0.997609780579380989173899,0.0506015368165662476895861,-0.152215960847285530777029,11.1232971700293816752492,0.0609457841054373700151459,0.298962274134015271176423,0.948991943376958024813916,-3.98003397758688715057929,1.29568022553241513072919,0.379998545384526764667754,1214.11851047410073078936,1211.99184469546116815764,1217.37011588073983148206,1209.36027693985965925094,1160.11724910636621643789,2173.20079638649167463882,-100.723040348885220396369,150.913755020565787390296,163.716965242624524989878
0.239999999999999991118216,1.62379584630687623381107,3.31980935424243428499835,-0.0396096706564597889066448,0.397454388293968396972389,-0.0634643901092083462245341,0.0198502376058661660074289,0.0128186781585671628891365,-0.00885561800683232029640646,0.0674520427683389517392598,0.997600685148451682415782,0.0526378334019321075798459,-0.155291853112903166511671,11.1391533712702219816038,0.0608196956313378153669014,0.299070296584150907559518,0.952070704653226074221095,-3.98003014347417227725145,1.29638007308438663045536,0.382399946574035587421037,1216.83407583764278570015,1217.54184589406622762908,1216.95272347342324792407,1209.63432609437836617872,972.233412998461972165387,2124.23750658264088997385,-194.444746611089612997603,90.7645425968898678092955,163.709849826475704048789
0.242499999999999993338662,0.993466883933555977570506,3.17798066172206006285705,-0.272009700123492514922674,0.409868086973245004944744,-0.052769051256010002237673,0.0191699462862815195318689,0.0132826049008111426313894,-0.00889871641804008961518235,0.0674927215844722816484591,0.997591465341498340180237,0.0542316354183344784267717,-0.157954836987843710849333,11.154302166971694632025,0.0606841536206200252157039,0.299145871753512260227126,0.955187668820145163728341,-3.98002498102266200064037,1.29707821722948524190144,0.384808953221034477643059,1218.97967753909301791282,1222.6130322283743225853,1216.39789214768438796455,1209.81409965284410645836,660.709028027758336065745,1765.70799232022022806632,-217.196820568051208510951,75.1414729682436899338427,163.702839100703300800888
0.244999999999999995559108,-0.0375386862947021948677673,2.82369780569914485823801,-0.472477670174025532467965,0.419828897997187311386114,-0.0431409478568795176633976,0.018289789665191853729187,0.0137472812480921666861144,-0.00892801539390123723161086,0.0675326036085230341221575,0.997582201085459474576567,0.0553063238271908480525596,-0.160142825333418753475101,11.1686600750377706958716,0.0605315812381832449307062,0.299192448947195099862029,0.958340361399401041708757,-3.98001804050026786185867,1.29777457536188256526088,0.387225781514467626287512,1220.13762097778158022265,1226.37038585566733672749,1215.86673937058299088676,1210.01003345921958498366,229.601264213351697662802,1223.1439549728736437828,-182.04159250717549412002,128.060309706734074097767,163.695961907173114013858
0.247499999999999997779554,-1.45482388548235341829695,2.23307989880643686930739,-0.668782181967625399821031,0.420326947747547197131723,-0.0347739726976357826915276,0.0169808056542042687397931,0.0142136213518862623839123,-0.00894268649001031534773176,0.0675705614525103498424485,0.997572973334402091083462,0.0558111733845638169349002,-0.161798984178818855417248,11.1821505243308081389841,0.0603547588758082051429987,0.299213785758358219446507,0.961526959601839092961484,-3.98000922876253371285316,1.29846846495330292547976,0.389650513246198149097665,1220.12768386015977739589,1228.72875200323869648855,1215.48768418514850964129,1210.45440120137777739728,-243.659187876619171220227,477.662413868847181674937,-71.2999606951142936850374,223.529713650168361027681,163.687872988147205433052
0.25,-2.5003682974100587266264,1.68549575330530365668835,-0.787782796202111001981905,0.408376141521174629289703,-0.0311826276274188261827813,0.0154119061005103235445501,0.0146803959545462429925333,-0.00894594472803988960407651,0.0676054726452519627599713,0.997563858769276889937316,0.0557960739413139589215618,-0.162924630237273299071532,11.1947028798914924863084,0.0601536204216508857411938,0.299209441275670062765357,0.964747162126308177576561,-3.97999844849134065682961,1.29915902730740673298726,0.392082520792144229027087,1218.91932503839848322968,1228.75869792501157462539,1215.51023956710741913412,1211.12768202747042778356,-695.610468588164962966403,-344.38258102604748955855,87.5496735019623173457148,350.507617099173955921287,163.681275207612429767323
0.252500000000000002220446,-3.10790123887537461655484,1.17659195320331844136774,-0.847427935040129920452046,0.39049173549545451722409,-0.0300410765966154305606217,0.0133257142835506020572822,0.0151427517542286598634105,-0.00894526088307449375458535,0.0676354980233780517240305,0.997554996513254632617418,0.0554152569542556427961699,-0.163613918477603009771215,11.2062520522236681586037,0.0599355680507045671112643,0.29917176601908740396496,0.968002907536428480739232,-3.97998570689506214748121,1.29984589192807287183484,0.394521330303018891161315,1216.64963151721894973889,1227.00683909810845761967,1215.92543255265832158329,1212.20693928687364859798,-1146.79697593364744534483,-1046.84772202481235581217,248.330664878585366750485,561.202708308018827665364,163.674832964706894244955
0.255000000000000004440892,-3.17971832236527340853627,0.686503528162169196491504,-0.834608515487584856629155,0.371103204237916095564742,-0.0296774731087149912234224,0.0106457630692600550836868,0.0155989012490008200489955,-0.00894977761164757190659458,0.067661420590594781310223,0.997546286744708687876937,0.0548781343500752832875733,-0.163900789884450892586187,11.2167399274253778429511,0.0597136997132450483838362,0.299098561782168981260099,0.971294269305570834305286,-3.97997110852433255701044,1.3005292642726480334403,0.396966719843536985923294,1213.18534015873024145549,1223.52445931488750829885,1216.75189289150034710474,1213.93369556901052419562,-1297.54802920910947250377,-1375.58129084204551872972,318.695462460709393326397,676.25792579979076890595,163.667289351853582957119
0.257500000000000006661338,-2.72080105637989611011562,0.404726424962250586059298,-0.744320815115097178527037,0.359125874807498135510286,-0.0297422822691600259592537,0.00822332101085743692736596,0.0160505855757802802508127,-0.00896031129517516067295446,0.0676842747673195022084514,0.997537630940719899363955,0.0542262133545201724382778,-0.163733820208772168358635,11.2261169263060178735714,0.0594863820261142817180655,0.298995460494872522527743,0.974619659115854020114966,-3.97995520028401061907175,1.30120944379291070269744,0.399418881634875710950894,1210.16189137117339669203,1220.12893264389822434168,1217.51890986496186997101,1215.58822891587260528468,-1116.57031349241060524946,-1300.18858176690514483198,264.587597072477137771784,649.775067126619774171559,163.661163563431898637646
0.260000000000000008881784,-1.87068530024369650277549,0.257699690922135737913834,-0.566424235843438705906294,0.352381941368135331860145,-0.0300273577881160734504018,0.0055431351890480630439928,0.0165007953756086019059257,-0.00897222358506838228719982,0.0677061927941611518821929,0.997528883500068297429664,0.0533911617634057616976762,-0.163031426086007596998328,11.2343421675286450067688,0.0592430969736106732836944,0.298871002206248459476257,0.977976639572163408686833,-3.97993909395787381910736,1.30188699259115336914761,0.401878680176298352932918,1207.60248859126818388177,1217.02351640605297689035,1218.07483087686273393047,1217.18257090464362590865,-902.941386285873818451364,-1147.89595592519526690012,135.127772462055759206123,612.883835472211444539425,163.655209253142658099023
0.26250000000000001110223,-0.635298435982649678521739,0.214720525668031236854461,-0.263398404565357735496178,0.348929287631332685215568,-0.030449536983153925595591,0.00291758038487894026322134,0.0169518305558524970400036,-0.00898141376398090690580389,0.067729711018635660457754,0.997519873693210712417567,0.0523241595872336595629548,-0.161734620970139519879893,11.2413836640965527635672,0.0589755960001531118197526,0.298732105460757069170796,0.981362361055880594307155,-3.97992387223859500622325,1.30256236592063667778518,0.404346504260993000468005,1205.64718443974402362073,1214.38945286427224345971,1218.19454872727214933548,1218.65264809323366534954,-478.703821450698853823269,-715.150901844935333429021,-73.5072576225319807008418,422.368459928292907079594,163.648267063775364249523
0.265000000000000013322676,0.39246255610974839500571,0.260058868415977306742803,0.0387881272896384368675804,0.350199270163108977715893,-0.0304494209646955123205192,0.00183357227260306978461335,0.0174076439993200750289137,-0.00898526748532306462902142,0.0677575912547109665551304,0.997510367938718611746651,0.0510186898104281333354848,-0.159755979458535285475662,11.2472198581372033743264,0.058680039022952032445879,0.298588598801499183199581,0.984771894857159768577048,-3.97991061136604740156031,1.30323578951776575252097,0.406823342724886793941863,1205.20896948401468762313,1213.4477618968282968126,1217.70729458875007367169,1219.29441320428509243357,89.7640202304500292029843,-93.9587164634757812109456,-317.667551094427551561239,117.23254805506248032998,163.642653986643807684231
0.267500000000000015543122,1.21867436974856957476732,0.341841217274247044510815,0.346214824308946234054929,0.35685743726801905095769,-0.0292745237648371486871568,0.00222804733507037024814457,0.0178684040930674956082491,-0.00898342923998458366130482,0.0677903325171670123605594,0.997500319680011737766279,0.0495186182122781815007073,-0.157103170819727883111838,11.2518401900563542739064,0.0583563845416808432697842,0.298442821679648639943139,0.988201395949528604845113,-3.9798994673762884133339,1.30390709905732227191777,0.409310207249925672723379,1206.09600454089627419307,1213.91965928195486412733,1216.60621097180001015658,1219.23881083350897824857,556.974957694182648992864,397.938463717173021905182,-520.323534045291580696357,-121.303574354715124172799,163.637222415556465193731
0.270000000000000017763568,1.76679625807122842040542,0.416906079297486631407565,0.617325664052317368835077,0.366289324149584150092096,-0.0271692002093242845894849,0.00387628614347918475091515,0.0183313753063440096346959,-0.00897767439829186449096188,0.0678255106253573269992074,0.997489896951095245114516,0.0479147869063488440755094,-0.153859177158535365137482,11.2552467140534524503437,0.0580077985362469558672238,0.298291473649987148863971,0.991647639817058834665886,-3.97989013976219219159702,1.30457599589528028261043,0.411807547039498123009338,1207.99384427248560314183,1215.43745421541416362743,1215.10567691852361349447,1218.68789533251151624427,950.803867946250761633564,790.714007096448085576412,-650.443447744236777907645,-287.471096923263530698023,163.63194326737450978726
0.272500000000000019984014,1.92565810325225017507478,0.451911809547375531437297,0.79878633034673607316023,0.375954406371013072352127,-0.0247173989521619029419153,0.00678273940761040319835651,0.0187931559970132486259153,-0.00896605192969593921270555,0.067859342240301503967892,0.99747938548578718442883,0.0462139053867538368569612,-0.150122680896179527820777,11.2574561712192249274267,0.057630052045626933843181,0.298130734540264785703556,0.995107267012915075454771,-3.97988271065264109793702,1.30524141688575201492029,0.414315707667712529449489,1210.85002388062753198028,1217.87322931743710796582,1213.35399373307882342488,1217.80145534889265945822,1381.85466009763217698492,1171.81583202404794974427,-760.180734371487460521166,-377.548984876738927596307,163.626850349914775506477
0.27500000000000002220446,1.7049979003967412616305,0.432438506995831251078499,0.871441653025875617721852,0.385199300668105759637427,-0.022280960605534489565871,0.011112533502934878598678,0.0192479957879606589088439,-0.00894696781382157795003973,0.0678874264232851160061344,0.997469127726091087104976,0.0444252461845693058517526,-0.146051515102004647594924,11.2585003620692276626869,0.0572196051432478369758172,0.297952295190218541254268,0.998577705339926402494655,-3.97987796377550617776819,1.30590162436569712234302,0.416835158789304993653957,1214.9031175729737697111,1221.29653337553440906049,1211.30477324666617278126,1216.80015040812781990098,1507.43634324603453933378,1258.02266468572156554728,-696.422218817314728767087,-290.876904807464313762466,163.620957612037727813004
0.277500000000000024424907,1.26705616093565143209787,0.370808209729772297880146,0.800557319032244252277053,0.389593629080935255348805,-0.0209514934560835995591699,0.0147409407979610471844945,0.0196912290965950212418001,-0.00892353779701729118989384,0.0679069034380607589040935,0.997459310909497021135905,0.0426609623586162445274539,-0.141791155880784752740809,11.2584267641860193975845,0.0567837739146655889888038,0.29774918964593055648038,1.00205507562195594850607,-3.97987705809808200996258,1.30655522018491998537115,0.419366740394105985689777,1218.38720559685771149816,1224.16334264086572147789,1209.87188263899224693887,1216.34707082485533646832,1315.58165786964195831388,1076.18659141344232921256,-475.735899250730255971575,-42.8947220500958437128247,163.616232080603452914147
0.280000000000000026645353,0.705109577345774951595558,0.280182412067608466177404,0.607746178252949742493172,0.389962675007934356230521,-0.0203421664862670319162685,0.0174451104733507056376851,0.0201236651364762528237939,-0.0088994702857064199308379,0.067918241978064328168152,0.997449924066262871846789,0.0410482363357002194570455,-0.137368617177854840383233,11.2572991860324140844796,0.0563337640712444215340682,0.297524715153232144349005,1.0055322612889388000923,-3.97987885599345059262077,1.30720304627380712325646,0.42191002232883367817351,1221.48102586232198518701,1226.67746633260162525403,1208.92609375041251951188,1216.58567679787734050478,1172.74876129053950535308,986.600405296802819066215,-282.318940914774202610715,290.545576965223233401048,163.611702303654823253964
0.282500000000000028865799,0.0366169166573198645586729,0.161098392438064591525304,0.280165965182695431145987,0.387206907057247362580199,-0.0202428606664276158899618,0.0191195364784976923333559,0.0205468036649401677995463,-0.00887546555601956624337312,0.0679232337983077250065378,0.997440891923641714811311,0.0396414868599661157633207,-0.132793661261035755849491,11.2551966692957741145165,0.0558752589245215952606927,0.297283323501311314007722,1.00900247862468739334929,-3.97988224902173648445114,1.30784617747255160757902,0.424463548550472025144842,1224.25094940331041470927,1229.0963446673497401207,1208.46028793441837478895,1217.79979870968145405641,810.203694700111782367458,794.196844585166445540381,-61.9523174852474198814889,583.980776094221596395073,163.606497545822094252799
0.285000000000000031086245,-0.443571295212175698008394,0.0658117464136649260586509,-0.0308144908947620560502045,0.383822013804696826611007,-0.0204941637053997864625909,0.0191401194247799964764933,0.0209647184268018024755342,-0.00884954361819301899005907,0.0679232844656403877969808,0.997432109239875352990623,0.0384333762782479299024985,-0.128016127148425168380541,11.2522123026471945195226,0.0554080384513906051835441,0.297034313270387095862191,1.01245840862623648348517,-3.97988697287917103651012,1.30848557403875109805824,0.427026430772480203312824,1225.53204433582254750945,1230.64845055552746089234,1208.61633216298628212826,1219.50558067834845132893,278.329817086932735037408,565.991851994885564636206,153.177433051950941944597,769.793076332415921569918,163.602356435020965363947
0.287500000000000033306691,-0.810479975768183757978136,-0.0187517935796514927104806,-0.3311385884556716785454,0.380388518326375490996583,-0.020833877851179467832754,0.0178112153389392222080367,0.0213830233344896834812854,-0.0088224073905133100492737,0.0679206550830860206202644,0.997423333980214987803947,0.0374731413538978014310388,-0.122955968442382074234942,11.2484510080400585962934,0.0549372642488697507379136,0.296788840415461441235578,1.01589255897161034880583,-3.97989308323731894034836,1.30912246988901981303854,0.42959815579756049919169,1225.64259848874507952132,1231.92630392732417021762,1209.22617509967813020921,1221.64876409134353707486,-136.4540907396090290149,510.084014342151704113348,292.454815903923474706971,868.448749381159132099128,163.598423723096288995293
0.289999999999999980015986,-1.09005511065658766689523,-0.0954496004708952350270579,-0.592336909673470413117968,0.377178257399742700162193,-0.0211164391775376485138604,0.0155309089152984441950522,0.0218056959524326673949268,-0.00879377308285096692674898,0.0679172288386523798076055,0.997414375420712984166016,0.03678037155474618569162,-0.11756804741912688094807,11.2440274469986629668483,0.0544648930677979412062761,0.296554161993362097593518,1.01929945659597809282104,-3.97990009971333069671573,1.30975770730774199179791,0.432179000850362871055665,1224.8497738821245093277,1233.19887062723819326493,1210.07860624250588443829,1223.84782442525420265156,-488.371094892914243246196,560.106929127783814692521,363.56270952642631755225,813.932609372531373992388,163.594667352038726448882
0.292499999999999982236432,-1.29428544541852885707556,-0.168057472420710757310403,-0.785641911997203568063242,0.374438951372059181110785,-0.0213738929695587581703009,0.0125785412989570209718604,0.0222362096609961187865245,-0.00876253797994449093455849,0.06791255432567416816525,0.99740520718408565148394,0.0363520869850982447646359,-0.111816257000300595114695,11.239063803840910082954,0.0539890650055290313713563,0.296336216270927710336736,1.02267494259812852241964,-3.97990706809748440164753,1.31039160592295411689179,0.434768634268025366829136,1223.2007430142805333162,1234.72683857296306086937,1211.04398864731024332286,1225.71842713820615244913,-838.129911096074579290871,776.358313187574140101788,414.053069617557071069314,665.113130755798351856356,163.591127262975305711734
0.294999999999999984456878,-1.49742704958928340985835,-0.258067659031554819115684,-0.936890797829977417521263,0.371755452502581351659217,-0.0219172988278357114277917,0.00911422818428705809601365,0.0226745984675407255548585,-0.0087297418386504434251183,0.0679041604652105973416454,0.997395987930704053248121,0.0362249354312301208302927,-0.105742952693659048035713,11.2336870824601255947073,0.0535100800503954809883567,0.296133394118903381375674,1.02601770527594515769465,-3.9799135812157735436756,1.31102429213093341076046,0.437367229541318514041137,1220.6591243266441324522,1237.08066219317606737604,1212.14887159059367149894,1227.17339007903319725301,-956.392979307383143350307,957.009798061061815133144,384.495434068866984489432,372.074320622186519358365,163.587132920020678739093
0.297499999999999986677324,-1.65571907412509689017099,-0.340165629313492479113279,-1.00897280484684581658428,0.369704824368624784813875,-0.0227649277216121943834271,0.00661344461944904111333488,0.0231180947254388639844347,-0.00869735687501737783633438,0.0678918576958443542590516,0.997386769054463662165233,0.036446987611678055563047,-0.0994513176061779524683715,11.2280268765238080419522,0.0530306290838772134699219,0.295937806793107049951885,1.02932893796145430442834,-3.97991927951216606373919,1.31165543238197424003033,0.439974235830165982807927,1218.41877811774361362041,1239.51188756326837392407,1212.96646581765457995061,1227.57879874131708675122,-844.678899483505233547476,1045.86457504101326776436,314.230063227750804344396,5.39666437039158619626278,163.58401779323207847483
0.29999999999999998889777,-1.80715312321878540657849,-0.435960404864499939669997,-1.04929357152563484945063,0.367208679722310860071843,-0.0240122580449762638987732,0.00442008382371527914350695,0.023567560719230853244488,-0.00866416793501449851444551,0.0678771753075279593581115,0.997377426771791975035342,0.0369957213064556200698973,-0.0929548051130359709315343,11.2222133133489538892036,0.0525481002860325105419115,0.295749358404697293423169,1.03260871660282327333391,-3.97992410536876617399571,1.31228460911275068845327,0.442589411891134876242404,1216.43572982922660230543,1242.30998506838113826234,1213.72002190673242694174,1227.2003734008851552062,-745.798371361433282800135,1257.62874619344870552595,349.236139743652245215344,-279.932352287232561138808,163.581125872450115821266
0.302499999999999991118216,-1.95036349878636272592303,-0.578893003255294358311289,-1.08803331968403549367963,0.362943078179585931763995,-0.0256295477868308946289844,0.00214575853689559243459017,0.02402276328602366214926,-0.00863034939522280483692462,0.0678605581374904648361834,0.997367925896369689198195,0.0378747041583457483282515,-0.0862908073865394642520954,11.2163742459139914586785,0.0520621088160331327299168,0.295565892098389237929723,1.03585844838141749590932,-3.97992868421098799913693,1.31291119423642954622267,0.445212797295521323093226,1214.6897862609364437958,1245.80003129423562313605,1214.71264651637284259778,1226.17913697988092280866,-505.844605053743634925922,1252.40994582531925516378,406.705192202707280557661,-395.067950476868304576783,163.57791447896502745607
0.304999999999999993338662,-1.99662629984821116124749,-0.733442304628774022212667,-1.12534148388871146906354,0.357756444126337003197591,-0.0269213815059633487791757,0.00045719944445120845990041,0.0244794916273378300453079,-0.00859990046288948081776304,0.0678430934197970653132259,0.997358250334564933048398,0.0391622245462999035714446,-0.0795889759658423290300533,11.2106330796490212264871,0.0515804140895627788454547,0.295376812406478062023041,1.03908235330915665883822,-3.97993354016106071213699,1.31353476159507254195091,0.447844965493177593618412,1213.90650680395788185706,1248.5720347975077402225,1215.75354786774596504983,1225.22503364850081197801,-164.955003259774315438335,1031.7180646309670919436,483.073796265443434094777,-309.582603758417178596574,163.575454057035699406697
0.307499999999999995559108,-1.91423383330698437809758,-0.938274698159023423649217,-1.16971315280233811861876,0.35068202647858837117667,-0.0282293209114210415233703,-0.00140663727248727479270107,0.0249319733377579705324578,-0.00857779308827716184537859,0.067824418529545960065974,0.997348514979044420414311,0.0409514313000035462541959,-0.0730137650601706822417469,11.2051071585489356863263,0.0511124155064939036940963,0.295168634029837007037855,1.04228618100845737970417,-3.97993889861431782151158,1.31415482133680083798311,0.450485473155153082203128,1213.86501124463757150806,1250.95862161739046314324,1217.12801549770006204199,1224.63122396108883549459,96.82613504073734134181,872.079673363031474764284,604.581231840710984215548,-122.009638652934768288105,163.573216795907171672297
0.309999999999999997779554,-1.70244648503361806213263,-1.18918419066396707783895,-1.20959705046752152846068,0.342820189211398174133905,-0.0297975415914048524790303,-0.00376406238447842119917985,0.0253767928892831770570915,-0.00856722061359886481735071,0.0678051524957826307060671,0.997338729417691860490436,0.0432926627738698527325667,-0.0666731169551841029718986,11.1999061988466035444389,0.0506653511187375935054256,0.294933322874503356381126,1.04547500633059886609999,-3.97994484185331076631087,1.31477120576658079720289,0.453133129291308944797123,1214.39063747916156899009,1252.93243316432290157536,1218.77645402694952281308,1224.61498545523613756814,321.978979519826395971904,694.167815190302803785016,700.317086556742083303106,163.814258948877835564417,163.571163635807437231051
0.3125,-1.352132787684958925567,-1.48843875723560903345799,-1.22123401771726380893313,0.335944113445285907904037,-0.0321806867496875273482182,-0.00696640300789134851722206,0.0258134053585064963953766,-0.00856805918453520248823096,0.0677874012382920498875905,0.997328762970265736420572,0.0461587687314807815219808,-0.0606057960539912732311763,11.1951309523026374392884,0.0502413884774112681763647,0.294669609085592754116334,1.0486528756718496158129,-3.97995140494512567030938,1.31538372423511895625836,0.455786478990759746920958,1215.47490614223670490901,1254.42946069334198000433,1220.62960093048377530067,1225.45029525583322538296,563.886358837589341419516,579.4199190851480807396,807.290852856385072300327,546.802556331067080463981,163.569331469213295804366
0.315000000000000002220446,-0.860424314505875642566934,-1.87678956965007603940876,-1.17219973665354060265997,0.330866717612334826359444,-0.0366051746280973699931849,-0.0114974644990188008819576,0.0262434284655464998559093,-0.00857871877071234370526476,0.067773345956588640359719,0.997318441387559095900883,0.0494852989252176772572156,-0.05480148446989116517436,11.1908721792372549685979,0.0498405992383685880753319,0.294381387138063888020412,1.05182280314636433793396,-3.97995886797515474597731,1.31599248201246932232777,0.458444763238325336818235,1217.21006927334951797093,1255.82953275974864482123,1222.81290829123145158519,1227.34899823689147524419,672.730364727748906261695,475.112659065961963733571,747.886169029333586877328,794.921749186186616498162,163.567387633042216066315
0.317500000000000004440892,-0.490355270579245605677698,-2.19703795521135747392805,-1.06530981004040636861419,0.32932267216972976875411,-0.0417526848477259016068075,-0.0150994089707992742294129,0.0266675689608386508322457,-0.00860025450846227564050128,0.0677653617512233436004365,0.997307581330879600045591,0.0532567391549239599335408,-0.049276677447412570165497,11.1872101045585790046744,0.0494692625396644519719658,0.294070641388383680059349,1.05498789676304927098727,-3.97996817320881390855902,1.31659765143940887810459,0.461108518377153053791062,1218.83855796587545228249,1256.80502398867179181252,1224.36903177563044664566,1229.42490400176416187605,641.861365186240959701536,370.271851027609613993263,521.926717266296236630296,844.931464063846874523733,163.565980004151839466431
0.320000000000000006661338,-0.29186449924446761228225,-2.48059456114584797603584,-0.889202687907315936222119,0.330236094010318004254856,-0.0479631213039075840476322,-0.0177985593295567970373305,0.0270851555927346700214375,-0.00863448356221786263164919,0.0677634052824648974722166,0.997296196136164048162698,0.0574644166095075459299579,-0.0440833857502344328427313,11.1842145560004517790276,0.049134397362692740218737,0.293736861661836212711307,1.05815129560921517004601,-3.97997970853764293508448,1.31719914377593938503708,0.463779288304245806973114,1220.41937609928072561161,1257.6808920148866945965,1225.42254187756293504208,1231.57365555721071359585,627.26884720918803850509,350.922788423076497110742,320.304966982120902230236,855.675313099708660047327,163.56479315225445247961
0.322500000000000008881784,-0.382415205139736869011102,-2.7494477088869806458149,-0.610647764763951994559932,0.334297977970115678392204,-0.0559629168212233268908662,-0.0198960875409673054736714,0.0274941581834279615004224,-0.00868296723050907166829848,0.0677653110386312179658219,0.997284483961953904795905,0.0620834110074200973272696,-0.0393075635198365802569498,11.1819453172713689781403,0.0488416175458398424402695,0.293377143434595977211643,1.06131590113737894753854,-3.97999347709786999160997,1.31779669783368480473484,0.46645890328203515329264,1221.97490220192139531719,1258.55963793078717571916,1225.9705566105410525779,1233.70328056726270915533,476.211435824370312275278,259.251838979798549189582,84.5764466227137035048145,644.682874308363693671708,163.563625450880010703258
0.32500000000000001110223,-0.784555628101177293665103,-2.8998609771701375770192,-0.334062848564932901584967,0.339436757875577477250317,-0.0627476618584376505394218,-0.0208756056229704306526074,0.0278921667712125134763745,-0.00874634781814941260347229,0.0677694786122429865260486,0.997272624552172914924597,0.0670581289305086092333852,-0.0350460748041410419251207,11.1804524684016559632482,0.048595074844432352423329,0.292988101430460279317458,1.06448375033279196699709,-3.98000877292120147643573,1.31839007560024445986357,0.469148335231212298968018,1222.8004332784025791625,1258.97715120978568847931,1225.84542411067650391487,1234.79706992875253490638,204.700202281764916278917,37.5338203325099684093402,-140.570080506222325311683,259.62118109305242796836,163.562867549934395583477
0.327500000000000013322676,-1.49888122024081105188031,-2.96087242716549159382566,-0.0230084135509395631968843,0.343745642583765775857074,-0.0696330487751211091307368,-0.0213189936190773497715067,0.0282764819002666624447873,-0.00882256810253488968354141,0.0677743065302217201351098,0.997260829823534700189214,0.0722637765830966283253645,-0.0314020016654970868241747,11.179776835094774156687,0.0483931440391291156633002,0.292566319417149667270195,1.06765621723055081915277,-3.98002582497168999609016,1.31897894562700424003765,0.471849091974834100593483,1222.99840321333022075123,1258.74730703244972573884,1225.26770620800994038291,1235.00138647272797243204,-25.6776441315650814090077,-252.674697402562514980673,-268.334158665538552668295,-60.4137416931734492209216,163.562335232966717057934
0.330000000000000015543122,-2.36659799523490166350825,-2.93757525497099658551292,0.308990591069767672749435,0.343455459861423506584543,-0.0769358624161831233800868,-0.0214153036874887466034512,0.0286453338662319492713415,-0.00891307384390670372209531,0.0677782766533153863131034,0.997249249185243602511264,0.0776478075988430022080777,-0.0284663399734980948618812,11.1799491441956444504058,0.0482417542089610337785466,0.292109957211047266412152,1.07083329298443552524134,-3.9800448369493048872414,1.31956257535197063468502,0.474562064936489225175364,1222.67204505774475364888,1257.71377772277287476754,1224.50375331734881001466,1234.49500122028666737606,-229.071574288491120796607,-656.652946157100245727634,-297.449248625389088829252,-332.011748402873934082891,163.561991757426113736074
0.332500000000000017763568,-3.20720753189165286300977,-2.80121833208312409624341,0.653668426762316179257084,0.334047794724486535322683,-0.0843135655581024462401629,-0.0207173140562510842144217,0.028998494390922155417023,-0.00902423878572961198074598,0.0677806066030937348632079,0.997237893083521509396405,0.0832641843630822497956956,-0.0263055161532640136012873,11.1809890529934907732468,0.0481578222891438367803119,0.29161968403889504397597,1.07401368510444283899119,-3.98006601233701839959167,1.3201400765168767037494,0.477287316489521995510614,1221.85304534188776415249,1255.46404230166422166803,1223.78045996488299351768,1233.34132773071360134054,-406.608092324404083228728,-1288.6783657791499990708,-247.899774183269755667425,-576.437271976100760184636,163.561877487904041572619
0.335000000000000019984014,-3.90388842045486450516023,-2.49990317641956316663254,1.05691278492854445758553,0.31561865520132598161851,-0.0922667705907522089914252,-0.0184077966357598099556014,0.0293406049716522197845503,-0.00915778003905318160882132,0.067781616722233345440074,0.997226596184365265962413,0.089066988806039942838666,-0.0248711203798340496629038,11.1829048153984036417796,0.0481490753312548147579975,0.291107024141475878575847,1.07719402384884999079873,-3.98008932664765824327446,1.32071066773154477402841,0.480023964947762837862655,1220.63900459612273152743,1251.27038589387711908785,1223.26425444643246009946,1231.61281486040616073296,-421.336890164820545123803,-1755.31108415097901342961,-101.92081866575782100881,-628.043685143165362205764,163.562005997462136974718
0.33750000000000002220446,-4.08760224347819267620707,-2.13438158832083768601251,1.36181208281699017703659,0.299362918533525090847291,-0.0981743979092663116015061,-0.0153576558502668825134663,0.0296755278048998864803831,-0.0093069090130098036661721,0.0677834522578111969837167,0.997215165648655754715435,0.0948185223776149554986148,-0.0241180935734115198254557,11.1856934791296378506331,0.0482048364748123708833916,0.290582500519437625374763,1.08037297965361234197701,-3.98011397575585990082914,1.32127493726997324863248,0.482770636064481895033396,1219.74636089106365943735,1246.68748688090931864281,1223.27085587155420398631,1230.20110930499777168734,-258.974308422102467375225,-1970.05518300675066711847,99.6489063610623873046279,-494.474677705920385051286,163.562333983470324483278
0.340000000000000024424907,-3.81143472315399245431422,-1.65532373137144217523087,1.60820346813725434387266,0.285322208473248739579731,-0.103484073318202557389967,-0.0114185005186606333693611,0.0300093482228135227662946,-0.00946005221123483695799816,0.0677883369765269888640447,0.99720337971770289797746,0.100180982988003611233729,-0.0239410052070264389723064,11.1893386840098187917647,0.0483031362150170839875329,0.290061308344278401261107,1.08354969872288520171821,-3.98013959219724045013322,1.32183355529507751136009,0.485524798648229782838115,1219.34413305401221805369,1241.42010997884335665731,1223.76249897823777246231,1229.14044147187655653397,0.917234528697007722719547,-2330.259278727360197081,298.475017847431161044369,-337.52231334497054149324,163.56288958204507366645
0.342500000000000026645353,-3.01337285085647899052219,-0.967462515154799085337345,1.81162270947985315494577,0.271728290922954474062578,-0.108516306524494315910445,-0.0059925913256055462347005,0.0303467172769145213107045,-0.00960708177274653338240107,0.0677986141152818050370499,0.997191037291425108612941,0.104853499323364907080958,-0.0242622455150151294933636,11.1938084840031883970823,0.0484235129078008363912033,0.289554192101321494767774,1.08672570980221294689727,-3.98016652286439853725142,1.32238762600561754467776,0.488284496703200676659407,1219.75094706370714447985,1235.03619048727250628872,1224.76323096079136121261,1228.51349773827291755879,322.146243552105886465142,-2241.49124612185732985381,394.939291586342392292863,-109.311454309727096756433,163.563816096129642119195
0.345000000000000028865799,-2.06162326011828334060283,-0.326648010487376183608177,1.89186442412472111129773,0.263282582821395771954798,-0.110878228780410051368399,-0.00116194387467248995242375,0.0306897507312999875961346,-0.00974376329936342891469003,0.067815602794891488569462,0.997178025814531299175769,0.108674371726748708599786,-0.0250604473748864686744042,11.1990527986899195411752,0.0485559046599164864654874,0.289064196002897400017417,1.08990507995166985288904,-3.98019513103317512658919,1.32293807809548913390074,0.491048505062275764121438,1220.9548642717727489071,1230.21265374823406091309,1225.73719543616948612907,1228.59388420032792055281,660.461204048169179259276,-1720.92240007627719933225,363.05911685940338884393,145.02423324497598855487,163.564801321383242793672
0.347500000000000031086245,-0.978486854732775412912815,0.337773654738534545582951,1.87172940538749421612863,0.25938308549220057130924,-0.11055089679071113117903,0.00404512003760917199235436,0.0310404259231236261118436,-0.00986618216384803174701101,0.0678395933682887641857917,0.997164304657971456435916,0.11150449141897163241044,-0.0263054962891936805480242,11.2050024080006771498574,0.0486887396152162754692228,0.288592562079633574434467,1.09309284647378879284929,-3.98022548646623430812497,1.3234856312756468899039,0.493817012168198898880433,1223.05325308394799321832,1226.43157848689111233398,1226.57852654508837986214,1229.23861890449779821211,965.417774991464284539688,-1293.74555908752768118575,279.334476168787432470708,323.511444161976839950512,163.566002721345284953713
0.350000000000000033306691,0.0715692896285467644590383,0.983210751341190847263363,1.76937122138527125336793,0.26049933607438835458936,-0.107971867437082577612095,0.00937066476384868646265502,0.0313976477654314065079966,-0.0099698362726235324055013,0.0678690622226701401054072,0.997150057014349111561557,0.113207036389379303575886,-0.0280200962276610787693443,11.2115685480645996818794,0.0488059082792219531277134,0.288132546317864390861274,1.09629622519154446003142,-3.98025729307963205272358,1.32403109273724295391617,0.496591875911632341100699,1225.78195314673007487727,1223.74392595279641682282,1227.1338678170134244283,1230.21144142113780617365,1193.78253679930230646278,-802.095275526707155222539,131.013294664673111356024,418.954327510714108484535,163.567379035684353993929
0.352499999999999980015986,0.925565707601979981156148,1.56911922485840626961817,1.581607083559852577892,0.266430799616456548406518,-0.103559528325177979679594,0.0139769645147448402094925,0.0317603899327428343402069,-0.0100543017858140855402826,0.0679030172951215482690657,0.997135387795566763280419,0.113758978569748647746707,-0.0302142935491257758062744,11.2186412415563570021959,0.0488985336465589878751636,0.28767552261943774016828,1.09952206727220347382001,-3.98028932355879927484921,1.3245753944146108072033,0.499375277646757431693203,1229.02216576794444335974,1222.42110210925761748513,1227.23359301841173873981,1231.33339054205134743825,1459.93389169417832817999,-307.105829039895468213217,-56.5606041706820477088513,459.744060666939901693695,163.568961070939337787422
0.354999999999999982236432,1.5934651976083431534903,2.17966946854705101443983,1.29017423794973584705303,0.275499437915761813400195,-0.0972753691607884662939654,0.0179624014291069819537761,0.0321261730442433252052936,-0.0101188785858469711825824,0.0679391227684835591338341,0.99712054407783345943983,0.113155611098949004933445,-0.0329115729958210645467176,11.2260907079787326523501,0.0489542206073799029963922,0.287208736249879137414354,1.10277783487028480102765,-3.98031963907332997365529,1.32511962098176883095846,0.502168014105862758889032,1233.08162260520089148486,1222.2083968075969551137,1226.85106479616001706745,1232.5101617244724820921,1451.17802140189132842352,94.5001509105167372126743,-197.922014923869767244469,360.674428096762881068571,163.571091264279630195233
0.357499999999999984456878,1.82248115165869339904248,2.60848083703664013199841,1.0193826412800166547612,0.282754938975775138576552,-0.0915318771567910499653564,0.0200662575549307581335157,0.0324908122800756232750885,-0.0101620143459154148313228,0.0679768223486182238124442,0.997105716677347597709513,0.111397507074577503671797,-0.0361528667056270902602222,11.2337686778535346121544,0.0489575200193210421928391,0.286715017224637658266317,1.10607178299916197872221,-3.98034610569542701696832,1.32566445930946885667367,0.504969684383628325541338,1236.27805587495390682307,1222.89360286381020159752,1226.24398294379238905094,1233.13676268253516354889,1171.41871007383883807051,374.30534739455617909698,-255.522211260358517392888,146.218879331035935820182,163.573055596571606429279
0.359999999999999986677324,1.74031012162761689054946,2.95765727274050549411299,0.744999957519994260302099,0.288698012256460967428495,-0.0851240677279904989216419,0.0213157374803589691469874,0.0328509951947049058662564,-0.0101815786039655565425877,0.0680153831771471428790932,0.997091089011693409993597,0.1085025048679130466045,-0.0399397072655756912862302,11.2415099298445770870103,0.0488904148289028422924574,0.286179087447129942844981,1.10941146861354367203489,-3.98036679577834773269274,1.32621049037209726151332,0.507778122034992840383438,1238.93871615557009135955,1224.07992354456973771448,1225.57345373985822334362,1233.24125612112766248174,996.410556897489186667372,560.36683163078987490735,-255.604121642909149159095,-78.8052503819016436636957,163.575212129560725315969
0.36249999999999998889777,1.366911398262740551246,3.28626498227503605065181,0.424919828532186016900596,0.293798123335965999380903,-0.0763590487790056920980319,0.0223299404570282723769825,0.0332026171848662579599853,-0.0101748099060735616022688,0.0680524144533150437963442,0.997076992146073814993201,0.104502283999886508292221,-0.0442729802544783723750044,11.2491352131880262277264,0.0487320394483735375157352,0.285584611114638953210942,1.11280452538345331348069,-3.98038066572310222923647,1.32675783025252558289253,0.510591366917273581371717,1241.26010865944135730388,1225.69543702196415324579,1224.96596233557784216828,1232.7427364306256549753,692.623942960926228806784,589.93854059794955446705,-164.814138954579760820707,-269.951871173361496403231,163.578018031699201628726
0.364999999999999991118216,0.903883277497276149681227,3.48266189331097564263473,0.165684195277694179537775,0.296064335965465275091191,-0.0684049603210425127830518,0.0230085310075593720002818,0.0335449732590518134855984,-0.0101411126963923490379438,0.0680857593060227722636668,0.997063608906676224208354,0.0995082258238649541848275,-0.0490653434000354604638261,11.256453908339484115686,0.0484675823107942327361286,0.284923565998130012832945,1.11625557815152531837555,-3.98038783167354104364222,1.32730600163273915192974,0.513409738721374298009437,1242.40183587037472534575,1227.02961624755948832899,1224.74938304508532382897,1231.89149676526085386286,299.432551811514429118688,518.745521382242714025779,-23.7072335582524615915645,-395.194394147801745020843,163.58053538185723141396
0.367499999999999993338662,0.374274690408847310330032,3.5934885015312572065227,-0.0910883685613670113223606,0.295664677636404527039105,-0.060482317292795011176576,0.0235104941658346028310334,0.0338787342818308440106634,-0.0100833297982278503879261,0.0681124744010696281382167,0.997051097366185690162865,0.0937338678238140571297166,-0.0541919003468139537371684,11.2632686405109119220924,0.04809156929550678638563,0.284192284577238885034944,1.11976673143011096200894,-3.98038955606789146557389,1.32785349649537121052845,0.516234649230496445149186,1242.75727141849893087056,1228.28916462887536908966,1224.84742616778657975374,1230.76676445988664454489,28.0722964767846612232916,498.564845321379380038707,73.1316633616187772304329,-464.320076502144331698219,163.58323597849354769096
0.369999999999999995559108,-0.156976292654097987488981,3.62537184816559232558575,-0.347727344311518526964733,0.293067349794205400659308,-0.0523396925604313334456918,0.0236370743120828778749409,0.0342064283503175983747191,-0.0100077146906107760510052,0.0681298717743756415687884,0.997039503274806393484653,0.0874891787436214984907679,-0.0594832423438883262090116,11.2693806546234842613785,0.0476095577872752556691793,0.283392973038909035121691,1.12333678800485836646317,-3.98038834225188020710107,1.32839806414553796010125,0.519067521465638836986045,1242.54219735275864877622,1229.52244047416638750292,1225.11504136189341807039,1229.56989638275013021484,-197.724199171670818486746,505.522324698585634905612,109.736201460145721853223,-463.519625703065287325444,163.586086793058939292678
0.372499999999999997779554,-0.662361837540409226221527,3.54475450792274138223092,-0.598424802175223202738152,0.289390762966589110138926,-0.0432552787076698752599668,0.0230292071032221282167463,0.0345286334413510490048971,-0.00992320489108013126244856,0.0681359137891838079204021,0.99702886876750673739167,0.0811515151925013555889166,-0.0648144203238081029194717,11.274596061349594577905,0.0470369835566339031251992,0.282525555184627019666976,1.12696318521175364857356,-3.98038709829164671916146,1.32893733828463722623781,0.521909714684630765546558,1241.76865042264057592547,1230.81677625236829953792,1225.39610717508730886038,1228.44916633137131611875,-431.286655571193080049852,606.790438775305460694653,75.168750630336873541637,-448.593024393766938828776,163.589116508426570817392
0.375,-1.25729994264296429662409,3.2969872125603911783287,-0.87339748193427702016578,0.28622190870865815703894,-0.0318156818674106209310359,0.0212574396599935835916462,0.0348469788890009082860111,-0.00983803469877301411949944,0.068132577589576290288953,0.99701893312098199828597,0.0750840097070051698535664,-0.0700364106074648218314138,11.2787319726143095977022,0.0463939539900389968929417,0.281594694761468478105826,1.13064038861118176804155,-3.98038892623268303339046,1.32946826722679678489669,0.524762783938432231245486,1240.38576407490268138645,1232.55639266804291764856,1225.49088511504510279337,1227.32693126078129353118,-551.914213884628679807065,677.112279645825196894293,-32.0270482898194757126475,-368.124588372301900562888,163.592955683340363748357
0.377500000000000002220446,-1.77817223075741659421567,2.96254635610102345921746,-1.06109980913520374201653,0.284935410051643134288213,-0.0226474476293391374648323,0.0188056658416838919090086,0.0351618916065979600360514,-0.00975647147061174842275211,0.0681243072672561983393891,0.997009346899365045402419,0.0695514203200980618557736,-0.0750263611249389616997263,11.2816225577602633478591,0.0456964758020479838718231,0.280605071935276451089436,1.13436151667258644515357,-3.98039606467822260071898,1.32998850129649048845693,0.527627166506078437713256,1239.0090793532174302527,1234.20233765059742836456,1225.23597193363821133971,1226.60854338950980491063,-559.102981674959210067755,691.362662517394142014382,-177.063363193428642716754,-249.544583413034843033529,163.596321865483560031862
0.380000000000000004440892,-2.35002695253010962517237,2.51800422581719374193199,-1.18097443434704874043462,0.283395137931346074999794,-0.0146064944235568209413012,0.0153680737497324700069345,0.0354751052907845698669576,-0.00968665749884884373643867,0.068114926457418914496067,0.996999714731369834908037,0.0648947389688760423176461,-0.0796475814100648660254222,11.2831230456712123810803,0.0449725268910155517865235,0.279565425288779090262636,1.13811681801428443705504,-3.98041025127928893567741,1.33049630119149986384741,0.530503116197705293366482,1237.59024916652788306237,1236.01320598062989120081,1224.60556829907795872714,1226.07920834371611817915,-594.925804820103962811118,802.16855631588191499759,-335.029078537854445585253,-211.267808341108121794605,163.599857623879984203086
