t,ang acc x,ang acc y,ang acc z,ang vel x,ang vel y,ang vel z,quat x,quat y,quat z,quat w,acc x,acc y,acc z,vel x,vel y,vel z,pos x,pos y,pos z,mot 1,mot 2,mot 3,mot 4,dmot 1,dmot 2,dmot 3,dmot 4,vbat
0.00500000000000000010408341,25.9919609962737361286145,-12.4593171350657758722491,-1.08884016076569634101645,-0.711709979013377957990372,0.542410736602414567109065,-0.0203764452360828719756913,0.0291552129697613647552057,-0.0263972704305075744901643,-0.101715785901759628306884,0.994035221234955357338947,-0.245951118009848840317844,-0.345505230304314681077926,12.8826331603614541165825,-0.0249685386644771106778862,-0.0470029949197698915241972,0.340766826484102336447535,-2.6015784908311343492926,1.29716713658406246345578,0.113582127202326937931431,1152.74806488075660126924,1219.0256929276256414596,1217.35365540665179651114,1274.90070042947672845912,1936.11556712476181019156,2651.29673171677541176905,-1374.78424431328699029109,-1001.7665391212177610214,162.736432454049918305827
0.00749999999999999972244424,23.5654895695969130997582,-12.5331279434397675487389,-0.977788556658807372912179,-0.651910725861265416547496,0.508131458537431468514001,-0.0215887523440184032896827,0.0285956602797858457087887,-0.0257934170806055837465998,-0.10180794006627798264919,0.994056878307908009517746,-0.248436783794938692571108,-0.348698345929573050305805,12.9380808134285008037523,-0.0271442666328486625904048,-0.0496873625540997024274681,0.348361853704444168755572,-2.60171117667483908775239,1.29702424559377127444293,0.114453557121674792673716,1157.58835379856850522629,1225.65393475691757885215,1213.91669479586857960385,1272.39628408167368434079,2528.80072602915788593236,2849.07944952619800460525,-1522.98191513591518742032,-1371.76786579630061169155,162.766881936950966291988
0.0100000000000000002081668,20.3295247985993086103917,-12.0101493264616614453644,-0.926986564113634003980735,-0.587244302638158188756279,0.468320587604871774178861,-0.0237386293814309812244545,0.0280298501038426309261986,-0.025211227008074103134172,-0.101911324825672555682843,0.994076816429559251275805,-0.250285033545113555497608,-0.352028226354781037521491,12.9936272595423645270785,-0.0293192502141671820781177,-0.0523926101100563590406978,0.356008219495750677374701,-2.60185012992973252465845,1.29687785283370105027245,0.115325028293895237574418,1165.3920685109023906989,1233.27109017525663148263,1209.73874583097222057404,1268.04186110049522540066,3167.66445082534983157529,2684.81724284324582185945,-1497.93649238263219558576,-1775.41710454556732656783,162.80401703777869215628
0.0125000000000000006938894,17.4221663303261919963916,-11.1023695993439428519878,-0.938744195798695280075208,-0.539798938068029254822022,0.437391437032780772131701,-0.0259862102730173925857482,0.0274646041967887555301786,-0.0246668291251552901366395,-0.102026547638851994292963,0.994094297242340441123076,-0.250993144857840633221713,-0.355215769640297718279243,13.049274257826027678675,-0.0314805342350396588635419,-0.0551099246943237072726696,0.363736306420942234751692,-2.60199698327858763846621,1.29672593135294400568114,0.11619986101160038882707,1173.4266760526952566579,1239.07802097113381023519,1206.42701233395541748905,1263.51919855894584543421,3454.0735025554117783031,2179.6316540703633108933,-1238.97546373432328437048,-1920.18909822163573153375,162.835397455393717791594
0.0149999999999999994448885,14.3985848567860656999073,-9.80909865040743866870798,-0.985787670448877051398995,-0.500077663554715945437579,0.410043447762398927114447,-0.0283290399527700784143569,0.0269046472952666586297976,-0.0241661232199904471573682,-0.102148152942080697180849,0.9941095462523151793377,-0.250308760708402466832467,-0.358048907068503730055653,13.104977911405658375088,-0.0336220858812373082913361,-0.0578305107596200212993764,0.371575430569703768490797,-2.60215215498274687888625,1.29656642285379719581329,0.117081676688990360402087,1182.66243602367944731668,1244.16924844560844576336,1203.54386851230060528906,1258.44091560938704787986,4204.16779923034391686087,2081.80711498366645173519,-1113.9174981424273482844,-2257.69769415492146436009,162.867158560566565483896
0.0175000000000000016653345,10.800551326756417935826,-7.99380028777343731860583,-1.05970028622752643343574,-0.463117607350418514222667,0.383178416881048589104353,-0.0312729331145794597901499,0.0263578320685704282910766,-0.0237050090168002859647434,-0.102262999812783542119554,0.994123765921893887131944,-0.248249737573642798027507,-0.360249039934201709112216,13.1606455917946600919777,-0.0357463957677170707238901,-0.0605418985281478694293611,0.379552051255551858854886,-2.60231535994301355074754,1.29639788153504675882743,0.117975785846856043304065,1194.44751504884698078968,1249.4870565460521447676,1200.85742484324327961076,1252.23071008817123583867,4318.06736037537939409958,1842.9590803217247412249,-821.081323388398118368059,-2213.3644039236055505171,162.905634774528692787499
0.0200000000000000004163336,7.96891592356499511851098,-6.42064300780135965851514,-1.11938327247903202099621,-0.441548068787715131122695,0.366364473952761116049004,-0.0340207903548230897183835,0.0258296859702357613219892,-0.0232714935614827464482879,-0.102357577854035375342079,0.994138475864571047324603,-0.245033683861774903567365,-0.361619702683653176933376,13.2161325302670036307973,-0.0378625434329925708576425,-0.063232817754310804980733,0.387687713414027357305969,-2.60248634515201793249162,1.29621895113366036866864,0.118888348913457259081738,1204.25277282555634883465,1253.38404384721707174322,1199.43846189535861412878,1247.37409358976901785354,3767.24377600881052785553,1482.59712924373229725461,-368.265115407530345237319,-1778.23896347758909541881,162.937947156603172516043
0.0224999999999999991673327,5.47745154697108826979957,-4.97959806422707274009554,-1.15905832921648332956011,-0.427988872904789485751564,0.354746563960923355640631,-0.037139934956706463498044,0.0253238236505734966297343,-0.0228602337987588964673957,-0.102424559187262134707375,0.994154463933340615255929,-0.240694556778558915732802,-0.362007526998554818309373,13.2712542187040565266898,-0.0399744899778923454269908,-0.0658931764164337879785549,0.395999542555439565383324,-2.60266338485120973800235,1.29603020232589005722446,0.119821888116983493732803,1213.28373392889102433401,1256.90004219227080284327,1199.01609926620562873723,1243.33951527078329490905,3376.23308527799918010714,1360.38377899471902310324,4.89841123066980710376583,-1409.66662596997571199609,162.970457645511402233751
0.0250000000000000013877788,3.37416318942272175362973,-3.78018906548618716101373,-1.17208774554849881610608,-0.419539154386609214331116,0.346921712168466456205351,-0.0403285708229268180513571,0.0248398137811764938009951,-0.0224545875859060231616304,-0.102463545137225817138749,0.994172174817346543385099,-0.235552187131583684598368,-0.361410842808453924845935,13.3257773761626747699438,-0.0420943359663495525468946,-0.068518238381234941591913,0.404498241172278338861901,-2.60284568779329283927382,1.29583303636559943328166,0.120777633583493429481059,1221.13393825194634700892,1260.1859627421906679956,1199.46295395151196316874,1240.32576045991913815669,2749.00646680584895875654,1259.51490614211229512875,380.317062941594429048564,-889.928860944746475070133,163.003090510189565520704
0.0275000000000000001387779,1.83433264417419517045005,-2.99761073469502647981244,-1.1469430803961107034894,-0.416301517116418773323261,0.343200056627100069661651,-0.0433126733397195054497963,0.0243737053139810103119522,-0.0220464614095685247641132,-0.102482013295439933209252,0.994191140807959561342955,-0.22969506386574520262478,-0.359914706172752396629022,13.3794414560246455181414,-0.0442264295372077481660611,-0.0711076187649058721884643,0.413189973097994656114906,-2.60303175813095188928514,1.29562959753085982228527,0.121755189838465283092006,1227.02876626292027140153,1263.19761672298136545578,1200.91768458091360116669,1238.88987096605956139683,2056.28922476917159656296,1238.01661590391699974134,840.142096923182634782279,-203.069643583649053653062,163.035823964512360362278
0.029999999999999998889777,0.712546705385629364215561,-2.63342013556175125188474,-1.07067286158765972992057,-0.417019172970929552501929,0.341177742846368148299518,-0.0462719628683661912682545,0.0239251294413428475249539,-0.0216372539160926934120877,-0.102487316333579284166611,0.994210608874200651996489,-0.222985546439426557396857,-0.357490341190472515897625,13.4319719067994665095966,-0.0463671814088903316841694,-0.0736589622515049502471385,0.422077700931802135553284,-2.60322086577849720612221,1.29542225468855587422468,0.122754640493267841439007,1231.41538437579220044427,1266.3760458217102495837,1203.66366443612787406892,1239.31041224200089345686,1144.84457738558353412373,1065.02467003829201530607,1136.4571857538974199997,531.964396519424440157309,163.07516426804525622174
0.032500000000000001110223,0.393598037459873151266976,-2.81268319455500437342721,-0.967550559044168978495293,-0.419027924111443794696896,0.339036407099441550183627,-0.0481157997546279095346655,0.0234916505771583447592654,-0.0212339430471107891429394,-0.102489028385305158685981,0.994229529866464178944341,-0.215146212882584314529666,-0.354157426950818532418452,13.4830836597791865472118,-0.0485062367864303595199615,-0.0761728320718492724061832,0.431160290331807971586642,-2.60341258479095261080261,1.29521328997899187740472,0.12377585953090060322257,1232.75298914984819020901,1268.52274007317282666918,1206.59997050968308940355,1241.54969294865668416605,91.2771604069347688437119,720.047279951176506074262,1256.40740531653023026593,1274.04616365019933255098,163.107960204084207589403
0.0350000000000000033306691,0.670695039798980707779208,-3.42089344426759023320983,-0.815414961555753992072937,-0.419884100140783589338866,0.334125200553658130431245,-0.0496732425318066397879058,0.0230740043975412208177023,-0.0208435408063387742072514,-0.102495268078574258696634,0.994246930462140632300816,-0.205930534197510534122344,-0.349854881491871438914387,13.5324905212966530854146,-0.0506313313452646934775814,-0.0786479008596398104780079,0.440432676917030030416811,-2.60360775743811334592692,1.29500307985352458572947,0.124821069268169645982702,1231.87177017782687471481,1269.97628222146613552468,1209.94570146271053090459,1245.68064306025189580396,-797.651114307428088068264,448.747147971062304350198,1505.66292831476926039613,2189.27989779504150646972,163.140727493285595528505
0.0374999999999999986122212,1.58663506234921225512835,-4.49212124000380885746608,-0.55507722705622353220889,-0.418098668517297877844641,0.323661845324864194672898,-0.0519567529701637428884986,0.0226670492364877580737659,-0.0204657716557190109962772,-0.102512178091265698798296,0.994262335916437534066858,-0.195301330820049551251216,-0.344703562711198285839487,13.5799056845068228938089,-0.0527337350851196512424579,-0.0810886668546511313326874,0.449883751751218807779509,-2.60380854690264573747527,1.29479073865428562228885,0.125893923975756744093601,1228.76473357831105204241,1270.76647581302813705406,1214.12828515125693229493,1252.49609243763188715093,-1377.95383055363413404848,119.552121716014937646833,1522.54066462583136853937,2731.25203598761027024011,163.179971392272136654356
0.0400000000000000008326673,2.73733858719018874339213,-5.53466541519880106392293,-0.255759648739026179686817,-0.413605042020631641364048,0.310462057298953764128413,-0.054680772201654660735759,0.0222620541269805682915717,-0.0200991716168581989465647,-0.102544900022899981850699,0.994275489863887251829055,-0.183277990246542704655397,-0.338931301164204112907896,13.625057105069263485575,-0.0548031707680500246304689,-0.0835028802628445809830282,0.459497605861040991914734,-2.60401764016140502278063,1.29457497825143330594244,0.126997013544501657911212,1224.98200102505870745517,1270.5740428300462099287,1217.55840478583968433668,1259.33690324018994033395,-1621.54244941889237452415,-250.144378312961407573312,1323.08332731113182489935,2856.93571467554374976316,163.212581436185104166725
0.0425000000000000030531133,4.16026113968096211692682,-6.57943460652167111391009,0.133431492514533789339737,-0.405073385560792642579031,0.292625957086585453126304,-0.0577769815089413177333633,0.0218503331524495074400516,-0.0197487725984383521993237,-0.102595367474700979726343,0.994286337455551505470908,-0.169744147461616728955747,-0.33275185506980692329293,13.667702525193588414254,-0.0568216419679148168619953,-0.0858970818435498273402118,0.469255834800896942660131,-2.60423786765939713205853,1.2943542062657256153102,0.128131246375786878033409,1220.65702133121658334858,1269.51575392146332887933,1220.74370178781259710377,1266.78077101100961954216,-1866.06660409138476097723,-639.996226843595991340408,1310.62405943607768676884,3251.64736227152570791077,163.245062719292633346413
0.0449999999999999983346655,6.02982840102762907008582,-7.70825433797751990994129,0.660434748310851915675812,-0.389819469795754769414486,0.267713622404017526079656,-0.0588059829697112901314426,0.0214319232184055283307877,-0.0194226932332607453435269,-0.102659770950782616716346,0.994295161543747751942135,-0.154567171338128611646212,-0.326135623458589429812804,13.7076382112508206034818,-0.0587679012990892507550811,-0.0882681574848931116417106,0.479139697685584897701716,-2.60447055489433720865122,1.29412703854556210281146,0.129296076481551003301007,1215.65166800460178819776,1267.3740616958282316773,1224.11152508302006935992,1275.59514005154755977856,-1698.08859294130434136605,-899.96469339803343245876,1138.04865211795981849718,3089.77406926101275530527,163.283857094704444534727
0.0475000000000000005551115,7.61778186109241772783207,-8.50194750045399416649161,1.08364959628475876485254,-0.373150882637644842887426,0.245825579678548428175233,-0.0552843307392373375930283,0.0210178300810334138526425,-0.0191389390632725336915954,-0.102738096952928917304781,0.994301414330336252866971,-0.137406760452474935307876,-0.31873489234750357335102,13.7447071555728150826781,-0.0606097663322274077257745,-0.0906009831973809687255539,0.489132737240592807559381,-2.60471536612610554684011,1.29389386325433353164271,0.130490320416931815383776,1212.16657836651006618922,1265.01593045447316399077,1226.43394504840239278565,1282.22964135731467649748,-1151.88170759720287605887,-1017.40777737918415368767,808.736775299984628873062,2375.42112136306741376757,163.316009753966994821894
0.0500000000000000027755576,9.12224323799490655062527,-9.14585073653023883366586,1.40868622265257270598227,-0.352745562489489072888205,0.224268426227477918333264,-0.0488270820008525896493978,0.0206206630136265209318758,-0.0189132764308568013245093,-0.102833376297252726550013,0.994304245847023260296282,-0.118018876622940666054618,-0.310169629021259607437599,13.7787888035573242717646,-0.062315224084956960526327,-0.0928780697014479628137451,0.499218716253428285156701,-2.60497188386082845212854,1.29365482275054710648021,0.131712019078197517529816,1209.89225946661576926999,1262.28702280893230636138,1228.15520895951999591489,1287.47224565836290821608,-661.623311700441604443768,-1116.66881939659151612432,580.837179203399841753708,1793.81371664212656469317,163.347953727170647653111
0.0524999999999999980571097,10.4780726065635221289085,-9.68911078386056523470415,1.62081640907574464627317,-0.329507947141310542082948,0.20332422625226032053547,-0.0426835738105420733901063,0.0202462086003148897250803,-0.018746232628305440487404,-0.102946708956785926147859,0.994303443087851235304697,-0.0965940702848354371123918,-0.30029150920995667517488,13.8097898867038981762789,-0.0638667852275021652452835,-0.0950889925084397180654605,0.50937877625127792047266,-2.60523994859805885226933,1.29340961270415144568346,0.132961326700785670285043,1208.8584618080078598723,1259.43258635749020868388,1229.33813094441939028911,1291.19870994052530477347,-94.513772944856142999015,-1126.70934094444464790286,345.485493882097387086105,1081.48275272246837630519,163.379706491815483104801
0.0550000000000000002775558,11.561525143763962120147,-10.132337894088346175181,1.70308513017985196924542,-0.303037029720841177837798,0.182498637903717370045698,-0.0384125022852682337926034,0.0198985332567875872200602,-0.0186269436126426518596233,-0.103072738631997534719531,0.994299717737747612567034,-0.0736708842792333229443358,-0.289032263507029985039054,13.837650252286183061301,-0.0652613910418121945244962,-0.0972252202903519796572951,0.51959294807347067290948,-2.60551909487854471692003,1.2931580798814132915453,0.134239911720661603267146,1209.41969060189148876816,1256.65347610421008539561,1229.88263642893048199767,1292.87965942197524782387,594.868535124032291605545,-1146.89343740328604326351,110.383464615824678389799,271.313023086531529770582,163.411208139937770056349
0.0575000000000000024980018,12.4280040809135243762285,-10.5328516634000699525586,1.6845853457227399907481,-0.267552744114744944781137,0.156018084740084328476684,-0.0351547846453782453224335,0.0195826215399291410357296,-0.0185460239458955754299208,-0.103200790577644571643923,0.994294293660072936447136,-0.0497823125595011350963404,-0.276296733134020866540226,13.8623476222649006928123,-0.0664990315956896366200723,-0.0992766905960295181765574,0.529842936797818353511502,-2.60580848282124755144196,1.29290059000072110606538,0.135549140012242774755435,1211.8328044836280241725,1253.69811917047377392009,1229.89004826749851417844,1292.55527505595796355919,1131.0532700036224014184,-980.769127740223211731063,-82.9773288186971029745109,-466.619261699043136104592,163.448694902629796388283
0.059999999999999997779554,12.7091730176234776195088,-10.7076412319097951098001,1.58798415476383003586136,-0.235358673947958202399278,0.131371176213338686222798,-0.0324235829101228931192757,0.0193070727361020141876757,-0.0184969709688486243226446,-0.103314550699243806741734,0.994288858126964214534382,-0.0254146185316761752392978,-0.261884393741385612663919,13.883893807938159525861,-0.0675823364108452256937554,-0.101228935536642819514874,0.540113634046948454248138,-2.6061065798147509120497,1.29263845063297466708718,0.136889180982041669398797,1215.07495695190959850152,1251.74963046550897161069,1229.46774978483699669596,1290.54656311348003328021,1478.12081658271449668973,-636.290531678651291258575,-227.322087192669755495444,-1079.17631129203118689475,163.479654102685827865571
0.0625,12.4644745883906438166377,-10.6317657235860174580466,1.40556107692814435949913,-0.202170235563489009145144,0.103409110887598840178292,-0.0277716881118903122227515,0.0190849883515184781668239,-0.0184755492227644119163088,-0.103404466239536738103588,0.994284265806302358647883,-0.00100235979022836318996781,-0.245473805192069571834423,13.9023271844191871338126,-0.068514995460902325397079,-0.103063931751728260488576,0.550394126521495663517669,-2.60641296001282762873075,1.29237362921058362985605,0.13825990771331342354955,1219.22340856654159324535,1250.5166665120805191691,1228.7534378315351659694,1287.15939349949780989846,1940.60252087328808556776,-359.577849133529184655345,-347.069889454496376401949,-1686.48015094063180185913,163.510303847702374469009
0.065000000000000002220446,11.5408963045308130546118,-10.1720567144991242969354,1.08522802484867675332225,-0.163763914824533285408137,0.0681043767423735180166489,-0.0208531839032728323612975,0.0189194743942851725804211,-0.0184803791225306400514139,-0.103466889792064406505823,0.994280893218254413490342,0.0231388838260381535238963,-0.227018497612724579060028,13.9176982393280130878566,-0.0692999509087408871454983,-0.104775651412564313469389,0.560675874631781701040723,-2.60672531874114588035241,1.29210823049160050679518,0.139659206198592567016448,1224.7779695562760480243,1249.95174121984132398211,1227.73240033756451339286,1282.11416235877686631284,2073.60825362224932177924,-63.9551640351782566540351,-377.945718495356800303853,-1922.42631123162755102385,163.546705719194022776719
0.0675000000000000044408921,10.2758944218834322725797,-9.47469579580203280499973,0.759751200970875673057492,-0.13436503567181246054929,0.0399388344820778631860669,-0.0162426990889461206335476,0.0187991840649044221478459,-0.0184987667226766891448442,-0.103498351364240431804475,0.994279574812151456519871,0.0464383007413683712716335,-0.206907887899643261331306,13.9300591356422156508188,-0.0699562438918047285740798,-0.106376680917403820814116,0.570950004990068982202445,-2.60703994042636155725745,1.29184231537779070642102,0.141083478317291649561938,1229.59144983465284894919,1250.19689069190462760162,1226.86370923905838026258,1277.54726194333966304839,1919.07154465916232766176,207.761587981030800165172,-322.158638757036612787488,-1807.79698415712869064009,163.576712529143634355933
0.0700000000000000066613381,8.58662538743334202706592,-8.5204260337310220307927,0.447921089752046697185506,-0.109225456119281805200671,0.0162272344398722428993054,-0.0146783255027780716595043,0.0187115391182322218788237,-0.0185167585269467374620156,-0.103495499676792862553398,0.994281179954699334544443,0.0683205261663606122635173,-0.185572340949682945687726,13.9394653886668713482777,-0.0705100969421567080885893,-0.107882834995946072509376,0.581211479193512681185041,-2.60735380952108863894523,1.29157443645527592046562,0.142530016184865770956236,1234.37332727957186762069,1250.99054915974647883559,1226.12160714377932890784,1273.07517743799121490156,2082.01853929090657402412,402.683168603972092114418,-260.140628430781873703381,-1869.63992728483754035551,163.606364552218337848899
0.0724999999999999950039964,6.23683168475357518900637,-7.23204780721215545469249,0.201834827530110311188949,-0.0860868995062162717379906,-0.00487162644126526867688343,-0.0167594113761995039402208,0.0186548885341918137259487,-0.0185211461069942941171096,-0.103454063280435923366518,0.994286452199661607842529,0.0882357109235349934550641,-0.163138563414277903973471,13.9459721087859271904108,-0.0709940385415785829570368,-0.109298122026398047967888,0.591461592517470213792308,-2.60766383805390322692119,1.29130291332316926578017,0.14399496720442614416946,1240.00154253110736135568,1252.21030653492448436737,1225.56300609690447345201,1268.19906230691549353651,2052.55430415627824913827,429.698639588105720577005,-122.606803436065320056514,-1677.51163104308352558292,163.641522061650704245039
0.0749999999999999972244424,4.16307938660378606954282,-6.15936931138113408223944,0.169198882462449740060606,-0.0736210554258540372796205,-0.0167123643916086035698942,-0.0210004816012516852541392,0.0186332710170841811536668,-0.0185062221453415887140181,-0.103376158170416898585131,0.994295218711014339163512,0.105876774840315990289241,-0.139557504952040556389647,13.9496237490104260103863,-0.0714356702688785788479819,-0.110619863718013966558118,0.601707332127602967375424,-2.60796620356523511929936,1.29102667240605750720306,0.145473671332133236422379,1244.63609880035323840275,1253.13904235768700345943,1225.50857312659900344443,1264.6876192827758131898,1857.68059283136449266749,283.749500352177847162238,87.6250731890194600737232,-1286.2995331874560633878,163.67045618917882165988
0.0774999999999999994448885,2.16365779122435064607544,-5.18558393559056707289301,0.334110779745492414427588,-0.0686037720827863961581272,-0.025071980630416955404538,-0.024606320621935136305769,0.0186394736060333104932241,-0.0184827515836381711666903,-0.103271524102796247168712,0.994306404122790588040459,0.121483175596158204934127,-0.11504878663236572933215,13.9504431368669727930865,-0.0718423495332812800384659,-0.111857479113450355989734,0.611958003730744048986878,-2.6082598521312223560642,1.29074568044848181358475,0.146966124513572604648459,1249.2899454952641917771,1253.62905403668537474005,1226.00113146284957110765,1261.76756464097820753523,1870.76167205782280689164,83.7139924849451944055545,294.128154582358263269271,-1085.27525201093249052064,163.699002233403973605164
0.0800000000000000016653345,0.35718529301493884275942,-4.30956169028957702948901,0.620816014271223015619228,-0.0695020068689643361059538,-0.0326759588954322957587983,-0.0249573905455882649739863,0.0186557918366042248259351,-0.0184693968677333564265552,-0.103154901531554710203409,0.99431845867577506314916,0.135600435442141092901025,-0.0901045314565800947725904,13.9484302334535641421098,-0.072209079237155346375765,-0.113033074974406344548328,0.622222130943070883546397,-2.60854634609526625510512,1.29046154772156196344213,0.148476222402002033806667,1253.98990716064236039529,1253.55761232011172978673,1226.97921389951079618186,1259.26124302272114618972,1880.38259830745869294333,-189.321669735454463534552,498.301465996609749709023,-934.426983290494831635442,163.727219333939416401336
0.0825000000000000038857806,-1.10633070377964193298226,-3.5042205388739091631578,0.961676912004981510051493,-0.0758458733977716570429095,-0.0408833617446938274442303,-0.0208277044350139994843829,0.0186631173779970953308105,-0.0184799464565421553419178,-0.103037380061811484344148,0.99433032945929422652398,0.148692424928774741266224,-0.0652726822426587527381514,13.9435669464381444271339,-0.0725353813817966042165608,-0.11417105413919119427657,0.632505616391080049965012,-2.6088265355000217482484,1.29017476575056222465321,0.150006746929146478342076,1258.69185848680149319989,1252.68244568800810156972,1228.49263879283262212994,1257.09542972452572939801,2025.55969435429506120272,-573.65975040051989708445,756.202842712718165785191,-919.935095809704876046453,163.755031930279017160501
0.0850000000000000061062266,-2.41582070605306764576881,-2.51581760331511228301338,1.3257544719342169159404,-0.08606673451662498475212,-0.0518842627153597302225307,-0.0134549221117925780349944,0.0186460656761263388059291,-0.0185133587061068818901965,-0.102923212540602368458842,0.994341873542657572748737,0.160846565091115445422787,-0.0410448022357949235394692,13.9358234129118088162613,-0.0728386479990809632134585,-0.115292209672005971365927,0.6428100300923722532076,-2.60910135101438500626614,1.2898852949712000803828,0.151558532451884608871495,1264.11770563241384479625,1250.68931356810912802757,1230.76022811307439042139,1254.66156754367261783045,1902.7143296174456281733,-871.821168026553209529084,871.846551770794690128241,-894.506035663424995618698,163.787930141335721145879
0.0875000000000000083266727,-3.16497296888306811624147,-1.6053045251998945275318,1.55302959490752923166212,-0.0948499847488209618662225,-0.0610158158020939547783179,-0.00771737343558805740512119,0.0185916106916579476626694,-0.0185574138650531038352565,-0.102813146354525250525391,0.994353473618834637903774,0.171878114630506700910573,-0.0178868706012283371076244,13.9251635056465197237685,-0.0731488240224146407664207,-0.116414944286975130527395,0.653132115825021508648263,-2.60937337553677872747926,1.28959277022980378646366,0.153132657884687689575642,1268.20543013488872929884,1248.32333984787533154304,1232.85187155168659955962,1252.62289954620860044088,1476.66646962220784189412,-1057.83708322105871957319,831.2979134377671925904,-842.86957025733659065736,163.814941668811428598929
0.0899999999999999966693309,-3.64869615167747163297918,-0.574365054105861139177591,1.70369250103601155288402,-0.103291015917900949605546,-0.0673028744013822594061125,-0.00368914132448905709993348,0.0184951478158198491519304,-0.018598431753526118576092,-0.102710022634540598662767,0.994365164839408843810986,0.18157969117530262104232,0.00395302483797516784891357,13.9115493993025491903381,-0.0734952302554029573977701,-0.117546499211612948121441,0.663466150408877464172974,-2.60964603639130388046397,1.28929579098827118421866,0.154731864510872701989896,1271.5010379805248703633,1245.40012815200384466152,1234.91671768026321842626,1250.44721969238594283524,1204.65106967008296123822,-1359.86443686292909660551,847.163259728678667670465,-1005.64365067534902209445,163.841527290188253118686
0.092499999999999998889777,-4.05181215409503536761804,0.754377578402289250547597,1.82465741966716854527419,-0.112918990457422069306759,-0.0688000723818045639701424,-0.000334705334000018751676453,0.018356073277230884610578,-0.018627705884903790478635,-0.102616198102765038280282,0.994376865904636919601955,0.189902155737244532351937,0.0243391261027000108119189,13.8949458826403819955431,-0.0738977206494433463968008,-0.118686660287744563668788,0.673803826125859539608598,-2.60992148062446416290072,1.28899320685645069062275,0.156356649196105756960407,1274.22868548323913273634,1241.52401766356069856556,1237.08768785032998493989,1247.59468129283186499379,778.44220090905696451955,-1435.1263395894861787383,707.660302801422631091555,-1093.44605059800323942909,163.87293008851554532157
0.095000000000000001110223,-4.32778777997245001074589,1.86644674517866882013095,1.88748342034317606596971,-0.120605519804702687736153,-0.0648179303308745735634488,0.00246522101989560260548728,0.0181736181761521856103947,-0.018635818691078297193453,-0.102532999640997116164165,0.994388620669657052886237,0.196799125474318437056809,0.0431149527407918078947269,13.8753286984518968694147,-0.0743733149118100539398668,-0.119833929874492595146762,0.684132324775188482846033,-2.61020135779863338143514,1.28868347039494257622039,0.158007957700207646301038,1275.3932489850701585965,1238.22449645405640694662,1238.45501919427033499232,1244.97998943939592209063,260.006735608612643773085,-1274.25831421273755950097,418.205344439047223659145,-1102.3731039574149690452,163.89867716783876971931
0.0975000000000000033306691,-4.61718206130346331406145,2.89450189129203749871522,1.89955554192003406299705,-0.128855472976968310483414,-0.0565627690707690283788978,0.00680504199125034001105483,0.017951123651954208754189,-0.0186180923764746146520377,-0.102462405286314436891892,0.99440024171618424109198,0.202355804865512439727482,0.0602361080548071206597349,13.8526900103126742180848,-0.0749289416774908539897737,-0.120979681892534982057263,0.694436301081362450382528,-2.61048753031106484101542,1.28836582566736113086847,0.159687402000928513334799,1275.52871916128219709208,1235.15272609249700508371,1239.17871457252522304771,1242.08281577304478560109,-95.7851943222975990011037,-1237.05750035592132007878,142.021426682595006241172,-1347.40510412097933112818,163.923980127212075785792
0.100000000000000005551115,-5.01797482178934650676183,3.96373892208607303544454,1.82367536800022511656039,-0.140116436976779112910663,-0.0440253586174244870843353,0.0136683617438038244873422,0.017695815970994118598858,-0.0185684267222887416926014,-0.102402253742006912884399,0.99441192442180625921111,0.206607197640554879347619,0.0757474863253125296758128,13.8270460652045112937003,-0.0755711148667192883499055,-0.122108839872157357020477,0.704697128703603681287859,-2.61078108680901044280631,1.2880399877420642962278,0.161397087991418997088289,1274.91432301345867017517,1232.03920895227679466188,1239.16512632768331059196,1238.24296391879101975064,-270.342728276909610940493,-1015.2251541182513392414,-158.433516585273395094191,-1470.25929854689684361801,163.953823114053221843278
0.102500000000000007771561,-5.39252471007789235812879,4.70205633268153899706476,1.66988548355959109947833,-0.150875529955152326566648,-0.03312799046199250280198,0.0194367943799480628885856,0.0174173709155106999635354,-0.018489547670079323898884,-0.102350269609101249268512,0.994423666485153678884501,0.209816241712130813201753,0.0897730758356576341583377,13.7984396349019657890267,-0.0762907231702776023052337,-0.123201573153377458291757,0.714895019542372445187084,-2.61108286496296360112979,1.2877071733648124407523,0.163140053035725013375057,1274.17700551989764790051,1230.07660032190574384003,1238.38654698959885536169,1234.73151928031029456179,-236.171691948766692803474,-640.821744889173146475514,-460.201914335858361937426,-1461.90055936986300366698,163.978253369679634943168
0.104999999999999996114219,-5.7739274538854292728729,5.28760073756871396000179,1.42799072621445022335251,-0.163905253672109063600715,-0.0222577072876006497315071,0.0240183294662187490908778,0.0171262232056099208965527,-0.0183898752306070195627896,-0.102304792119564516572616,0.994435285533573964933396,0.212381819271436761420446,0.102463014726875273341378,13.7669444661081250558254,-0.0770667739512818361635738,-0.124236861458522113155212,0.72500916867104858720694,-2.61139435312995438209782,1.28736961699415908277899,0.164917889001299250439914,1273.73346455371483898489,1228.83510022783093518228,1236.86411675600402304553,1230.93346112194171837473,-65.0984483925186765418403,-385.375606826620071387879,-711.372795228363884234568,-1551.71709822084562802047,164.002222422535282930767
0.107499999999999998334665,-6.1218823218539339947597,5.7491763034877321203453,1.13348850762025321614601,-0.17921394874856566570287,-0.0105645079143005509586528,0.0272644381612958779104172,0.016833109103628833558286,-0.0182746970069724776197795,-0.102262462253048649896137,0.994446830510016810400487,0.214589088997272053882526,0.113960786173704975432486,13.7326693711303544631619,-0.077880050827909302890717,-0.125194663082679680243814,0.735017478478766417282486,-2.61171778655485908871015,1.28702936130199918629557,0.166731782293737057498717,1273.85151327793505515729,1228.14972228777264717792,1234.82968301345704276173,1226.97293378920608120097,219.786342779889110943259,-166.726079093768788652596,-899.164372691620087607589,-1594.66617566626928237383,164.025805198207848434322
0.110000000000000000555112,-6.38898305542294675518633,6.04622179727127306847478,0.808376906357793578727922,-0.196133958611331482568829,0.0033969187643994435549244,0.0289352224737644304897177,0.0165442971354678690365514,-0.0181514118911813501777708,-0.102219921951208866928162,0.994458390278067594358902,0.216762074142471089510664,0.12429326398776813222824,13.695756851538856579964,-0.0787056123723316458651311,-0.126062942606743749740517,0.744897983964988186222911,-2.61205495586320068923669,1.28668746445404469369578,0.16858233788813617448632,1274.83239626761428553436,1228.00146983236209052848,1232.36829489254591862846,1222.96013024361036514165,612.985797676901142949646,13.0911409381496799397837,-1122.11607251760960934917,-1734.74706915016963648668,164.048917941470278947236
0.112500000000000002775558,-6.59572907900842242412409,6.17959194763666364025312,0.419797406136753870065093,-0.21619396151905989622577,0.0229716312806909003785272,0.0295679812426066952746329,0.0162590243240241967559445,-0.0180276868689392653910541,-0.102182502513103512509218,0.994469270510685454667055,0.219218246661921106754889,0.133302650806526451487954,13.6563807930188509942582,-0.0795139015638333529478743,-0.126844188393038459494733,0.754629666188013636940468,-2.61240740721367536991693,1.28634432161107481462636,0.170469199229438955756066,1276.91644226631956371421,1228.21517799246339563979,1229.21910265086899016751,1218.29919844345522506046,855.02311735904106626549,107.190264175278471725505,-1139.86623340588175778976,-1653.74673008163745180354,164.076104740144273819169
0.115000000000000004996004,-6.68116846184553825338526,6.09214899035837031959773,0.113304209074176084892649,-0.231964635863638246604523,0.0405250624212301069348996,0.0294111190986644371880843,0.0159695872779709174826834,-0.0179045399047990140550812,-0.102155748268409965473502,0.99447898790639976951411,0.222077839359708817390526,0.140641414320026469919611,13.6147424826775615969154,-0.0802852116123974890449233,-0.127555868799061250529192,0.764192991036301894069993,-2.61277437291332903512853,1.28600066531520229595742,0.172389818044822618059442,1279.10751185440949484473,1228.53742115323848338448,1226.66896372551650529203,1214.69139659320217106142,858.915845474574894069519,115.90774125938868621688,-947.459213237242806826544,-1357.59005814747865770187,164.098299801453407553709
0.11750000000000000721645,-6.69614106439304102025289,5.82233259744112352507273,-0.170857141952492880276893,-0.246761117353747394531638,0.057357524062542838971801,0.0290904229603164005135696,0.0156665133371952508545277,-0.0177848185994589416680789,-0.102145099811673092937703,0.994487064131763909280437,0.22548323609976247960951,0.145946460913947362314502,13.5710575884379753830444,-0.0809998871757437871599095,-0.128222032030716831529915,0.773574277603687132653931,-2.61315149018626557975153,1.28565815376666692237961,0.174338460035598524777711,1281.21102149369244216359,1228.79471669876033956825,1224.48180658468277215434,1211.51124815271782608761,761.270409112468428247666,52.1038792458058281908961,-817.096230968583540743566,-1277.53487708737588945951,164.120012679636772645608
0.119999999999999995559108,-6.64318634214270886673148,5.37342985518005722411772,-0.491781922465287679724355,-0.263653691192317574110149,0.0743848698669293539875724,0.0288871136365968055048636,0.0153417568780730741162532,-0.0176673103745256278307441,-0.10215290200266523290562,0.994493386426791303733808,0.229434995750999431995965,0.148917372512219925440036,13.5255463285408534801491,-0.0816500823666744118822791,-0.128868897871129428622794,0.78276642447503197441705,-2.61353189024450127675436,1.28531835312667475079706,0.176309034126026192845771,1282.91386389997182959632,1228.79794054946751202806,1222.5834825706735955464,1208.30372220776530411968,399.869417710534264642774,-78.5435588605197665401647,-538.30622923583280226012,-1063.05810450826561464055,164.145505983944701711152
0.122499999999999997779554,-6.52688000511551891236195,4.98230265983477860203266,-0.743817246569639323183765,-0.277360884228709969612225,0.0851986355550138352299427,0.0288405871420623731438138,0.0149936534239609852575681,-0.0175548638402190336493813,-0.102178879861972007891957,0.994497932911517890097741,0.234004132174970486124366,0.149477382724380936096509,13.4784177336035675409676,-0.0822287670601433706707439,-0.129515393165508696515786,0.79177183734875411502685,-2.61390973336387544279091,1.28498299384111613896664,0.178295730065235108474653,1283.21036858224510979198,1228.40199890445774144609,1221.79027543850361325894,1206.19595763017650824622,-172.961102669114410446127,-264.883229094948319470859,-125.250414933407114403963,-716.494666304151223812369,164.166278626022318576361
0.125,-6.28824270821145869803104,4.67147929345460877215146,-0.964528322605207821816009,-0.291717658200618901176426,0.0934675511296086392043492,0.0280217389183630670446146,0.0146191084709799273833042,-0.0174469432967945849155544,-0.102224033414014398024605,0.994500629508959121949374,0.239159768118395205105386,0.147545144456364962781691,13.4298640957454971101015,-0.0827388045930357723944937,-0.130186246107064251820162,0.800598497473787529266076,-2.61427957132152632979682,1.28465369131940465585728,0.180294012424599109367662,1282.04905838662625683355,1227.47352440399276929384,1221.95723049600655940594,1204.72124887624454459001,-843.914887487925739151251,-538.920421131660532410024,302.436732515252231223712,-499.138609499004360259278,164.186558087059836452681
0.127500000000000002220446,-5.77566664214469760452175,4.45545399615099491086312,-1.14814266423494082403067,-0.310513332698583777169432,0.102838557316970030663938,0.0243828814300707623352604,0.014215798085772895706369,-0.0173365557526354921447087,-0.102284152838184413947253,0.994502037061512411675324,0.244688429182367217507021,0.143089060733361916888384,13.3800525280874698097477,-0.0831994976479645542699615,-0.1309068315704654261733,0.809258444543693222783531,-2.61463529512880477057024,1.28433136529935332248442,0.182300390524440997230826,1278.99079414480547711719,1225.70739679879943651031,1223.30245910107987583615,1203.70026458268148417119,-1350.70365155256581601861,-744.863916669418586025131,669.515495998938945376722,-255.143074080478754694923,164.210319940090528234578
0.130000000000000004440892,-5.10083176085375900044028,4.4093275062805927788645,-1.19536953512947285993562,-0.327068691897585972494511,0.1117782129040105210116,0.0189071179475743395004272,0.0137925472159956159778904,-0.0172178657441395127625228,-0.102356194147300308405768,0.994502407069237759351665,0.250376600510903990493006,0.136422860283622549015803,13.3291125799093173043275,-0.0836329899220410732940678,-0.131684845244739445746518,0.817769720686222112426833,-2.61497570704756254755807,1.28401690439758797701586,0.184312511196058348428295,1275.29554012886342206912,1223.74920482064567295311,1225.304807976001256975,1203.44553350584214967967,-1619.75026867812493946985,-849.612811170572172159154,943.039402943576646975998,2.09128570227221466382161,164.229641537677395035644
0.132500000000000006661338,-4.13839575001824222511004,4.46722452681626336357112,-1.11386175958359245896645,-0.342661322793832379129952,0.122703644863684568910855,0.0129931091653480660502717,0.0133578847082700940401834,-0.0170813409361443291345495,-0.102435766180241041856114,0.994502201305991873070411,0.255916853137219957314841,0.127882425270423843999268,13.2771386864000042749012,-0.0840689860227906565759426,-0.132526891007964608970582,0.826150299625141637527292,-2.6153040034368979505075,1.28370970816855867191464,0.18633193493348762515005,1270.89204280141484559863,1221.45933274294657167047,1228.01765611579776305007,1203.71072101119284525339,-1966.57643424073103233241,-1020.75243739609413751168,1285.17934295150439538702,196.986678452048920462403,164.248462930516097912914
0.135000000000000008881784,-2.70150248693341454853112,4.60351803311251472905496,-0.906070941019099240776313,-0.357187576290064812134517,0.137313512377331969904759,0.00810286494059499033670857,0.0129178492326981718407719,-0.0169162593076868789099265,-0.102517872949789118353081,0.99450200845402492166869,0.260983499848635225326632,0.117770523308970143094854,13.2241896818131987600964,-0.0845383679946762056633958,-0.133440316677168019365851,0.834415644874385686868834,-2.61562552227745115374091,1.28340734668397526974104,0.188362829061013231646271,1265.46265795765975781251,1218.64544263366519771807,1231.73070469075878463627,1204.43046689810239513463,-1920.55330794250767212361,-987.350876189747395983431,1374.25975752803310570016,294.11704184662966099495,164.270468341431723047208
0.13750000000000001110223,-1.36652943821297889748223,4.7464533414241900644015,-0.703365962703803249134182,-0.363871341525389135895807,0.149515440824503492711628,0.00664776345547432589988546,0.0124750298942262714818607,-0.0167182103133173137754497,-0.10260192872965311072786,0.994501910895033036652535,0.265432831045497197308691,0.106346635099739572627442,13.1702883641565637873327,-0.0850576736297559282684588,-0.134433447077908302391691,0.842578022054352393510612,-2.61594579713989316971379,1.28310644019667008386421,0.190409365359278520690722,1261.28927626170229814306,1216.52257836199783014308,1234.88895490343793426291,1205.18130622042599497945,-1508.30059270956417094567,-737.748434409694937130553,1198.93412278433856954507,287.353937913939944337471,164.288321374892376525167
0.140000000000000013322676,-0.0516648276189625721421805,4.90958511024889343588029,-0.55362021696978191975802,-0.363993913214430087066376,0.160692089228545997858788,0.00767343573046073805510314,0.0120363880664977208195809,-0.0164835743440813024818237,-0.102683056655657509170787,0.994502379958367765944161,0.269132497004370807580642,0.0940101477809556218545595,13.1154265059602757048651,-0.0856410317669067111534531,-0.135501140176093437528237,0.850646204826566609824567,-2.6162694779441877379611,1.2828038957026390853855,0.192475142119641617899362,1257.92115499411193013657,1214.95670046161671962182,1237.72537530468048316834,1205.86723658767209599318,-1175.43698294798446113418,-494.927875113989557576133,1028.16946910261231096229,237.203377009791239515835,164.305669838828237061534
0.142500000000000015543122,1.12090518931410065839316,5.08777360542926260222885,-0.493060837982577770954862,-0.359316918182533084902275,0.171213633151575450597193,0.00985864110713768719562733,0.0116132224580795823803969,-0.0162161241148660421884653,-0.102758299208992001649854,0.994503531846240629299416,0.27213116826468303210973,0.0813054281706893089420873,13.0595696127421732057883,-0.0862870014418770092667899,-0.136624383324513515303167,0.85862633474127281196786,-2.61660035042273397820622,1.2824969378598143343595,0.194564655473113939931906,1255.41209134696237015305,1214.04793898642788008146,1240.0298022489510003652,1206.36732310547495217179,-788.251681827481661457568,-181.154979684971237929858,740.712589283797342432081,138.887256360249665476658,164.322599086085432418258
0.144999999999999990007993,2.00714744905138697816938,5.26977569723533534329363,-0.550133210683095175141943,-0.351032325007044510023491,0.182196891290079376890532,0.011599595493279799690578,0.0112122774709452008995436,-0.0159196131547650956972184,-0.102821057219482869804494,0.994505944326460777915599,0.274483399254376481124496,0.0686597598566313360723967,13.0026700890896353968174,-0.0869913562270085566341393,-0.137785818323190395462419,0.866518455485293381812539,-2.6169404375799425466198,1.28218345389788135335607,0.196679749381752783099486,1253.97989658497454001918,1214.05092556319186769542,1241.42893825109945282748,1206.56167286947334105207,-414.960748454770623538934,202.988868226112600723354,355.443148830228722090396,14.4006853663996245984436,164.339022447689103501034
0.147499999999999992228439,2.66998341462423205427967,5.44781779956363010342102,-0.705908485757933967796873,-0.340208109249367895987604,0.197246832178212400110695,0.0110641748231575451355546,0.0108338813758423000571662,-0.0155895920999296420245139,-0.102857914873918057652169,0.994511145388487172169789,0.276040315992407081502336,0.0563066966057489334818165,12.9446788315932188595525,-0.0877627313711487055947202,-0.138974982931589913226489,0.874315036284770696894952,-2.61728966152772146713801,1.28186210860143123824173,0.198820640626626743419081,1253.33728760468852669874,1215.0628833275584383955,1241.80701799310213573335,1206.43932653230694995727,-104.5734285835350334537,502.632581150418900506338,-102.192784511998894458884,-95.8102991712165987792105,164.358146021534309966228
0.149999999999999994448885,2.89261875101992904646409,5.51888823789735027958159,-0.844720250449258691638477,-0.332102845545432179275025,0.211398049308986202277083,0.00810201746543685701051896,0.0104795320450326127914575,-0.0152217655065162819905122,-0.102855165863981384832826,0.994520725859952658964858,0.27664671175234278877042,0.0444986493503968724705366,12.8855481216299985192109,-0.0886088858887908170647307,-0.140176421925735983364802,0.882005440507373172920325,-2.61764669144590778060433,1.28153252609744972012606,0.200987590418932049463052,1253.45702944205686435453,1216.56408846894396447169,1240.91797432853945792885,1206.08262137361725763185,114.127813782579224266556,665.600720222209361054411,-617.788421528620688150113,-188.401106027367688966478,164.37359613323965845666
0.152499999999999996669331,2.81842996658685951416601,5.46513489108911088010245,-0.917825425094485058963301,-0.325435154837242057723756,0.226357720317785893193729,0.00360169116047370741970357,0.010144792926210568009826,-0.0148117476832841672013119,-0.102808125202448683022105,0.994535386362258355674726,0.276153969853969671888194,0.0333181530473524237234706,12.8252396024672989938153,-0.0895338082030000259603497,-0.141385274343476391445407,0.889575028177388871242215,-2.61801076709506030937291,1.28119492465910700396137,0.203181784183265962129283,1253.90792667360142331745,1218.39088692866948804294,1238.71807588545902945043,1205.49732100217011065979,199.140639444658347656514,780.603386498250301883672,-1262.57897095479052040901,-319.440226744609105935524,164.388543193039964762647
0.154999999999999998889777,2.45270931449603502016998,5.23597902829833827809125,-0.879434685412061156739583,-0.3189391635188963958214,0.244037605100178467409933,-0.00191455107826443834614927,0.00982293253127256189849437,-0.0143578591851390453132398,-0.102726890849612270684155,0.994554057185145556907457,0.274482598770466990067973,0.0227771474755533928635565,12.7637279814104847019962,-0.0905321040913196761756865,-0.142603114348453879900447,0.897007773315466883090608,-2.61838047220707137441309,1.28085042517000791129078,0.205402809666844321512258,1254.45273263928015694546,1220.46710540143521939171,1234.60507947376549964247,1204.48542023989421068109,157.889821446178615360623,676.911561143787707806041,-1731.71398213935231069627,-443.591628843159526240925,164.405900622903914154449
0.157500000000000001110223,1.9581016018817063439883,4.92010301459057597384117,-0.73976110976531062046746,-0.314650979659650609221444,0.25782940858495856373267,-0.00568024275158491350617984,0.00951152118267386409433684,-0.0138717575859274577787517,-0.102626424585104916720191,0.994574905723694890902209,0.271871322350625610475561,0.0130092770265112858685264,12.701000598877817182597,-0.0915742805079437505177964,-0.143823303829099802264579,0.904291495834965153299834,-2.61875370292522946513714,1.28050110905191183441332,0.207647923108515597423462,1254.6973757808323171048,1221.77544473438842942414,1230.05950597476225993887,1203.27936285795431103907,22.7578275512769110378031,384.956423769562775305531,-2006.9084055728108069161,-592.569037442125932102499,164.419884846735783412441
0.160000000000000003330669,1.29832790924286656242259,4.51958967003745470947251,-0.520858406140567220532489,-0.311090802892890094799583,0.269762249573358925402999,-0.00782024113519184070619783,0.00920225222980382631665641,-0.0133724135982691404861411,-0.102526191707661681884467,0.994595626129262888603932,0.26874523424290241990775,0.00399289860634998577948451,12.63706391561553132874,-0.0926152468969405062715339,-0.145050828658613017996259,0.911415041016245375260496,-2.61912891607876385791087,1.28014935158746001597763,0.209914379779232024292313,1254.56652177703654160723,1222.39188752028303497354,1224.57053744590143651294,1201.5225750526835781784,-160.002045439932629733448,97.1166638490102798186854,-2564.78980819287926351535,-933.6031752288355392011,164.433373586124901066796
0.162500000000000005551115,0.33866128357684133209915,4.0184682180800264106324,-0.230219914900377076172333,-0.307887923592464862743157,0.281554255105914030821168,-0.00814919219578631379152789,0.00888528422773161331849057,-0.0128731290516316924932294,-0.102439068588786430513693,0.994614722616299684609942,0.26537433539445753893915,-0.00437181018986868702436155,12.5719496422811563007826,-0.0936218930516939940034149,-0.14629526804672368656135,0.91836739136029166274966,-2.61950757066590522725846,1.27979580181234697811021,0.212203363636668446146061,1253.89736555363265324559,1222.26102805363348124956,1217.23555693379785225261,1198.61134698181012936402,-333.163358796400359551626,-176.725116088345941989246,-2754.16255683935332854162,-1207.00309178487145800318,164.448991204358378581674
0.165000000000000007771561,-0.581342609383122321808912,3.64298964582757633934307,-0.0113266697661866810875608,-0.306970135703058477627536,0.289533463099959698094921,-0.00688216857253842132641219,0.00855001069083537179604804,-0.0123853403390936141897916,-0.10237491733697894058519,0.994631074098646150716263,0.261972443019239054073921,-0.0122316238840011817790021,12.5057129798631549988386,-0.0945658269933418726971297,-0.147569602126941951114603,0.925139195403935965522635,-2.61988882481952645164824,1.27944123304720869249707,0.214512512289999790482398,1252.90070498305453838839,1221.50826193984130441095,1210.79972466170465850155,1195.48755959375921520405,-488.495236007519906706875,-396.172083498549568503222,-2560.12088116358199840761,-1369.73978394425898841291,164.461534940450206931928
0.167500000000000009992007,-1.58797860532599099947504,3.36897582358745317776538,0.146320784000663450807878,-0.308854088711461582938966,0.295954373144642346460387,-0.00513358173762674691725794,0.00819387620432901649103474,-0.0119167331402673312701346,-0.102337603160068152385875,0.994644172476983223774027,0.258631510096101469020624,-0.0195648627886053569358005,12.4384321427908126622697,-0.0954299213157857040279453,-0.148873607086740800120594,0.931725218451255554619195,-2.62027127085494315750225,1.27908806368682870235887,0.216837058978724073199373,1251.45488937359505143831,1220.28016763614073170174,1204.43495252797993089189,1191.76264806208882873761,-650.73868623981013570301,-537.044522177984163135989,-2470.60797419312393685686,-1548.88253414041946598445,164.473593765581057368763
0.170000000000000012212453,-2.62603667617340708062557,3.20362945476473681694074,0.245209251224895258269854,-0.313408875881895809811795,0.301473349754128261412944,-0.00372641340829803040246571,0.00782061935944866788716912,-0.0114713877444890897244756,-0.10233184224808800077966,0.994653421320659703042111,0.255337452365453076996715,-0.0262266878460682903440038,12.3702067656652889837687,-0.0962061320567594163710723,-0.150197731209353202430634,0.938123953782427077996431,-2.62065340514079370137779,1.27873815898638487631445,0.219173679727178716269975,1249.6470115518554848677,1218.82303932895138132153,1198.44668479073902744858,1187.74314692305711105291,-805.171340794003526752931,-602.564336522254393457843,-2235.84056995459650352132,-1612.72360456887190593989,164.485253511087336164564
0.172500000000000014432899,-3.644547308405248653429,3.16726497352721292344313,0.282502934461690391465538,-0.321064026145426117953008,0.30695016187177359689997,-0.00303462537115890742395186,0.00742951043204613005566106,-0.0110427494944005961247102,-0.10236292708632686865311,0.994658328056788443305436,0.251831652960498808546674,-0.0322319421962472610343475,12.3011579942194391179555,-0.0969070968043500846622607,-0.151543671752082609316403,0.944332584951102615988816,-2.62103325579943291501195,1.2783898754138272035874,0.221521457886400541248406,1247.42903266962503039395,1217.26734595352945689228,1193.25574967820693927933,1183.6990300392444623867,-1057.04522741784694517264,-671.73706078383418116573,-2038.64639428561349632218,-1697.25414106755874854571,164.496435782714769402446
0.175000000000000016653345,-4.76806191968154635674182,3.22773239032743086696087,0.276563956302603219938874,-0.333449185024185745795933,0.314777056543610767036512,-0.00282986158704490956689037,0.00701779802179052294985873,-0.0106190179085222779348241,-0.102433834788553737582539,0.994658713995893117854052,0.247746014001096082068898,-0.0376762907424024254265937,12.2314237185326604162583,-0.0975578083798392114989184,-0.15291782195555503331974,0.950348015593195372119339,-2.62140943643045920552481,1.27804104802920059924531,0.223880234379487202955872,1244.36178541476624559436,1215.46435402503220757353,1188.25345281931095087202,1179.25687621771930935211,-1177.19728233337809797376,-632.388606599673266828177,-1613.80544939807646187546,-1506.00850734209211623238,164.509307424536928010639
0.177499999999999991118216,-5.56914029029092194633677,3.30991594225548846353036,0.241107403730578928602313,-0.346185363517080235684631,0.322746218990196120923741,-0.00269714062236039954154054,0.00658058662758915710599972,-0.0101869257473783079992469,-0.10254166699302470766586,0.994655032586976073361029,0.242700888175372164745625,-0.0427261360037080109575136,12.1611548413441674654223,-0.0981894207539553282027001,-0.154329728041696340179456,0.956166846404092551914289,-2.62178217245462397144706,1.27769030590357712817706,0.226249127878682454451109,1241.54304625795816718892,1214.10540292053110533743,1185.18672243121659448661,1176.16898750253403704846,-1160.43006504178811155725,-502.490732828803231768688,-1015.91739153655476002314,-1063.87396467389908139012,164.519581479399164436472
0.179999999999999993338662,-6.17349368850243251927168,3.35250906819915428513923,0.179535302707359123441933,-0.361055803030244315543484,0.331993110157455362241308,-0.00211644478726542243501862,0.00611564037461553595270702,-0.00973706689163152637467302,-0.102678002398744736001213,0.994648239153975821658094,0.236425212793533678912183,-0.0474859207956348575163652,12.0905117864460009968752,-0.0988293949649937109036557,-0.155781877383239675260995,0.961787157769061318290937,-2.62215233103637190836821,1.27733681808008148195199,0.228628431933307146861623,1238.55963508955733232142,1212.95190036088820306759,1183.17386586162820094614,1173.93750639434983895626,-1325.36012211271440719429,-462.07860019703690568349,-698.932497946952366874029,-763.082148462807936084573,164.529390281581527233357
0.182499999999999995559108,-6.61977471852622123549281,3.28977624344035257664132,0.0775907647455245375045507,-0.380732581372623890558771,0.343835902207554833243108,-0.00124498050743690425942733,0.00562048989675539151233963,-0.00926627186978628593350127,-0.10282804595562440586054,0.994639876551335899712569,0.228819925929549500276394,-0.0520611451510559972155612,12.019662357420733300728,-0.0994959306851771752011615,-0.157274441772816631068821,0.967207552331968423153796,-2.62252088834662844263335,1.27698007820597081440894,0.231020322644949122059543,1234.9162456473945894686,1211.79500991954591881949,1181.69205994148182981007,1172.35357676021999395743,-1330.21114931507213441364,-398.112453096018384712806,-438.431436828431799312966,-401.798723042656661164074,164.540627929728088929551
0.184999999999999997779554,-6.73517250083311580510781,3.11598878504446474835277,-0.0257102440249154344520388,-0.397886167424418790705687,0.353588351237340059451952,-0.000743338358327418047798163,0.00509588116278613095094796,-0.00877597119138852181652322,-0.102975533459638862732177,0.994631570249360774660374,0.2199084587414586733356,-0.0564773464014141080014042,11.9487816239369379900381,-0.100199453023602391699143,-0.158800136958973575618259,0.972427366891310041019381,-2.62288763796950386009144,1.27661929664881124146802,0.233427406537591142221544,1231.90857934298196596501,1210.96133809540810943872,1180.98170867748603996006,1171.92851277913655394514,-1182.46893610489564707677,-330.472817463578110164235,-225.653575586374955719293,-5.55533274341541449814486,164.549552507030171000224
0.1875,-6.57536016197983030906471,2.81829716856471312880217,-0.135004225764720181546252,-0.414883147639367899639495,0.362211744247897982074136,-0.000747577345529517570295319,0.00454387527575588357625636,-0.00826425463370685474406852,-0.103103975388185303829758,0.994624991913954037414669,0.209651331116367523055288,-0.0607439879635106524946586,11.8780532450379698872212,-0.100956655952630355854716,-0.160349882933853216115949,0.977444293286561904920973,-2.62325316795203899999933,1.27625429633414633201483,0.235852435990241304786252,1229.00390096687010554888,1210.14264583222802684759,1180.56379206354995403672,1172.3258000965029168583,-1244.82806941914418530359,-391.055913012041514775774,-142.671179306853332491301,326.696345493382693803142,164.558025607104923437873
0.190000000000000002220446,-6.07996856687740994118485,2.35912831631266417531378,-0.251461215839296592378105,-0.434214544872219720961226,0.370425466198987252131047,-0.00150768814330454886674104,0.00396704166767576638097381,-0.00772880417123379681587636,-0.103206327698892375011042,0.994620839526882072334502,0.198020733125628345394631,-0.06486333812548902844064,11.8076670203331879349662,-0.101781200912552494131091,-0.161916226212404840145709,0.982255217123149337865584,-2.62361920144127669374257,1.27588595338268406820248,0.238295647577741742662027,1225.68443899588623935415,1209.00605853034790015954,1180.26835278095177272917,1173.56199450660346883524,-1189.14803757688673613302,-465.334580538046395759011,-68.7693824449069666115975,549.677047489239612332312,164.567678379307778868679
0.192500000000000004440892,-5.43966365785060457227473,1.93748266394007107038533,-0.3202901734483636908557,-0.448758943156918388428522,0.37536012991814576844618,-0.00279643734941472819552355,0.0033742265276247092493922,-0.00716804738056112372007744,-0.103276778842673680469666,0.994619660031296870528195,0.185011026252926868984616,-0.0686914565269022003857202,11.7378173058248194138287,-0.102685116651569013912493,-0.163480361406270369162286,0.986858954402554999774111,-2.62398674151772981488762,1.27551625863853734799136,0.24075531474279257548865,1223.05816077898566618387,1207.81597292953779287927,1180.21994515132541891944,1175.0741853339491171937,-1031.12662275507227604976,-542.239344740482465567766,47.2702417140680637430705,673.74496537304310095351,164.575298825799933410963
0.195000000000000006661338,-4.60796310550774546044295,1.5336282068125768329736,-0.347409601343663498873582,-0.461002984859696707253818,0.378444501201274152712983,-0.00458877929417993157823474,0.0027791019579587595937642,-0.00658666648062739782526487,-0.103310562048724255412857,0.994621840448890348618249,0.170768333740684202792792,-0.071960394553275700002537,11.6686996833178362464878,-0.103667724726905940979549,-0.165013772738844710641359,0.991257920327696218087965,-2.62435550204090883852359,1.27514639532179807623891,0.243230342114692660304698,1220.52880588211087342643,1206.29486180664548555797,1180.50470398952211326105,1176.93071933346868718218,-1010.8589113324787831516,-661.729272096271756709029,189.741270815284053696814,783.024394281209652035614,164.582486868071413255166
0.197500000000000008881784,-3.65790853955556594101495,1.18092192828473563359637,-0.340449840714722062884334,-0.470885780867226155788074,0.38031602320935187222517,-0.00640000217018028578347399,0.00219555865232973993622645,-0.00599710860245143261709755,-0.103304001821043961450997,0.994627614687906058676958,0.155630590548352043533953,-0.074382178150672634275864,11.6005082192656132633601,-0.10471156773026447928121,-0.166486897689702373348553,0.995457795498643882581291,-2.62472439352984787674927,1.27477720261651561450833,0.245720965801431101560581,1218.00386622232326772064,1204.50732656905643125356,1181.16865150540184004058,1178.98930730535516886448,-1034.47567847870141122257,-759.958871366279026915436,365.156043480373796228378,859.703506847789981293317,164.589322092858310497832
0.20000000000000001110223,-2.61580763789148740272594,0.915780229099215303811832,-0.307812412370768284652911,-0.477698551798824644354369,0.38130539319878276049991,-0.00751849933947401627420959,0.00163337199563130504656461,-0.00540775410440800987504906,-0.103259098749596781030569,0.994636681466294358955338,0.139859874371547204807698,-0.0757749875285270713121122,11.5334340430598505378157,-0.105803240374202314755259,-0.167881109138660139512567,0.999463932359128337523657,-2.62509235447335420587933,1.27441005962971698473041,0.248226279286992312922422,1215.35642748971736182284,1202.49506744981408701278,1182.33048420692398394749,1181.22923686770764106768,-1227.6779163294111185678,-896.884484709061439389188,599.626594203299987384526,1016.58482136244765570154,164.595739252745516978393
0.202500000000000013322676,-1.31742359529493868741667,0.704298422059674300577115,-0.270851690136276634923718,-0.482664653876464400106272,0.382179945168679757738772,-0.00729831111609484124019831,0.00109581882396849903879565,-0.00481451913718884075971127,-0.103185454503047946417382,0.994648055213124382412104,0.123456932516021591905719,-0.0761332902031463670811107,11.4676611328828919056377,-0.106949145277493329331264,-0.16919561405290295397208,1.00327900777567347034847,-2.62546222891707836666342,1.27404607562925153985134,0.25074622071226859709725,1211.86547664067620644346,1200.02290414551112007757,1184.16678447641834281967,1184.07223141216741169046,-1351.59691411499693458609,-883.441466589100969031279,699.141728701760598596593,1059.88947402379289997043,164.602966239437989770522
0.205000000000000015543122,-0.230392902247104375268449,0.602304049753674131117975,-0.261385466374225661212449,-0.484530439118570299683597,0.383014103926188953508358,-0.00584766199655798249446015,0.000583051164859736009184188,-0.00421557736561802010033517,-0.103093390549813673784385,0.994660692721813566308242,0.106491567716737248194825,-0.0755111963407079644916564,11.4033595355542569649288,-0.108149641126299406179712,-0.170436018029474223300923,1.00690811609880759291968,-2.6258343874138372342486,1.27368603734270302574316,0.253277669622635370760833,1208.59844291914237146557,1198.07786011686857818859,1185.82619285043278978264,1186.52868423782661011501,-1388.74509316869875874545,-723.579473442486460044165,609.412294798175366850046,985.334098288330096693244,164.608600564285524114894
0.207500000000000017763568,0.825843199951358908350585,0.543990489802282151110546,-0.272450758534342196703903,-0.48422281517374077264293,0.384153339953148542651462,-0.00415326027812228451563392,8.7211497801988895777793e-05,-0.00361318271878005407848899,-0.102992506759102320224031,0.994673638973917917383005,0.0891511553996725825133041,-0.0741266247608221295894992,11.3406812084280819163951,-0.109395125336260390369603,-0.171623044806062441391958,1.01035803982745275853006,-2.62620763592866035551765,1.27332964272693138774173,0.255816083176394315490398,1204.92175117483270696539,1196.40500677829868436675,1187.21384595040922249609,1188.9989019036090667214,-1697.23993835815122110944,-659.604298202160293840279,445.595268290937667643448,1062.74201116526046462241,164.613838498273509003411
0.209999999999999992228439,2.01154201398473375661524,0.476058532136116707711437,-0.261574117464478284045271,-0.480886774108939263339124,0.386116693092767859774028,-0.0040539300707542816337714,-0.000402516169430703197977539,-0.00301762707329196293304374,-0.102894644781993907511897,0.994685700058400068535036,0.0718129802710463227555238,-0.0722352197597827122566017,11.2797578312881725537409,-0.110658245763717022480677,-0.172781918843596393742246,1.01363975015648311028826,-2.62658051921779289727965,1.27297657229732186223714,0.258357292682229400249128,1200.11224322735165515041,1194.77983862585779206711,1188.05416919188746760483,1191.84239429365288742702,-1804.66619149261464372103,-538.622794069354085877421,107.581640431681577751988,997.490778565411460476753,164.619671642086814244976
0.212499999999999994448885,2.88965902400820118245406,0.387281863830008343807521,-0.175836588834213908283388,-0.475112816078846311729222,0.388327732045233187108124,-0.00651250774904522152647379,-0.000895580972333500703076725,-0.00244061273765126818258153,-0.102811412025983914264593,0.994695702720238217331428,0.0548794553363910059262665,-0.0700497284205195969164492,11.2206996442413355907775,-0.111908947693811045009937,-0.173933980033887158889172,1.016767515798883581013,-2.6269523115204735930206,1.27262540234568288788353,0.260899245067824248067723,1195.89842021736967581091,1193.71189280795192644291,1187.75175415256762789795,1193.98635579643610071798,-1689.26192737394399046025,-387.697514548244384968712,-374.264738657756993234216,779.62894748788971810427,164.624158789616473086426
0.214999999999999996669331,3.59867074842539569345945,0.238164143404121009250929,0.0470257193538780038366554,-0.466412659279665464673315,0.390625580528438542948777,-0.0103214052574947187657095,-0.00140279584223734483765245,-0.0018915334608662554612829,-0.102761472467694126020632,0.994701674004305647081026,0.0387002336192127580072331,-0.06781327121288580062064,11.1635937354750147676441,-0.11311883291925156624913,-0.175104183422067016806523,1.01975597263784845125656,-2.62732233446772633911337,1.27227520062115684318371,0.263439175503511535669787,1191.66593359048192724003,1192.84135105311656843696,1186.18284549859868093336,1195.74053903109233942814,-1820.35952816508893192804,-360.237163726878520719765,-986.38195331286533473758,652.096840544481324286608,164.628260373692143048174
0.217499999999999998889777,4.19965319896708955127451,-0.0130602121083844627258408,0.481345247937728315523742,-0.453600559679192494311195,0.392370416369375862863933,-0.0134764573996297952473977,-0.00192681429071553107605641,-0.00137035744629027881995309,-0.102755051656492457645697,0.994702533486429896214531,0.023392426459167434127373,-0.0656053751221108705227181,11.1085033771587742279507,-0.114282915983047572705544,-0.176299394099419248771454,1.02261991775433336293588,-2.62769152495268532021555,1.27192457993988017328491,0.265976757755043036191012,1186.7966225765442231932,1191.91070698931753213401,1182.81984438600329667679,1197.24683999915851018159,-1720.74326205752026908158,-329.795869684175784186664,-1449.9844285343428964552,440.852274161215575531969,164.632737621265249572389
0.220000000000000001110223,4.46822870145104733552444,-0.265133614481937673890144,0.939980511966478693430815,-0.441757103861322109050747,0.392227447667904849382126,-0.0135566092666745251910099,-0.00246301892289010589467968,-0.000871922773955363574621691,-0.102792608242957911324211,0.994698248724086520056176,0.00894215917244231550675693,-0.0633571296479756296271546,11.0554684325480447881773,-0.115411256949367088675551,-0.177508601784595959616198,1.02537358108675524803743,-2.62806124699413246048607,1.27157162774793075499247,0.268515382503032140615318,1183.06221728019431793655,1191.19237170469568809494,1178.93292335592695962987,1197.94480040189841929532,-1398.46278602985762518074,-270.414300402125945765874,-1716.06871203934883851616,166.155191627012612798353,164.636097755195123681915
0.222500000000000003330669,4.4911841540264827443707,-0.529540033338939619689256,1.40716063042618255707339,-0.429426861208600463282181,0.390351910385755951349296,-0.0103839228107320928617963,-0.00299983348094565388866628,-0.000391208989863837421335074,-0.102864679893550914346889,0.99468983990591142152482,-0.0046770891396053920763265,-0.0608508441031421626332687,11.0045083831447740863041,-0.116518236271868025344389,-0.17870234262905773658936,1.02803067923990409937574,-2.62843322447425631338547,1.27121514423270753901818,0.271059057045592854962024,1179.80430864639492938295,1190.55863548730690126831,1174.23950082580654452613,1198.07761595729357395612,-1210.4237450497737427213,-227.768727925194781391838,-1952.65030500163265969604,-25.87908661212166094856,164.639071274577077019785
0.225000000000000005551115,4.32672990494093756552729,-0.784181292926800388443098,1.80257288307094931667507,-0.417229517865924826036661,0.387602131848704678507289,-0.00476416766432399482744664,-0.00352662158403065388243003,7.92170807732509458512146e-05,-0.102955278368358105200997,0.994679014780252113148151,-0.0175432247061416551892066,-0.0579027679006307097187012,10.9556257131342995592149,-0.117624998171902334087591,-0.179850471293480584922264,1.03060046407958671998983,-2.62880843915700923574263,1.27085378272963533952122,0.273612215502861799709677,1177.0100985549454435386,1190.05352806506971319322,1169.16967183091878723644,1197.815404968837810884,-1002.56628345132321555866,-153.60259908215979862689,-2047.75933129990153247491,-170.834585946658847888102,164.64172284091105780135
0.227500000000000007771561,3.98085025363301259204718,-1.01865909472040527816716,2.03234016766566139011729,-0.406128966530841351012526,0.384606741142654973142356,0.00250182397771446215009594,-0.00403592259957575444362377,0.000545141811340537794580707,-0.103047045666958242415845,0.994667626518148217940052,-0.0296928566309807434597801,-0.0544032394080612019537924,10.908811419648879237343,-0.118749022990188121684518,-0.180927851138804662856074,1.03308800289533553318222,-2.62918722863843301595921,1.27048659145361098055105,0.27617806696846702863013,1174.79147722913830875768,1189.79062249189610156463,1164.00070416930702776881,1197.22344302756027900614,-861.8241714966635527162,-39.8528225774043320939199,-2217.20125680353521602228,-293.27521833520194149969,164.643985386627832667727
0.230000000000000009992007,3.4408264618285322455904,-1.28533122003426791835068,2.05925115989157081486383,-0.395371575227531857343877,0.381150688648069779773664,0.0110796953316012469770158,-0.00452309990956994284472259,0.00100610670511637099143465,-0.103123937927596984187595,0.994657390565464205600676,-0.0410254800685489751099766,-0.0502979262618365105530494,10.8640514743145732978746,-0.119893890943386247083247,-0.181914272111398545028749,1.03549609789768970458113,-2.62956818026256566867005,1.27011490566442919458723,0.278757211247133485088057,1172.70097769746212179598,1189.85426395218269135512,1158.08366554690110206138,1196.34902887716179975541,-702.451615065137389137817,96.1925500795586287949845,-2076.6322836531326174736,-319.537790199228481924365,164.646250948675685776834
0.232500000000000012212453,2.95785474735189701789295,-1.50834822113994815317994,1.86691466264808325625779,-0.388660055655073666258659,0.378223736990947301261912,0.0171939168179402399050382,-0.00498383526855960320295358,0.0014635032907775625144603,-0.103174555589962718693542,0.994649543348314013613276,-0.0514882404754853639783363,-0.0455511172319348137116357,10.8213301597004836196447,-0.121065267569218967813605,-0.182792748943039595754811,1.03782479267841387660098,-2.62994857563982442627548,1.2697400320552167940491,0.281348454199508712925137,1171.27921915381261896982,1190.27158524229389513494,1153.61754275104135558649,1195.62575407656413517543,-554.906477490430461330106,245.082238835175076019368,-1653.61799072202165916678,-266.706024916856904383167,164.647765426720610548728
0.235000000000000014432899,2.51825074218870792464031,-1.74573494432979536838957,1.47320926973574839458081,-0.383528217682388039566632,0.374871288535548963238853,0.0220119480980234261124906,-0.00541423684970616762857087,0.00191636522990761156391704,-0.103198706226300049304534,0.994644159327959465066726,-0.0609873607927576277809578,-0.0401389234636252145715929,10.780634808439382155143,-0.122259694213897401882107,-0.183551148565779920218688,1.04007337431384572212778,-2.63032734792970090964559,1.26936451936366068160567,0.283951051535226206556928,1169.92644531000996721559,1191.07967514635856787208,1149.81557559329098694434,1195.01549875257751409663,-645.435837779040753048321,432.083936429807693002658,-1497.42358032726633609855,-238.567685146062814283141,164.648894589483063555235
0.237500000000000016653345,2.10670353979969071644973,-2.05340768784932059531911,0.817083268157997477665333,-0.378640682245853676946012,0.369967157306558491747239,0.026525372985788445850952,-0.00581194083431905636483172,0.00236218483218331685991043,-0.103200209730704831057047,0.994640890449376646742508,-0.0694058445555263137105584,-0.0340711637937012659649305,10.7419585481140487104312,-0.123468197134925808389205,-0.184183315130627633937621,1.04224059541869817913096,-2.63070472912349906380314,1.26899139200905453073176,0.286564175946012855700218,1168.05203996491741236241,1192.43200492444293558947,1146.13042484940501708479,1194.43291565083382010926,-770.043877148194951587357,535.699702208833286931622,-1199.21414056307753526198,-198.099609791416725101953,164.649808190121120787808
0.239999999999999991118216,1.88909271024475455824643,-2.32646429834622558985302,0.166171435052486132777361,-0.375179174407618054587488,0.364822339974609111123982,0.0291568113782008087042641,-0.00618178290910954397058275,0.0028009887880074621491211,-0.103187237564412170875983,0.994638889626748956551694,-0.0766803167503591620590697,-0.0275183090882884576200418,10.7053010443314011723714,-0.12468305891491425485551,-0.184701834372511641824133,1.04432228865245924076532,-2.63108204186030913973582,1.26862202426651982101191,0.289186765928606648312638,1166.07622592426901064755,1193.75817365740272180119,1143.81950489047562768974,1194.0250007036204351607,-906.643519957519515628519,528.533282300216114890645,-768.345096435863524675369,-164.145408582727071689078,164.65020553872923869676
0.242499999999999993338662,1.81316605437869093897518,-2.61015936657297276113354,-0.514824157075460142607426,-0.371697027493223586258608,0.358486841440555703552917,0.0297458164213242476359156,-0.00653435001424868336372676,0.00323384460779404516936331,-0.103170832050362634713103,0.994636973442547644985723,-0.0827734162117338412301137,-0.0207719486807384154380962,10.6706695509060054405381,-0.125895463436021509684437,-0.185134200743334420558028,1.04631284820220682441061,-2.63146150977672244053451,1.26825704511284875763977,0.291817746732337013337855,1163.51882236512983581633,1195.07467133594400365837,1142.28869936722571765131,1193.61218860792018858774,-1265.36811251958056345757,518.153487700464665977051,-505.844711527060553635238,-195.308617253522072587657,164.650230633337656627191
0.244999999999999995559108,1.87621440296260844071696,-2.95939852385946888801982,-1.25109144596206167676655,-0.366994864457530878265601,0.349915516228095579975843,0.0266970059642210912065341,-0.00687855172671710500542641,0.00366647194734857385933768,-0.103159598194535059856314,0.994634205076166511005908,-0.0877667657039867821211487,-0.01409001618809258699061,10.6380768109279664201949,-0.127106732284655410403218,-0.185506480321009720180214,1.04820718510361765574146,-2.6318450611859316445873,1.26789680239430690988911,0.294454839797642253795829,1159.74938536167110214592,1196.34894109590504740481,1141.29028133284032264783,1193.04845761735282394511,-1481.92456527844888114487,376.936964503374497326149,-244.357860726176795651554,-214.890928593967856841118,164.649837576134586925036
0.247499999999999997779554,2.0409178383216053376259,-3.26196762720760569109757,-1.70831306937657712019529,-0.362572800221379720753134,0.342132612010418390990907,0.0211456205950926075243235,-0.00721739265050918774035971,0.0041064464113141178891464,-0.103153402647171738015786,0.994630580356585136669878,-0.0918088309419139714240288,-0.00759860784122531190964978,10.6075395926151347936184,-0.128326201742591683441219,-0.185831787651846158659907,1.05000321709460342489706,-2.63223177670201646805026,1.26754251359217007255609,0.297096113626118041306512,1156.1091995387375845894,1196.9593561584608778503,1141.06691006359483253618,1192.53773396495034830878,-1515.84962349252100466401,118.005010160504653526914,3.52315605414332511102771,-192.172045991764946393232,164.649162835998367881984
0.25,2.29744757744783401065547,-3.58938679208638955486776,-1.9182137402938022052723,-0.357456548893966941093936,0.333848401738418787410012,0.0137684927866452838651767,-0.00755330650635411410265263,0.00455151412197062066322673,-0.103150876855818016131217,0.994626258973437482602264,-0.0948580059231143579712153,-0.00138158956082391065622872,10.5790802239611103630068,-0.129543465519900369287143,-0.18612012202039954211763,1.05170348187305129350477,-2.63261955461738672568117,1.26719437647180588335516,0.299741006073132698617201,1152.17013724420849030139,1196.93896614670757116983,1141.30789711311103928892,1192.08759738739399836049,-1578.72120030124142431305,-121.761332689720688904345,140.882243281885052965663,-145.21238147781318161833,164.648134411237208496459
0.252500000000000002220446,2.61009285597686480073776,-3.95060331663411856695234,-1.89047603755520676749313,-0.351583943497810358369549,0.325438249228954035174866,0.00581127924875664541443099,-0.00788960116115623374954957,0.00499180571440254600146247,-0.103151683318181322523976,0.994621317979729080427376,-0.0967291075613317119508139,0.00448338240703480966908856,10.5527232071426215753718,-0.130732084291116656959986,-0.186381774620696272215525,1.05331395091740032121663,-2.6330067307244466867644,1.26685191014979392498674,0.302389750426865500099183,1148.21559353723137064662,1196.35054949501227383735,1141.77132128000425836944,1191.81167205756128169014,-1522.17587361951564162155,-364.011572898698091194092,196.54640641456336425108,-36.0231078416745376102881,164.646817829189188842065
0.255000000000000004440892,2.96645757928784226109542,-4.3651241120324124622698,-1.58537102753182801428977,-0.344771362437429340630501,0.316982651873578824552879,-0.00158967052798390556973829,-0.00822840645199623792194199,0.00541953562864649039665377,-0.103157245416680393157449,0.994615653529076326755387,-0.0973024532478245218758417,0.00994613702905695201694769,10.5284883901186052668209,-0.131870153061419442819258,-0.186624653675330293145507,1.05484175378093558705928,-2.63339300918387486660777,1.26651322249255438023852,0.305042740261262323997471,1144.55925787611090527207,1195.11890828221407900855,1142.29062914518385696283,1191.90748184818562549481,-1464.46410712464830794488,-659.276088267551472199557,192.53876759535143037283,157.501597712734877632101,164.645160162860435093535
0.257500000000000006661338,3.41611289835392017977256,-4.91979676128541676405348,-0.974898164735345296172397,-0.335630940810675237884197,0.305985527121585443310892,-0.00781702371794601273691239,-0.00856972955355304877311795,0.0058329537474528861396017,-0.103162903196365465796625,0.994609781521828550943098,-0.0966045098698230797484854,0.0149957764686082309357751,10.5063858671145275991421,-0.132951610530483460559381,-0.186850637562578331118956,1.05629420138592733380278,-2.6337789561391615755781,1.2661758564732592535762,0.307700241701891363810262,1140.89327300160812228569,1193.05416905367451363418,1142.73401511798101637396,1192.59918004612495678884,-1183.24794664822434242524,-820.846291505039744151873,106.451589215475806327049,352.815188233034518816567,164.642785138673275469046
0.260000000000000008881784,3.78964171456987264363647,-5.40282545300212202477042,-0.355992622850604234496785,-0.327185650664208405036248,0.294956895266647145525951,-0.00958974896584134130217425,-0.00891386655378860470744229,0.00623402215085924315401966,-0.103163411619017625353578,0.994604261567182290626477,-0.0947526307240977028190088,0.0196119009906657384978423,10.4864136460847454657141,-0.133978830303224577535914,-0.187061333489489306503017,1.05767858155592286983904,-2.63416518593139548087834,1.26583780428374748083797,0.310361839498910663248665,1138.6430181428697778756,1191.01467682468887687719,1142.82288709126123649185,1193.67155778935079979419,-709.792462563654453333584,-834.029021927698636318382,-38.8578319220414059032009,507.259171691475330590038,164.640490809082621126436
0.26250000000000001110223,4.13813454430074134648976,-5.84967681491634738932817,0.247654502813551641304812,-0.318000600147528511563166,0.28107796584260896777252,-0.00754316090109822135617579,-0.00925327301021124440372212,0.00661702865780434273945687,-0.103149022289036593202916,0.994600233483669105005731,-0.0917320888556439340000281,0.0239575379951615305418322,10.4685572129783821537785,-0.134941727805621164426597,-0.187237632785986013450596,1.05900842066251299478097,-2.63455100284351750872247,1.2654983450492667262921,0.313026657012680953329209,1137.34431068878984660842,1188.88402394403601647355,1142.53972595837080916681,1195.13547590458233571553,-358.852702082139899175672,-903.031770604547205039125,-208.164982871858029511714,673.367910450314752779377,164.637877228592969913734
0.265000000000000013322676,4.49574499838714025656827,-6.26924234688155568306911,0.82538014158100403427909,-0.306328480488148202631749,0.26189557105530042457886,-0.00215171400968146124543789,-0.00957959722251389492186924,0.00697385961365364331204786,-0.103115249172862022408736,0.994598317767494966012976,-0.087493202167933048496451,0.0282158656068201355027192,10.4527859195353549637275,-0.135823621499473773388544,-0.187358485308771832711372,1.06029942612474448182525,-2.63493550389420372326299,1.2651581555731741257631,0.315693338984937066360459,1136.84875463245907667442,1186.49951797166613687295,1141.78206217690194534953,1197.03839734160237640026,-28.7554589016508295173935,-811.984115386166422467795,-331.529485699820440913754,664.271326176912566552346,164.634381529605832383822
0.267500000000000015543122,4.71417634527185658299686,-6.48117391313525814666718,1.12805062483675810902639,-0.295943676976051339710949,0.245134296486956365646037,0.00306648388471646030431494,-0.00988742397178121734668821,0.00729605594693454127114274,-0.103068272828958015785439,0.994598008695306678994541,-0.0819867856829333829793427,0.0325057659589178607473237,10.4390509333001606506741,-0.136602595339285176612165,-0.187411064049029379985356,1.06156732573539835939869,-2.63531966848661181046509,1.26481906708508806680413,0.318359440187213571515912,1137.20053339428159233648,1184.8241033671051809506,1140.88207852987170554115,1198.45683253546690139046,258.264863552449014605372,-580.379641877061089871859,-382.049277213218033466546,462.629990190088904000731,164.631176538293971134408
0.270000000000000017763568,4.80596643735781192674494,-6.52844917582943384815053,1.22913526458445376832174,-0.284486406678996994745745,0.228533979435501910515427,0.00784585020179353470615169,-0.0101766934783727117791452,0.0075766536003893190237557,-0.103021085270051951376935,0.994598035597349827696689,-0.0751944664457349920549944,0.0368284989936574838620409,10.4272841390319541687859,-0.137256082656887518078648,-0.18739555554022147010329,1.06282595147990566175622,-2.6357047158212347781614,1.26448276291323846720616,0.321023460786748482398423,1138.14007895022132288432,1183.59761976228082858142,1139.87181579083585347689,1199.35154729255282290978,498.740253999676042440115,-430.245762957701629147778,-418.590151415355251174333,208.182738111872623676391,164.627678278252034260731
0.272500000000000019984014,4.71401357801021436699784,-6.39807452895787864832755,1.15003337094530766471223,-0.269638922160105543035513,0.209189259997938969970477,0.0125423813619263899155065,-0.0104539376197468995843831,0.00781712332704091739099539,-0.102986176224965780834353,0.994597052666748915328299,-0.0672650788274266053790029,0.0410287379315455932871082,10.4173967064983798991307,-0.137777976153535514081128,-0.18732743869309564921366,1.06408388895276684316116,-2.63609264445409863242276,1.2641487094213053055114,0.323686812068916029971888,1139.69423466427997482242,1182.67287455231667081534,1138.78912777279492729576,1199.49774622602626550361,608.354918552822141464276,-258.439608830030692843138,-336.427745509490421227383,-127.718211798355582686781,164.623153459926442110373
0.27500000000000002220446,4.43611799094736625193036,-6.14861740012738078320353,0.962011989841281889290769,-0.256839749093178915106961,0.193888826136869307781296,0.0152924304896531731284837,-0.0107238663519142098795589,0.00802443174720607332872646,-0.102968648722708028264705,0.994594456197028797816984,-0.0584658164323761109226751,0.0449760472776618916435076,10.4092801742884706328596,-0.1381771030834454405678,-0.187217220359539499030532,1.06534752105016372603075,-2.63648500460010781765163,1.26381530362752947382887,0.326351438441692509595526,1141.18185354298543643381,1182.30542171813067398034,1138.18967706328839994967,1198.71295623356104442792,604.932502462588104208407,-87.219214945389396120845,-138.643066643680754168599,-504.799810052008524507983,164.619119794845119031379
0.277500000000000024424907,3.93415483116125175300226,-5.77951273462936487845809,0.710995076203732256914236,-0.244481516333707155075317,0.17984286865417539735823,0.0166876054515199857830599,-0.0109839386345360248004033,0.00820546069594975911731805,-0.102964956160386200689771,0.994590610902995053699271,-0.049074340743480285298439,0.0486880640506635112285672,10.4028091469050192330315,-0.138467602950039708753494,-0.187057466121629933919479,1.06662412060937916713499,-2.63688121092592453464931,1.26348178277619571652224,0.329018862449272808667899,1142.71889717659291818563,1182.23677847758972347947,1138.09591243957652295649,1196.97374717576622060733,665.144409547473856036959,6.54258643103275350227932,98.6758167768583973611385,-953.07401776717517805082,164.614825127008600702538
0.280000000000000026645353,3.10028975173440590751284,-5.23101483145552048625859,0.406630576677914801209113,-0.231555342967536131881801,0.164614258991302275791924,0.0167738040956319188479196,-0.0112308651419551382144579,0.0083671020721348982746024,-0.102966993535702863726833,0.994586358035936646260211,-0.03936532189013217108986,0.052194208219755851285715,10.3978451165719221194195,-0.138666802551465351278637,-0.186837978052903919135019,1.06791932963838354098129,-2.63727889126481063186702,1.26314749986755980870612,0.331690212919329097118748,1144.50757559072280855617,1182.33813465028583777894,1138.6830561471726923628,1193.94758614472516455862,637.765726886527204442245,46.6166758911185326041959,329.943346432218902464228,-1223.02353257436948297254,164.609384577555886153277
0.282500000000000028865799,2.26630091817862711067733,-4.70583330149899570216121,0.188123544050387142556602,-0.223398800365047250915396,0.153115965995838348989722,0.0157967545743006414216136,-0.0114640337755553683996013,0.00850921809404232669382662,-0.102966608444522669807419,0.994582566556581060268627,-0.0294564816753937058768642,0.0554799680930520219823698,10.3942417404782752043957,-0.138778231394896256478688,-0.186553177135926673280153,1.06923815592357329684603,-2.63767503619251231228304,1.26281268801708912441484,0.334366381906101906018591,1145.90772581102555705002,1182.46986185704531635565,1139.74562917173761888989,1190.85862951289436750812,539.28290266881003844901,43.9719026841430249419318,519.402201513684758538147,-1287.98327134254463999241,164.604623039524994965177
0.285000000000000031086245,1.38561052883998847562452,-4.12663474001943875180132,0.0261225633498507678331713,-0.218960811224809343000786,0.142730712394266767706341,0.0144966487695713068528658,-0.0116892827119179261441406,0.00863261198119398380501632,-0.102957484251350692150417,0.994579826364659913551236,-0.0194635275974687771416427,0.05839325673757581741663,10.3918471378464509768946,-0.138807049233230089813063,-0.186212813400576576716716,1.07058131204894180221743,-2.63806773752332812676968,1.26247830530725368980427,0.33704859357068295278026,1147.20399010406686102215,1182.55799416370655308128,1141.28006715474111842923,1187.50766978801243567432,505.537060102005398221081,19.6305857528841265491337,661.079510240051035907527,-1331.45261853373881422158,164.599638943830882453767
0.287500000000000033306691,0.55179527468908173837292,-3.51192677174938294726303,-0.0945636487766340766425444,-0.21796773032218430543594,0.133327432250467614593958,0.013726680757383558431628,-0.0119156403969394829311934,0.00874743754442047771746616,-0.102943662719631415236599,0.99457752564268686601423,-0.00968218402095147312458323,0.0606958422887785772892322,10.3905056989989006410724,-0.138775532259881817509495,-0.185839445911457734617045,1.07194400304322323691508,-2.6384577737053547252799,1.26214460057126576231212,0.339738828817733040654758,1148.43541111153558631486,1182.56801478580973707722,1143.0510267229378769116,1184.20136642022566775267,486.742103195006563964853,-20.2040159563241346063478,722.378657636280081533187,-1253.50860101294892956503,164.594480393927824479761
0.289999999999999980015986,-0.131546608453465663224335,-2.86693504603309801126443,-0.188699416036352596304226,-0.220713848243787952307926,0.125254188070888089479027,0.0141374417059925931022812,-0.0121527226198201807744192,0.0088672075925699759407772,-0.102932148927250582959303,0.994574703014046490601174,-0.000464541310913418881156645,0.06213310105963557733455,10.3900626779424367640559,-0.138713240414109290066236,-0.185459850488024796666409,1.07331922431850346200122,-2.63884480637778162659401,1.2618122103889677365629,0.342435165590930845613826,1149.63770062004186911508,1182.45697408392493343854,1144.89196044292248188867,1181.24012678294775469112,534.967594779760474921204,-80.8833302095999044922792,776.624357621775516236085,-1167.04541541859089193167,164.589123280653382153105
0.292499999999999982236432,-0.702897264093009566110482,-2.08209949909826130820534,-0.298563709219468453870405,-0.226310328062038657037647,0.117791168949362812234938,0.0152523244021109012635851,-0.0124094626620388469306899,0.00900826477749288104246439,-0.10292369769613061991631,0.994571019734900252373677,0.00779516134952867867369264,0.0624635298357126347856827,10.3903672728694136395688,-0.1386590786869132951864,-0.185099872701913858996647,1.07469885934390507742364,-2.63922686823274865730582,1.26148288601555802479481,0.345134882075097737530456,1151.11024908543436140462,1182.1635981347617416759,1146.93414851104671470239,1178.36613934313277241017,549.269527811110947368434,-136.773182334809348503768,695.522152414013703491946,-920.622916557021312655706,164.582479932490002738632
0.294999999999999984456878,-0.965231196949361103243348,-1.44289780620152430223868,-0.391504878183598581387059,-0.230801290417128907028754,0.113758623308178860589202,0.0156172847238791132756797,-0.0126871498397377342054471,0.0091801656971951181573921,-0.102919607271171067996995,0.994566227179335182739806,0.0148424183904294487712505,0.0616249370319590997202575,10.3912748075081751153448,-0.138639496276175500089067,-0.184769087728991421304414,1.0760792342855185488304,-2.63960374112841122951068,1.26115815251310503519733,0.347836716740811624504204,1152.38404825909742612566,1181.77310817225088612759,1148.3695712049925532483,1176.6370122001626441488,513.33186758934016324929,-189.686190352176538453932,504.892515813343834452098,-558.516141369863817089936,164.576775210208097632858
0.297499999999999986677324,-1.04924280493697130722808,-0.848386425614921613203023,-0.46797576263531598383949,-0.233620628867597018851754,0.111820684921476565243381,0.0146403509651924709777937,-0.0129829350515921551623144,0.00938583825062504900627047,-0.102920015087997418490318,0.994560305780757269999981,0.0205678886969936289275118,0.0596634799260936724007998,10.3926492102446506038405,-0.138668018268504639189942,-0.184467437444010007308037,1.07745972432305348043258,-2.63997458832603193457089,1.2608393559707489206545,0.350539235709119545436607,1153.67690842338106449461,1181.21516718300085813098,1149.45861109011343614839,1175.57355863628345105099,550.265527543524058273761,-285.684533572611826457432,403.180513796450782137981,-351.156965545078207924234,164.570907522153731861181
0.29999999999999998889777,-1.02500309686558432886727,-0.21070146908263387430793,-0.506943290863321571748656,-0.235651185994486034314122,0.111403342569698332598094,0.0122366420202495752855842,-0.0132937621453459130227426,0.00962151156558934024520813,-0.102925193403045733830936,0.994553286751286846900655,0.0250163929275914048711016,0.0566540485662518147891298,10.3943655935235579335085,-0.138743122528072027055401,-0.184193362474490029967455,1.07884111039442665003207,-2.64034024078006179792055,1.26052624571690463639584,0.353243574234858748184251,1155.13537589681504869077,1180.34468550438782585843,1150.3854737739748088643,1174.8812273724372516881,493.943087540355463715969,-348.646682819480417947489,289.978895943386021372135,-196.026532741416133376333,164.563691398609449834112
0.302499999999999991118216,-0.956757349274662716176465,0.251416060834107446542163,-0.47624657031782852145696,-0.236869458428324547449861,0.111976741244259783703008,0.00960462890911975043783944,-0.0136185194119234787707429,0.00987949299279480483426674,-0.102934833719152740716396,0.994545276409608214329694,0.0283335893088462603683908,0.0526507147482926443626816,10.39631212799623938281,-0.138853380674600263011698,-0.183948210211803880875792,1.08022367010540287779463,-2.64070321275686215045653,1.26021715563971326012904,0.355952779558241672042129,1156.14662386108284408692,1179.47193376890345462016,1150.90850556983036767633,1174.59342597257636953145,327.711829661666058655101,-364.596308406680350344686,179.521444098281619972113,-105.109331925404958951731,164.557541788274306782114
0.304999999999999993338662,-0.888909114926895727037959,0.646444873208563697275508,-0.376278659073820964664492,-0.237875681280897227631854,0.112780530437060363957436,0.006959618037813504812239,-0.0139521446265949249088134,0.0101477338405670108878454,-0.102946008293100618735672,0.994536751078180403240481,0.0307619500823201746930735,0.0478097060465000125994983,10.39839048850397240642,-0.138978199726223466958785,-0.183722469925962417214294,1.0816092734149196363802,-2.64106602565348502764664,1.25991136189627894736986,0.358668981902947159312589,1156.77393504512338040513,1178.5217039623544224014,1151.28308099446621781681,1174.35568071281022639596,150.724760532193471362916,-405.36984514233120080462,154.205308618929706199197,-141.763994593975326097279,164.551261950879506912315
0.307499999999999995559108,-0.841256633709369427975844,1.05094132260331751815841,-0.204322515284160066695307,-0.238993140319006064364871,0.114196750970272861702703,0.00499907240191392251982272,-0.0142900283582045178887299,0.0104141259424409375611287,-0.102954189160183118278979,0.994528352765460699203004,0.0325590158546899682834308,0.042288969918234477207708,10.4005175344853952879021,-0.139095727858386170039395,-0.183506214008288315309159,1.08299885455924216337564,-2.64142984046876616588406,1.25960847282882970610274,0.361392839294117917958715,1156.90024766374381215428,1177.44508454319179691083,1151.67953211292501691787,1173.88460599960649233253,-77.1785438318146788105878,-357.641370121018212557829,147.589870507044764735838,-226.254463484656099581116,164.543588138781302632196
0.309999999999999997779554,-0.837582546398322080882792,1.32749991314088156002526,-0.0562679346407877825630983,-0.239975449717202887756073,0.116433607624565171878572,0.00484835275771457099164286,-0.0146244912546073576459227,0.0106713624637623325647207,-0.10295701704504765794379,0.994520499267649960017934,0.0338854947690644947577709,0.0363103955977136308441722,10.4026248877887486088412,-0.139193194343784104605177,-0.183283495343021102241821,1.08439258461598764249345,-2.64179508901026816047874,1.25930816655573440954186,0.364124583979103300102054,1156.38804232596430665581,1176.73349711174932963331,1152.02103034700144235103,1173.22440839538694490329,-340.990834869080288171972,-219.597831957162071603307,142.787752516005525649234,-325.48929094164094522057,164.537087235807689467038
0.3125,-0.862707325685639236922952,1.52602940047303570203496,0.0444597737300353595957247,-0.241027373590599697239512,0.120122380818741394947757,0.00609672389360668958574463,-0.014950956891902855011578,0.0109177363164306272941273,-0.102954405527014472565561,0.994513275334267143890088,0.0347999051384042801249308,0.0300295471786736281605279,10.4046596070048540383368,-0.139267706144488079278432,-0.183045913824821715465418,1.08578813099488513671531,-2.64216128562004071156366,1.25900962033267038719941,0.366864021611918389442764,1155.19529348939840929233,1176.34709538340598555806,1152.39347087550504511455,1172.25715954489828618534,-581.236947257047518178297,-92.2576273350840949660778,151.569737516547178302062,-425.014792224464656555938,164.530486701519436110175
0.315000000000000002220446,-0.892736364412604288531838,1.64588103706006094739678,0.0750016485857672582371336,-0.242249293302341128786281,0.124721654807688001054267,0.00795872006067310615307075,-0.0152704799547489934036237,0.0111589102158678593612606,-0.102949855486132751947181,0.994506237011978044826321,0.0352250094322565932003499,0.0234785625735824191040457,10.4065830482754329011641,-0.139329562655077898725153,-0.182799008501330989551192,1.0871798384426205608122,-2.64252717670159853469158,1.25871209588090127162729,0.369609781330169029356369,1153.48185758967906622274,1176.27220897507390873216,1152.77887903458417895308,1171.09933443426461963099,-780.755703619706082463381,35.4747387845236232806201,151.733000952844889752669,-475.437645463534465761768,164.523811211844218860278
0.317500000000000004440892,-0.891892235827218660126903,1.66201061621818357849634,0.00580795252325363997591978,-0.244212016790319647041585,0.129731099036050567807621,0.00969343872991464822197472,-0.0155861538370481150089786,0.0114004403505567706439416,-0.102947730473640808313007,0.994498828687315650221024,0.0350947661689508666471582,0.0166550396632078392955556,10.4083687645619846762202,-0.139388140099674540106633,-0.182552417016710183395034,1.08856275992069684299679,-2.6428927785493629976088,1.25841483959860811481235,0.372359905233977273031343,1151.29151497129987546941,1176.52446907732860381657,1153.15213588026927027386,1169.87997131758061186702,-1014.41394754028715396998,152.037512702963653055122,155.950775353903594577787,-492.758568744056447030744,164.517054462105079437606
0.320000000000000006661338,-0.798710416068355133489831,1.568491870244740571394,-0.179480756323082968339833,-0.247935575630570892435856,0.135086287464027093863095,0.0107444837807215386182857,-0.0158987745544393876961919,0.0116457287356159771424258,-0.102948348076120341221262,0.994490978466814223857284,0.0343886409310056040400383,0.00961442948831154470257232,10.4099998141053244893328,-0.13945022714263588525796,-0.182309076721235752138739,1.08993498276883071795851,-2.64325931334236985392749,1.25811739131356681298257,0.375112818428960659300486,1148.40978785197762590542,1177.03239653858872770797,1153.55863291135369763651,1168.6355415905443351221,-1047.61980496755222702632,188.060536422153575131233,140.974103197549879951112,-374.286888215101157584286,164.5088640582870596063
0.322500000000000008881784,-0.609481136955501212604247,1.41322137804171354957816,-0.390616909887658014799428,-0.252041312837125219825651,0.138571920075340138112097,0.0105517801597310514893913,-0.0162065677204883545892145,0.0118900600847150709343802,-0.102953269998605587143281,0.994482621889817730576056,0.0332513012905345378689148,0.00248804566013994393758324,10.4114669312452363669763,-0.139505542990802255953753,-0.182065037573803684134433,1.09129955855360361027806,-2.64362655507175237090678,1.25782112676583968102761,0.377868391694237415467938,1146.05341594646210978681,1177.46477175943937254488,1153.85700639625702024205,1168.00853687650510437379,-874.863758864102351253678,142.737472913222404713451,112.49835196467746811777,-117.585256312668107625541,164.501978542204000177662
0.32500000000000001110223,-0.29208162062608206133163,1.20179017942999855073083,-0.614095904159525529664165,-0.255982453352912309174627,0.141184850419423468803615,0.00909126964813889403005387,-0.0165050621073372962011039,0.0121287680213028725012547,-0.102961608431869786062229,0.994473994166204300348966,0.0318243601837315259750483,-0.00453331974846884339092057,10.4127659061987287714146,-0.139545928633726279421978,-0.181810304626302488006928,1.09266178916624978612049,-2.64399157950206031841844,1.25752785547293943757552,0.380625030605785008575026,1144.03546905765711017011,1177.74608390315484029998,1154.12112467117708547448,1168.0476153089809940866,-759.960235643165333385696,74.449127269599486567131,111.971874894243129006099,206.119660116564602958533,164.495040521290491142281
0.327500000000000013322676,0.196119718062143455483692,0.905164851005434978326036,-0.840538252935751573069467,-0.257894230102242327795636,0.143750239493031367610243,0.00570220100500172695501266,-0.0167930739785474916758723,0.0123593327504245252546067,-0.102968487545637754632111,0.994465667672106201635529,0.0302157810449091013271783,-0.0113291945229302346009881,10.413895967422030608418,-0.139569129525531604452127,-0.18154196978309794507922,1.09402624467267983732199,-2.64435215688589142501996,1.25723857521718063168237,0.383380825457442842019162,1142.25361476824627970927,1177.83701739578737033298,1154.41686577072823638446,1169.03913517708792824124,-529.058340782830327952979,-0.475572351388108938152754,108.030642307357894082998,525.58280963817151132389,164.486665699801989148909
0.330000000000000015543122,0.631917227497056699370148,0.632166138358718154854898,-0.963009260156267754560133,-0.256010020098585810988112,0.145589838535626375781717,0.00191884247476623221763392,-0.0170688502099242515874788,0.0125711837021829885008284,-0.102968185953731944382028,0.994458410939395687222486,0.0287009102246590236395818,-0.0177485164762676214667003,10.4148587489846082831946,-0.139556169897656900946714,-0.181254167659590653682855,1.095400733108221835721,-2.64470742281481951962974,1.25695285193856065575346,0.386136464838996384951741,1141.39017735374295625661,1177.74370604139789975306,1154.66127788271387544228,1170.67552935717185391695,-219.731847959564930761189,-48.1380634212654996417768,100.904983870213897034773,800.233295420866170388763,164.479654070768702922578
0.332500000000000017763568,1.0213727647351973359946,0.340734110469851803060237,-1.00199630194417999007328,-0.251518117288787479424172,0.146861992746216946104099,-0.00143872950411935403638997,-0.0173298428325275970240948,0.0127586103418830167782749,-0.102957232017102245924534,0.994452711887134133128541,0.0274526722513358800714656,-0.0236337953887829840815549,10.4156563659070933169914,-0.139498081270606588688565,-0.180940871083132531760285,1.09679169363279749305207,-2.64505657112961456434164,1.25667137934005235244683,0.388892736089065216287253,1141.15495552844845406071,1177.59632707868104262161,1154.92139069007930629596,1173.04030165419226250378,11.5789143245365160339588,-42.0427911236401641303928,120.372687719281998397491,1152.1550306450524203683,164.472618619936525874436
0.335000000000000019984014,1.38223667906771607860605,-0.0196666036342294514582818,-0.962804258382173205887966,-0.245352375677451606250656,0.147072338942108832293698,-0.00435158620705151412411116,-0.017577379428021285695527,0.0129276356835150828955561,-0.102939795696554536874601,0.99444804675922005010591,0.0264061974413037081621525,-0.0289337938465116448205627,10.4162904835564233962941,-0.139407670462410843148504,-0.180608592864694050827978,1.09819996048589629822345,-2.64540097780534377847061,1.25639444044172954306759,0.391650242865646092127463,1141.44807192536563889007,1177.53349208577969875478,1155.2631413213102860027,1176.43630451039712170314,170.818733619307607796145,17.9047655309659461408955,128.922867951268813158094,1284.42325903520099927846,164.464160239790487594291
0.33750000000000002220446,1.58895867238923216291369,-0.321712457494056025542051,-0.873597501136748166850055,-0.240585981798291492772535,0.146229994157552278810641,-0.00626883552715977194341734,-0.0178118703669666346434131,0.0130840114689744092119073,-0.102920894266486942503214,0.994443823938712112564531,0.0254992119872848171935331,-0.0335814458273057045434307,10.416763388664421086105,-0.139296189655531921225418,-0.180261063980662050720838,1.09962575270758700085594,-2.64574261142362621157531,1.25612157105125477052354,0.394410288432855082874084,1142.00904919654499281023,1177.68585090633587242337,1155.56600502983565093018,1179.46241794936827318452,248.809821401255021555698,117.828998828099329898578,117.804543581132648455423,1184.01288273143904916651,164.457106998570765199474
0.340000000000000024424907,1.72120201973236541803658,-0.622623981906545442832623,-0.741718166750699459122131,-0.236663161228123419821401,0.144984631490314319623991,-0.00789341548648063787152473,-0.0180346150182150340157694,0.013235398016527415501753,-0.102900918951039865856245,0.994439889690565848034964,0.0246318611394339970210865,-0.0375390557084662665476849,10.4170786818174558874261,-0.139179186320001369026045,-0.179901873872020001687844,1.10106713836705072395716,-2.64608333391729200201326,1.25585177277523785122071,0.397173617638057974144061,1142.69212103237191513472,1178.12263707992019590165,1155.85216403921594974236,1182.35636892405432263331,267.133816784553118850454,221.937219822347998388068,102.024103971871141993688,1089.9409516804089435027,164.450059378514140462357
0.342500000000000026645353,1.81751645303921516294565,-0.924161411580700420387302,-0.582818583078515306539202,-0.233382595990712177203008,0.143674081915630774686221,-0.00934869653343384926502679,-0.0182494888251398361400657,0.01338891779947088030156,-0.102883645240065546566655,0.99443570025536898171481,0.0237167427386626578078577,-0.0408293893973287122522997,10.4172426086513389975607,-0.139068187597814973965882,-0.179539470249068466856102,1.10252011876494404596372,-2.64642551934987402262323,1.25558344212490036184704,0.399941100642646263363389,1143.34471828046775954135,1178.79553700544761341007,1156.07612554969500706648,1184.91212270777032244951,233.505628186003178825558,314.810590547312756370957,59.2462449969388629256173,895.496125019962278202001,164.443024283001250296365
0.345000000000000028865799,1.89449926547651137376249,-1.22516658222672458755653,-0.398201166008586016076265,-0.230357347656353350640046,0.142033731247350303306121,-0.0107635355915415998478979,-0.018459678562184011346714,0.0135447972617413637391737,-0.102870535362775114562872,0.994431052010087968007213,0.0228051962371901839610189,-0.0434574618355957550952517,10.4172659630005703945699,-0.13895956056647004728255,-0.179177169474562941742235,1.10398171180968995841454,-2.64677156202033803111817,1.25531537800861969778055,0.402714957609599855103966,1143.85964917330193202361,1179.69669003265676110459,1156.14839526420064430567,1186.83384954915413800336,187.030205175415005669493,425.991666597382902637037,-23.6144219618381399072859,656.416363614379747559724,164.436013875191918032215
0.347500000000000031086245,1.97211486296352234148799,-1.56948861433005215637593,-0.157499211763749702441828,-0.226166450386494466417986,0.138868676581254013591149,-0.0123287662774676544386043,-0.0186716885678333797959905,0.0137045074180570554400749,-0.102863540211407200608562,0.994425611183213709054485,0.0219256290518438923253797,-0.0455127032202580425468419,10.4171644251541941628147,-0.138851125290238491816197,-0.178824814140234988890654,1.10544629990028298038851,-2.64712235452395328039188,1.25504614535805014696734,0.405497578535503111485383,1144.27986930634483542235,1180.92549533843452991277,1155.95805343988581626036,1188.19420452584222402947,128.078335054078593202576,456.045689984193415966729,-128.041014134123429357714,324.236828082257204641792,164.427642174547258946404
0.350000000000000033306691,2.01219481149400891695223,-1.81886274244680135048213,0.0450038161058684826887344,-0.221631624339199667650391,0.134776833268812984423235,-0.0131731332750286925931116,-0.0188858778681156580514511,0.0138680023491313652445056,-0.102862107168773433962805,0.994419437383832649501869,0.0211217239709179799289629,-0.0469688314673983239866395,10.4169597715587531894244,-0.138739999878582181969122,-0.178477133540598437155822,1.10691012693121804133511,-2.64747676631220985044024,1.25477535078466351237125,0.408289647869218008668923,1144.50004084857232555805,1181.97691848257773017394,1155.50819019353002659045,1188.45503368956542544765,80.152448406216450393913,404.799467257048092960758,-247.924342952003627260638,-76.226002940666930385305,164.420708534753202911816
0.352499999999999980015986,2.00097798934107640178581,-1.99612664489780788912299,0.221679647904716031758809,-0.215945839817655055314916,0.129267293329589749717456,-0.012777085764433631503989,-0.0190972520123437738970296,0.0140290483545449252283932,-0.102862886416674487177758,0.99441306449434219150163,0.0205515211002752495872414,-0.0476912232888216033876994,10.4166808704166218291221,-0.138612905058057789275949,-0.178114985294954730754569,1.10837320657280558044988,-2.6478324657262892749543,1.25450348197758665413915,0.411089869878407843106771,1144.68063154837591355317,1182.94949267471974962973,1154.71843172512581077171,1187.81307451113889328553,97.5131352486197044981964,388.877233986481201100105,-422.888168283365985189448,-461.337209487242205341317,164.413829629430551904079
0.354999999999999982236432,1.90563763331556268454392,-2.09783436437561610077296,0.365219569689666845313525,-0.208712188013755295390439,0.121760611631574561242175,-0.0107572673344261109801279,-0.0193024353010239346772892,0.0141788114615463700651787,-0.102862582622983853020138,0.994407026983814223974889,0.0204276331103507707842581,-0.0475890324483594293059063,10.4163630392763852938742,-0.138451998036821177784361,-0.177722862929188207825604,1.10983658759504622004499,-2.64818609783546676794685,1.25423196549188520343421,0.413895211606606305831946,1144.98760652481541910674,1183.92130465251011628425,1153.393749352113218265,1186.14834764212923801097,144.364954099819300381569,312.285235312219526804256,-537.304986259595807496225,-720.307147300035694570397,164.405650056799174763
0.357499999999999984456878,1.75749304538457007396346,-2.08617063813406256045369,0.40691458692253262841021,-0.203189669294192576387559,0.115491857598253463978999,-0.00834723842407489140249321,-0.0195015796414725849083904,0.0143113223779342720043406,-0.10285944951014514003873,0.99440159219286650138514,0.0209083275044495420225132,-0.0466659606139539703817398,10.4160466641410529575751,-0.138246153093123685939858,-0.17729515844678972458226,1.11130042769120684909012,-2.64853448077823028228295,1.25396212380207683345645,0.416703540025416152570159,1145.40245631887501076562,1184.51091885128084868484,1152.0319067938278294605,1184.21153877463871140208,209.007546184647964082615,182.770002750748801645386,-574.869251928202629642328,-829.614358587195283689653,164.398904901361305519458
0.359999999999999986677324,1.55857686682193974370136,-1.99188218018985563340095,0.363499304220067487314338,-0.19875640027837651602205,0.109999620717308038697624,-0.00611407720569882070366097,-0.0196961305028691656404671,0.0144213470544718152382968,-0.102855528935868634210493,0.994396599636837796865052,0.0221365431224504194407388,-0.0449682538182531663095709,10.4157764217693635799833,-0.137985800564971616832821,-0.176831446075695258857152,1.11276545680461858012222,-2.64887603721551601054784,1.25369538951351922051458,0.419514307570660882618085,1146.03264425573865992192,1184.83515466626386114513,1150.51940309247220284306,1182.00027584919325818191,322.081069792556888842228,84.1215229545922937859359,-664.010445963139659397712,-965.69461466256052517565,164.39224375863341265358
0.36249999999999998889777,1.30234755748925623564105,-1.82351715593504559720373,0.23733956299892133845475,-0.194671640479003260626456,0.104715776306002969486819,-0.00461341915501117805220588,-0.0198887118049585753798425,0.0145144009496397333874862,-0.102851600568563461557403,0.994391837448119431108751,0.0240343496588461824625682,-0.0426034424172622647186692,10.415599096646007026834,-0.137686177022023736871148,-0.176337050585875759756149,1.1142297772576736925032,-2.64921029782779182681907,1.25343275003255305577454,0.422326192720560433802035,1147.01286166783779663092,1184.93152646605381050904,1148.71185456401212832134,1179.38306570132590422872,382.224955773380884238577,-3.02384770916432632503756,-633.022156812875778086891,-908.252487200979089720931,164.384359249986232498486
0.364999999999999991118216,1.10784090117793598828655,-1.67001199240703956938603,0.101118171662518227527094,-0.192320621955150400372858,0.101163792575083386071633,-0.00461364670886489722928525,-0.0200802870158716950665934,0.0146027686912329965340795,-0.102844814527012398674977,0.994387400584694325367252,0.0263799599400708767449331,-0.0396721552597339641166307,10.4155631408391027292737,-0.137379226614644578408075,-0.175814899778702155019872,1.11569076217899265657252,-2.64953607235032473354863,1.25317426087094019315771,0.425137444950204279603412,1147.94376903460556604841,1184.82003542771803950018,1147.35429230840782111045,1177.45901341318835875427,369.734741705269357225916,-65.074602570984950489219,-482.254916065357519983081,-674.51323537366022264905,164.377888013385160093094
0.367499999999999993338662,0.968618621892094910919013,-1.53532018118506274895196,-0.0301070381726758901086427,-0.190907050300632069594897,0.0980818217832354066754164,-0.0055875978301463688838191,-0.0202741727553856464216775,0.0146949988815795185015389,-0.102836645093676973261587,0.994382941105090845113068,0.029029306399679113970258,-0.0363262919234396061685111,10.4157189403992997966952,-0.137086024154620206294553,-0.175273588807619867813159,1.11714653936214580731701,-2.64985451628640067411879,1.25291848426438412467121,0.427948614551536377081931,1148.86153537636414512235,1184.60615345319888547237,1146.30057998368533844769,1176.01049952445760027331,343.308581808014139369334,-87.4763592678390722312542,-356.2720897377399751349,-479.706448620299454432825,164.371529532837058695804
0.369999999999999995559108,0.892290112346405983601016,-1.43219638235000878978553,-0.138086326625740246631935,-0.189912957017675715354343,0.0952371621758042602445826,-0.00666374741990462520629945,-0.0204728386642597064148941,0.0147983903646947256155242,-0.102829851072099270892224,0.994378013605759503157344,0.0318568944592650671321366,-0.0327072248286656638849301,10.416117850017432289178,-0.136823099155769040136121,-0.174719692661923609033892,1.11859569274805803473782,-2.65016852750756681800226,1.25266429625429132066472,0.430761248507214589142933,1149.66031194364563816634,1184.38265363137884378375,1145.57293185971911952947,1175.06048117008685949259,269.625281712160131064593,-79.4938979856396343848246,-207.29247416511481105772,-247.680174007427694959915,164.365271611770225490545
0.372499999999999997779554,0.895377002728906523643104,-1.37563790010643738348506,-0.209129973339059416215235,-0.188873425550300677588922,0.0926395004914036951371159,-0.00689993353435369716208925,-0.0206771704427721990382505,0.0149157862204343637929638,-0.102830559129145751584566,0.994371921110141498978408,0.0348170857645919845646532,-0.028921985708711787921299,10.4168118194987187052902,-0.136594192867402319802039,-0.174155757758934881529456,1.12003804267945428208009,-2.65048129350989203345534,1.25241140217809432400031,0.43357781265008221716073,1150.20966178492494691454,1184.20868396327068694518,1145.26411761285976353975,1174.77209865442046066164,170.949473480004456860115,-63.4810125446164761342516,-48.5684931689319938641347,24.7069687868588303558681,164.359143186675311198996
0.375,0.973372610199315202450521,-1.35862583773147460597386,-0.245662246722729349368564,-0.186890928229923980463667,0.0896218854804030767846612,-0.00635708983363665689619859,-0.0208878998432455477429759,0.0150448548633717264083609,-0.102839355236324606068798,0.994364617864648026035468,0.0379634910368339684172412,-0.0250716261357738987025634,10.417852813090501484794,-0.136390726465553557833488,-0.173581193158936969433981,1.12147425106386222637411,-2.65079454915256906843979,1.25216031978805286684064,0.436400059837266929285704,1150.51505931104566116119,1184.06524856865576111886,1145.33008939387445934699,1175.18401601402115375095,56.5847847183703791529297,-52.4670137038810437957181,81.3415983913272810923445,265.090832651094160610228,164.351949072442380384018
0.377500000000000002220446,1.07599299474587772884604,-1.37431455748086750467962,-0.222516578690840433063514,-0.184276924527141311438427,0.0868374455722349808395322,-0.00648914345042583134981484,-0.0211044265892396699924038,0.0151827572269318741837729,-0.102854704250819953270657,0.994356313975138239591445,0.041345855656431992897204,-0.0212348906441102089348583,10.4192917198675978340816,-0.136201564862036689218527,-0.172991717351458434981382,1.12290488847888725310042,-2.65110998240277773163598,1.25191114014053517244918,0.439229082139652837746269,1150.492585708516799059,1183.94634889475128147751,1145.67082560481640030048,1176.09755281767593260156,-46.9322741641462499728732,-71.7198693046611310819571,172.376887170821504469131,459.044673595098686291749,164.346094580446248301087
0.380000000000000004440892,1.1857697334545855838428,-1.39617060963583461408177,-0.11614672388395752555823,-0.180667892340595714895102,0.0833876002936850546642944,-0.0083449253165646247731857,-0.0213264624665780479217947,0.0153287443729493485372606,-0.102872415092667479630251,0.994347458155953489722378,0.0449581345694881895358463,-0.0175064249179783734677862,10.4211774797428109451403,-0.136019046462971554545263,-0.172383712815247142069452,1.12432947444886166543654,-2.65142923507039895980597,1.25166405653438550515943,0.442065360507754412378034,1150.28039794022492969816,1183.70664922213245517923,1146.19197382972856757988,1177.47923938199664917192,-99.5560802638009647580475,-165.197658301258201163364,245.160999335393853471032,679.388803953451656525431,164.340394461721018615208
0.382500000000000006661338,1.30036908717587218475842,-1.39761693479311155385858,0.128775444436643043966129,-0.175962060681825016583701,0.0785829981886504158605788,-0.0111722892208370987859878,-0.0215520811172039347680673,0.015482844201540569770148,-0.102890157953765534748491,0.994338332447743500352999,0.0487581300309644916080032,-0.0139507592041789516001948,10.4235561547279989014214,-0.135835897951624651192049,-0.171750927299659489344563,1.12574797236374180009477,-2.65175375688295300591335,1.25141982482506985974169,0.44490923879978261368251,1149.99480530719779380888,1183.12036060324498976115,1146.8966306014933707047,1179.49449683744319372636,-76.7040633986197661897677,-280.344471722446314743138,257.201008691435845321394,769.360932797007308181492,164.333742287321825870094
