t,ang acc x,ang acc y,ang acc z,ang vel x,ang vel y,ang vel z,quat x,quat y,quat z,quat w,acc x,acc y,acc z,vel x,vel y,vel z,pos x,pos y,pos z,mot 1,mot 2,mot 3,mot 4,dmot 1,dmot 2,dmot 3,dmot 4,vbat
0.0025000000000000000520417,3.16173764154304715034982,-5.77990026917433219466602,0.155156307082638195149471,-0.233750241112071932558791,-0.181335347898203602667877,0.0122313421440359247627239,0.00408234696241204994549001,0.00619572047330014651772556,-0.0604813478622142144947027,0.998142024882056277945708,-0.0593877871452397343432494,-0.0386072815410309355677043,11.2914735804287946763225,0.101541609614438810282877,-0.0871373015213031398840116,0.868161980770879471158707,-0.962307822010849411853428,0.823140642228513241818177,0.199505516584287723169666,1145.28727826806834855233,1193.56701887582562449097,1178.22434299609972185863,1175.37276957832409607363,801.109711858043738175184,-1259.0407092174245917704,-278.090191610499459784478,-1453.91071016856585629284,163.72509449547817439452
0.00500000000000000010408341,3.97917945962116093028271,-5.18870492365154412084394,0.0577749541662067878089459,-0.221216105460649348213309,-0.196606296221133708401752,0.00964270076622450976466805,0.00386295933856177367907159,0.00604277798583541508187222,-0.0604490563927902249674595,0.998145599112497561300472,-0.0575868076418887264722457,-0.0429475708468062614131533,11.2942716311967892295343,0.101928469537161975333461,-0.0876759019045243448431393,0.871611884609455489503205,-0.962055148852054009545043,0.822874840570812393636402,0.20168694972291739686554,1147.29005254771345789777,1190.41941710278206301155,1177.52911751707347320917,1171.7379928029026814329,771.13928137655432237807,-1145.13219186997071119549,-338.357082009361022301164,-1347.11954489403092338762,163.736550871762517544994
0.00749999999999999972244424,4.30853481496609536094411,-4.64787572284364802754908,0.0829488388317855679376933,-0.208015097633277967759113,-0.207654619763737474658072,0.00764229627791356957294822,0.0036435762277649873588925,0.00588166272081749961359032,-0.0604173821396533569649812,0.99814916391669328277203,-0.0556224117177645666076913,-0.0472745459670639717186802,11.296977586344826960385,0.102332492613361789035586,-0.0882161864770241721522837,0.875070257113951699423637,-0.961801738046958676342513,0.822608615132796483493394,0.203868524263414702124564,1149.14297467495111959579,1187.84135791647577207186,1176.53255758605291703134,1168.63717185385394259356,721.883996845326691982336,-989.240769204207026632503,-494.34547248106355255004,-1229.67956104453151056077,163.745465836170154716456
0.0100000000000000002081668,4.21433269579493341439047,-4.09395354892867135987444,0.206158371733508816170399,-0.193713068395518384079423,-0.217284669176048161887138,0.00646397954648562488716435,0.00342346720465995079524246,0.005709575821261693787112,-0.0603843578167415004354091,0.99815283987674818799718,-0.0534504697273706363969126,-0.0515968366668053332602106,11.2995045929195239153842,0.102758985135659550169684,-0.08875924065450106759112,0.878543765581958902011195,-0.961547767400107833424272,0.822342207992842855190929,0.206051555390739521422816,1150.89947253194009135768,1185.47321325676102787838,1175.05739015466815544642,1165.58959499768002388009,703.000578648834448358684,-956.869895200042947180918,-746.58473647800735761848,-1304.67674259361933764012,163.753733647029093845049
0.0125000000000000006938894,3.62204608367564206972133,-3.4417245697686809080551,0.414253078824659559664667,-0.178522631000074927243304,-0.227339051065206326773804,0.00677762987742969950227812,0.00320163076687247135504455,0.00552059402915581250853583,-0.0603506802303477932203357,0.99815660411884143954353,-0.0509608385061603025301125,-0.0559236532909574285410415,11.3017381870621100858898,0.103219580017425510698459,-0.0893055788123418986534929,0.882038362650831353484193,-0.96129415322217914852132,0.822075487584778330507618,0.20823882214354211273033,1152.65797756819529240602,1183.05700844047555619909,1172.79963390366287967481,1162.11378814088584476849,567.800437000369242923625,-792.195761492030328554392,-885.130978632605661005073,-1231.16020305078586716263,163.762916852886831975411
0.0149999999999999994448885,2.78834919641953993263428,-2.91959823710404142715902,0.585049194981448139607494,-0.169043821446307723777025,-0.23443435881870031134433,0.00876939061709301748148704,0.00297707568041182066981287,0.00531259229757419584871947,-0.0603195806869637057845424,0.998160258446212367289263,-0.0481329516508965521426333,-0.0602678487901947279592463,11.303537799616622194776,0.103720031046529950757851,-0.0898553911589900083933813,0.885559750403017487130342,-0.961042204438729896764926,0.821807362194149626510864,0.210432482204446574813872,1153.73847471694193700387,1181.51223444930087680405,1170.63173526150512770982,1159.43379398242609568115,347.621851202757113696862,-499.560072561689480608038,-885.917753759076504138648,-1018.91474572967103995325,163.769961470729782604394
0.0175000000000000016653345,1.71346099288839281982177,-2.42347460736471687070548,0.693229338593959631964481,-0.163484999860322055553752,-0.240286461265823453326007,0.0120230749057582755878748,0.0027494907434592549301533,0.00508248285836466768411457,-0.0602947090947298230956264,0.998163583506156859570524,-0.0449284886082044615518427,-0.0646241912438548921082671,11.3047409423564921837624,0.104267887028194269904979,-0.0904073866559436389866988,0.889111997978486057192526,-0.960792238540915888300731,0.821537717182657667436274,0.21263380322122224508341,1154.39608682420907825872,1180.55920807766710822762,1168.37004513486749601725,1157.01921441223748843186,201.62237841982457098311,-268.092746312186079649109,-962.338545614920576554141,-1004.1243517078780769225,163.776383187046519651631
0.0200000000000000004163336,0.295477100918907442661521,-1.85228221138132020939793,0.707790246770120257124859,-0.161361003616519116388162,-0.246063797162097530613067,0.0160393341236054164100633,0.00252220985534946581796412,0.0048332458514732520513113,-0.0602742950298412183407493,0.99816664281629075006208,-0.0414534965901659224751796,-0.0689118657381019017460488,11.3051672111533463294109,0.10485829820932475453521,-0.0909556769172000234568998,0.892699173896382536241845,-0.960543851492271283376567,0.821266951386129373524625,0.214843381486500561994291,1154.74658660904106000089,1180.17177071773994612158,1165.82004253343052369019,1154.41317222388670415967,66.4538876341339630471339,-15.2201587583022117655673,-868.802784629315738129662,-917.974710969520401704358,163.783379171215017322538
0.0224999999999999991673327,-0.885692810147761355743512,-1.38705439863581614368115,0.61636632624842502270468,-0.163078138715344295173182,-0.250202803040862509220688,0.0188241105469990517573553,0.00229597623023798267857809,0.00456946460739051946858824,-0.0602570330969065259818507,0.99816947130891797712593,-0.0378472216082362672429085,-0.0731087674827499145457921,11.3046241429479152884596,0.105483243039731527934677,-0.0914991991805371440715788,0.896323107558258169724752,-0.96029556520942727093626,0.820996194693230485484037,0.217061972836663619190745,1154.72835626237974793185,1180.48310728387559720431,1164.02603121172091960034,1152.42934085738988869707,-61.4995829367671689169583,240.150238455089436229173,-610.457887080337854968093,-774.763846885662019303709,163.788625737186634978571
0.0250000000000000013877788,-1.95382082640209220336658,-0.921598125338266349615424,0.432386344049977000558727,-0.1679361127356221450313,-0.253764393548374767028974,0.0207898134393449222911965,0.00207253586576318675135933,0.00429030625617241815478176,-0.0602413248189322750314467,0.99817214717089042252951,-0.0341271015838219421434374,-0.0771605239601466097454363,11.3029140492286632735386,0.106143369255692940344993,-0.0920347930081839293858792,0.899982606087255887494791,-0.960046191372974866418133,0.820725882701230369242751,0.219291030056905006384582,1154.43908869435722408525,1181.37252191001539358695,1162.76775309802883384691,1150.53935298945839349471,-158.273879511762032734623,424.293757777695589084033,-396.190334594712055604759,-755.576244066742106042511,163.793277937911909702962
0.0275000000000000001387779,-2.85977004403160472989498,-0.453971219015637028615373,0.195204807633639704222972,-0.175112449400199654547805,-0.256397022296654675255212,0.0220534621263024400994457,0.00185239946244245565556974,0.0039967751746118442349176,-0.0602288555301158379240434,0.998174547384179988718245,-0.0303474317334798647516347,-0.0810404793642618137550215,11.299839465039305252958,0.106836007501859883705997,-0.0925610870768267812724872,0.903674533430642967779534,-0.95979574796024125227234,0.820455395718240221292206,0.221532070981787676533514,1153.93698686482093762606,1182.60457607276407543395,1162.0450795387473590381,1148.65145963705617759842,-255.552756545466877469153,525.410684174358038944774,-154.771593646410195788121,-763.529893954910562570149,163.797446577684354451776
0.029999999999999998889777,-3.50950243621038637797938,0.00505406186289740488870592,-0.0683985829601075207007099,-0.184744027619183598387664,-0.257503346439729163819266,0.0223732966020536334916802,0.00163301714155172721619491,0.00369009409066293082163357,-0.0602193059590223622734584,0.998176678905780656592128,-0.0265594013494362714278285,-0.0847883331337046242115463,11.2952095671914829466687,0.107557320739865333592,-0.0930827347128016097110859,0.907393388597331096434573,-0.959544484619332282981929,0.82018455068431450616373,0.223784910246199980621284,1153.16132491162989026634,1183.9995753308871826448,1161.9938951297967832943,1146.72170351968384238717,-411.157334204426604173932,575.444854706847650049895,116.712108042611333758032,-848.428752189101828662388,163.801044521757063421319
0.032500000000000001110223,-3.94907891724519011233951,0.516432223390370426230334,-0.360442585281990468537572,-0.198258360396435157069206,-0.257069151182014121737041,0.021462087513729948690111,0.0014099181010621031524821,0.0033719832809956115995953,-0.0602095647797466979045389,0.998178722641929971892694,-0.0228177024443387797825178,-0.088484321253565617615422,11.2888464494600491150322,0.108301590201518360689903,-0.0936086216315940300436438,0.911131922751109324387642,-0.959292021202283518022114,0.819912919185020960810562,0.22604855408641125191771,1151.88120019379880432098,1185.48180034629831425264,1162.628640078960415849,1144.40931587611066788668,-528.410021539002173085464,457.802827838622363287868,323.02696451438322355898,-823.002523471631548090954,163.804719749233953507428
0.0350000000000000033306691,-4.03003075743868688363136,0.881826093130350763260594,-0.543954312855686628047636,-0.209886079833400490679551,-0.255294558856317743700259,0.0195055079980031922937123,0.00118148541940415021181399,0.00304312943483815842235507,-0.0602005651458668092357307,0.998180617271093861830877,-0.0191505775407974920820919,-0.0921389194308350756301706,11.2805916201195604031682,0.109064858982451426405724,-0.0941415389796003421185588,0.914882048014832971460919,-0.95903802436701091060911,0.819640017120401798145224,0.228322233680471248229438,1150.51927480393487712718,1186.28858947008029645076,1163.60902995236870083318,1142.60669090232568123611,-597.108571713352262122498,184.164096459653677584356,443.820853521538310815231,-653.546277289024487799907,163.807260948109728815325
0.0374999999999999986122212,-3.8493317853324335864329,1.14993466636966923388741,-0.627759936897665848931638,-0.220150883569902588998701,-0.251984481808745552910977,0.0163691699014585807792077,0.000947412997851000628253548,0.00270667365412756953657603,-0.0601917681855133057666762,0.998182383981185639143519,-0.0156361287041297813971141,-0.0957322061067261143030294,11.2703112526780877544752,0.109837857051391402096741,-0.0946825774889738930317762,0.918635397994917557440431,-0.958782176791464824106015,0.819365483146102135947331,0.230605805589648438225225,1148.89565733523204471567,1186.40262082859658221423,1164.8477443465681062662,1141.14158448966554715298,-752.981988341662486163841,-139.665207937969228169095,549.322426226035759100341,-518.208921639234404210583,163.809278384926415128575
0.0400000000000000008326673,-3.40092454626056728272943,1.33006194736205318740474,-0.597224850467849011081967,-0.230019297451808713006471,-0.246791629428274483792904,0.0121472048225883706706885,0.000711615169427112499549171,0.00236853930973354416880672,-0.0601811895713519409700787,0.998184120026228249855649,-0.0124129501719604795617613,-0.0991487375080318533715484,11.2579015812119411776848,0.110605191564292326678043,-0.0952258793329096159263614,0.922384071218405932057749,-0.958524490349938473876534,0.819089924619515574732986,0.232898880512546868626345,1146.75436486222656640166,1185.59026343039045059413,1166.35564208349887849181,1140.01564629412951035192,-798.526358274056519803707,-458.190115973684044092806,516.642796619998534879414,-282.40611287196747980488,163.811114706205131597017
0.0425000000000000030531133,-2.88875766909194098275293,1.35646326345169132565616,-0.477601155164800950103654,-0.236459151107590331841735,-0.242390735611957452988463,0.00932520237971650768626919,0.000473169437253918032451616,0.00203820932321897765188146,-0.0601680689060796886069582,0.998185842822080560132747,-0.00968447208451612626123328,-0.102382263538245477096922,11.2432922695758659159537,0.111345545762402631240207,-0.0957748174286326137139014,0.926119004967864922761578,-0.958266094705538917786214,0.818813549143998620216678,0.235202141862675850880748,1144.90302554386175870604,1184.11167024872816000425,1167.43095832966810121434,1139.72955392530570861709,-736.478661989440638535598,-741.60731144943417803006,351.89177961460717369846,30.8600269478120168287205,163.812172777517986332896
0.0449999999999999983346655,-2.28430077006219711677204,1.26896396266282951437177,-0.308056947236388434241405,-0.2417016617720468552033,-0.238769840223197554740509,0.00796755847465990818534465,0.000229637104049492041853847,0.00171866125500926133704005,-0.0601539938740038998554738,0.998187444315003724604196,-0.00749740271628321006125439,-0.105446994729045229188813,11.2264505698543910483522,0.112050250026020523086423,-0.096334691133846170330024,0.929828557583669890185263,-0.958006551273208439845064,0.818537099884140584293846,0.237516075703943618790959,1143.07197155227936491428,1181.88222687314328140928,1168.11510098157191350765,1140.16994642886857036501,-793.245638927828963460342,-1119.49964285204305269872,179.47173983575348188424,345.340439332812991324317,163.812758064375799449408
0.0475000000000000005551115,-1.49112319292574713180954,1.06666266678825638614114,-0.122702256158082612103044,-0.247071208530179220463907,-0.235568790250298865096568,0.00847849509118307927135749,-1.82466321654855451498637e-05,0.00141307598576454374224298,-0.0601372640100473268565118,0.998189014031002574967033,-0.00590065937544250254664924,-0.108281678434702016700086,11.2073840341989594548977,0.112709536445105826252266,-0.0969060392681668492098623,0.933500967355394450919448,-0.957745371307466175636591,0.818261436522874863186416,0.239840700544497131829758,1140.93679734922261559404,1178.51417203446794701449,1168.32831702884686819743,1141.45625612196977272106,-777.286259036781530085136,-1317.33364288743246106606,-32.0409937963631534785236,569.568225707689180126181,163.812933278680787907433
0.0500000000000000027755576,-0.795558512615878954399307,0.844561895409481899754667,-0.0351213016332411545605829,-0.250783640469292634644916,-0.233819214180414514103745,0.0106832622966447857854044,-0.000270766384733434051484274,0.00112254887157207418335592,-0.0601159315605181085451214,0.99819065997484313079724,-0.00488934634959386701935635,-0.110841113370510502278421,11.1861416294159390361074,0.113318027011669972270447,-0.0974912902528585201267219,0.937123175736080948894369,-0.95748260108623861608379,0.817986890070514727213435,0.242176190250738498921379,1139.18554025709545385325,1175.29555865870611341961,1167.95489601259009759815,1143.01778755740701853938,-710.323763235237834123836,-1325.90466372689729723788,-257.780669935391529179469,678.519998030833789925964,163.812653767077307520594
0.0524999999999999980571097,-0.0974979517904728532062819,0.593915529572163869431733,-0.0506846526648897510725078,-0.252939853061904640352253,-0.232719807951451224115047,0.013700208481950687869344,-0.000530414695442926438853637,0.000839287329122031361926248,-0.0600887730777843673268812,0.99819245695617586644488,-0.00425348298885108028200008,-0.113114071857474074445093,11.1628141244414997856893,0.113888103871318993598472,-0.0980958171506771808845215,0.940679315540964844366556,-0.95721877883392914032612,0.817712836505602003178694,0.244524172783782911544392,1137.38517853304642812873,1171.88464871583346393891,1167.03941367916991111997,1144.84885611212393996539,-743.799893588129975796619,-1356.96490872001118077605,-440.933596838840685450123,736.495676883760438613535,163.811948454353370152603
0.0550000000000000002775558,0.564881356374718035517901,0.332522789103942839616934,-0.142904871103067238058415,-0.252987487250232456759136,-0.231966242770689418106755,0.0159573248984009874451573,-0.000800498006668040541951303,0.000552641852005179498585896,-0.0600551648709055779784549,0.998194447390687078502935,-0.00371817668052767252850899,-0.115101086762733201274145,11.1375331696151942395545,0.114438839295963976083748,-0.0987258860898118789650724,0.944152628847779618048719,-0.956954756794600958080821,0.817438651404525984389693,0.24688586116220992416892,1135.46654078915480567957,1168.51073411510606092634,1165.75022802839589530777,1146.70026594182581902714,-813.059075344471466451068,-1294.02906190280077680654,-578.279873895825744511967,698.942900201790848768724,163.810901507055774573018
0.0575000000000000024980018,1.12604085678956788996175,0.0663608665443758960478249,-0.275055477524742686412651,-0.250138935145892749023488,-0.231753341809595475586647,0.0159016438160718316663367,-0.00108063698722223066640835,0.000252772861489373448177359,-0.0600147614824018613144396,0.998196657171220635973441,-0.00303419595980491604847451,-0.116720779738070018494156,11.1104696915362719522591,0.114988656355317242496739,-0.0993805472788753946344897,0.947527787554284128823667,-0.956691036002546235650357,0.817164596720838964927225,0.249260768488969414180545,1133.31988315632406738587,1165.41450340631945437053,1164.14801430969077955524,1148.3435706131328970514,-1008.0791282881823462958,-1251.12588579318139636598,-736.410531263937059520686,629.7249365141400403445,163.809455990489311716374
0.059999999999999997779554,1.61108784749459421625772,-0.253833636577650179066978,-0.386215091825643008771607,-0.243988387787809790641091,-0.232206134217334325686721,0.0129346706193172733545538,-0.00137234495657519790963452,-6.22653082312209975399814e-05,-0.0599682059441445369785129,0.998199041783959684082106,-0.00212935592262930052653847,-0.117945474972302177807393,11.081829380003023644008,0.115542603494857828994036,-0.100062670268873887824412,0.950791949008508274765461,-0.95642816112321815680275,0.816891618005897934828852,0.25164765129555577427567,1130.42614514771389622183,1162.25510468614015735511,1162.06817537207621171547,1149.84889062439651752356,-1108.30501223608780492214,-1049.07416596497614591499,-759.725156946524634804518,457.7102349994677297218,163.80727730338645642405
0.0625,1.82459272349083700959227,-0.520693846753179756525753,-0.379778608881592871782118,-0.237407751510263498317954,-0.233034589680381126752806,0.00900736189265114416124813,-0.0016717043880796419747653,-0.000394581465904324962291894,-0.0599235482951034417742342,0.998201111594818057959344,-0.00093963039311937245068318,-0.118630537726158641342877,11.0518492714624869677209,0.11610778564546114788314,-0.100762526938339938564759,0.953935198228816783050377,-0.956167054194997922955679,0.816619803057519133560049,0.254046641848806820096485,1127.77835809514363063499,1160.16913257649457591469,1160.34938852495815808652,1150.63212178813023456314,-1081.81831480992423166754,-728.293881917260705449735,-655.658065694341871676443,216.870388729739516975314,163.805103447493820567615
0.065000000000000002220446,1.83634556434440043837242,-0.787514853821983495940628,-0.238975372002328101395108,-0.230110350102953359341384,-0.234051526818120469997098,0.00524354581415888750667298,-0.00197613972896872524750989,-0.000741907079076791430537197,-0.0598871776273694894632271,0.998202474822546537147616,0.000496986304455675556579486,-0.118673228611121117648253,11.0207907115381296137002,0.116683489317139635343956,-0.101472991696854392129623,0.956950677135750216173449,-0.95590823923737955336577,0.816348627309245511440849,0.256456690725147651299665,1125.01705357366427051602,1158.61363527655385041726,1158.78988504360449951491,1150.9332425680452161032,-1189.3186898940700757521,-602.560986775915239377355,-626.510103823692929836398,41.6663803228857076987879,163.802571253952635288442
0.0675000000000000044408921,1.66994187384420911257621,-1.10076173622441020327756,0.0585313246687383381683389,-0.221908248838681876335954,-0.235707692463779372449295,0.00264116919495306808063351,-0.00228252229632169021181221,-0.00110107280185050399566593,-0.0598636667730313015711729,0.998202854559568697467853,0.00211418731366445379615815,-0.117968498236559804492884,10.988932963747233273466,0.117267191936357845216676,-0.102185455096658009410682,0.959834732159646097926498,-0.955651142252369134588719,0.816077920208816531832952,0.258875029473499884691279,1121.83176464567327457189,1157.15632764261499687564,1157.21683800583969059517,1150.84045368974466327927,-1101.30081962797612504801,-508.238516927758155361516,-518.364707495811217086157,-90.1283357381543339670316,163.79913345682084013788
0.0700000000000000066613381,1.4585648621089586374211,-1.34073687050375078833042,0.35899318817817055249364,-0.217298822390754958755466,-0.23802396679095072506982,0.00300694762095545008520614,-0.00258862330931122546981427,-0.00147000033857025121444839,-0.0598543927847093662486522,0.998202169309472697733554,0.00386210098153076317184507,-0.116440720353211873971944,10.9565656594897475883954,0.117858008994391610935182,-0.102892596157248411570251,0.962586407681868094776689,-0.955394517965254652658302,0.815807745431468389618601,0.261298088990857380053967,1119.51054947552438534331,1156.07244269191505736671,1156.19806150612544115575,1150.48260088935444400704,-807.258031217681150337739,-455.264792052185782722518,-345.839922399500835581421,-181.206739776189692747721,163.795946615111091659855
0.0724999999999999950039964,1.29341061619518393754902,-1.52852474165643248404933,0.632062895450329564894787,-0.216344144356535678097586,-0.241671838124004750847362,0.00606122304621894286702499,-0.00289046479939354152011166,-0.00184635803139918141559106,-0.0598558679123740652872065,0.9982006408258210505835,0.00567363638062487116164867,-0.113989648078577393564004,10.92398154128630594073,0.118453371002012197710229,-0.103583756344534622106934,0.96520817176395889980256,-0.955137740153094605410899,0.815537564231016198768032,0.263724346340008575229064,1117.79547448958487620985,1154.88000368235407222528,1155.48763839384218954365,1149.93441999086371652083,-569.212632989002599970263,-586.152434206316002018866,-249.830354613641731020834,-272.124090469288205440535,163.792437756605124832276
0.0749999999999999972244424,1.27416656613029788402969,-1.6546077380428987346761,0.851431273593453719072954,-0.217672221696037365701315,-0.247166660514622216204828,0.0111394704786576381055907,-0.00318081594968791601246716,-0.00222536186493134738317856,-0.0598613238982403303434232,0.998198705005426067948804,0.00741520453902096143838918,-0.11046325060291531383605,10.8914691027728238736927,0.119044923626198853594538,-0.104241811285743127268866,0.967706285580153147130034,-0.954880837916047719993173,0.815266869384904224737909,0.266153114680863833729774,1116.66448631057937745936,1153.14168052088348304096,1154.94890973305723491649,1149.12198043700800553779,-243.84448220266654061561,-694.398029185594509726798,-155.543690573040152003159,-322.402914163830871530081,163.787868464169775961636
0.0774999999999999994448885,1.4532973557722395074876,-1.6554432283741407072597,0.918366638218507169710847,-0.218664126832754851514906,-0.252093369788709387169234,0.0151822913079437959993356,-0.00345573548226401619162806,-0.00260145786246623747853257,-0.0598645118200909071015658,0.998196763936227471347706,0.00893351383626227180112522,-0.105800193814876403175518,10.8593045524459181905286,0.119623326801655174844718,-0.104854699845444793160354,0.970088385264299746246763,-0.954625127186925048761168,0.814994256713760578669792,0.268584960606528255766534,1116.5762520785715423699,1151.40801353642609683448,1154.70991994097698807309,1148.3224054200445607421,136.973474431397221451334,-733.837589114136108037201,-65.8656595131105291329732,-352.318815472835581203981,163.783771422391879468705
0.0800000000000000016653345,1.81985317756202880090655,-1.53710124943924020257668,0.871359410744856011099557,-0.217753617273306721013881,-0.256809738863708614253767,0.0182632954067695855993048,-0.00371057485605725710306468,-0.00297084120146779611174037,-0.0598621179263225736133514,0.998195046935516305808278,0.0101061170037809212873814,-0.0999403065309706906127474,10.8277459473732875494534,0.120183180404110856454025,-0.105407053746019538364997,0.972363212798600495823109,-0.954372023591550489030055,0.814718352748316942957274,0.271021078656711933430046,1117.34935368273636413505,1149.47249257531279909017,1154.6195814354916819866,1147.36038635964382592647,429.86584690065643599155,-778.016030285197530247387,-21.214690465058065882431,-420.523913134092765631067,163.779385253998157168098
0.0825000000000000038857806,2.28440497055438251905457,-1.32359066619539755826906,0.753412309114042333391126,-0.214101055561260272819268,-0.26103486225341354654006,0.0204977263526606619248316,-0.00394332593087095163025824,-0.00333371987300231514828042,-0.0598498382197628076006879,0.99819382715987603482688,0.0108951637831894675156885,-0.0928941021055099264147614,10.7970270948181497061569,0.120726905310145349314865,-0.105887742244894986209935,0.974538931631088622964398,-0.954123179518589048520028,0.814438176232839317059131,0.27346325925672598788907,1118.72558131307482653938,1147.51793338500010577263,1154.60384648865169765486,1146.21978585437409492442,652.188524531720190680062,-740.052190728282994314213,1.6113159603264635144626,-508.332171061374083365081,163.774767613134912380701
0.0850000000000000061062266,2.7664539755402421938868,-1.01267198706865491075746,0.587840612098262438323104,-0.206507218571439304932724,-0.264484765089894824363626,0.0218823444779949784211315,-0.00415252107428662215610204,-0.00368968775813044392794526,-0.0598240542417049006584939,0.998193341062361461091257,0.011246102315600411264418,-0.0847023027897111091544247,10.7673530970040580712066,0.121255537117982287176332,-0.10628658605331146869144,0.976624482803210569592522,-0.953879483633687574872795,0.814153662731471605695788,0.27591246296576477092799,1120.61029630539496793062,1145.77223162167138070799,1154.62763801529331431084,1144.81872550433695323591,882.315473665356989840802,-660.648170102194285391306,8.64505558388372463696214,-679.156352606059385834669,163.769880918313589290847
0.0875000000000000083266727,3.24232056603930596239138,-0.563495242260836137759838,0.383075003594577245813468,-0.194203004462156825216113,-0.267337876135629537444061,0.0227099839699907643519872,-0.00433832343118943294935086,-0.00403809830348865212573672,-0.0597833300777604464970594,0.998193690161546909322965,0.0110997827900998456696069,-0.0754571208495537215643623,10.7388965315448601245407,0.12176933689529514937,-0.106596824367053436000141,0.978629346240309394566737,-0.953641032183482284523279,0.813864902821075819616681,0.278368972419054672151617,1123.13715868140161546762,1144.21469253448913150351,1154.64707176657111631357,1142.82400409134379515308,927.857254618722322447866,-449.14580279523846684242,-0.463082218675482160108459,-776.516316136304908468446,163.763718931288252633749
0.0899999999999999966693309,3.49654170690004306720766,-0.160781836440459652282087,0.238390068796337034617849,-0.183159329027553580138132,-0.268227599242097103360294,0.0226834831029984473893535,-0.00450418278175791775286285,-0.00438279049269329947641216,-0.0597335433119502226539943,0.998194505796303421796267,0.0104982554781330623960844,-0.0653292644624972607125812,10.7117947300642679664406,0.12227769601663576737316,-0.106817352908475493578067,0.980562281131516555454652,-0.953405456361152370270418,0.813573408570229972269772,0.280830958844324296563855,1125.24958257848857101635,1143.52650260769519263704,1154.62532260419993690448,1140.93614392365543608321,810.166276264000430273882,-134.0562491665425852716,-19.7735666411972879075165,-783.968392614544086427486,163.758345282033701550972
0.092499999999999998889777,3.58680028227991964939747,0.2258806741383410365831,0.147116388016676313821307,-0.173110034157063552573419,-0.267365589509251488919972,0.0220794452050102965601219,-0.00465525842397894809576719,-0.0047268002635610321254811,-0.0596835793006681714079065,0.998195235512912337760838,0.00947140760987613336552293,-0.0545369910690296152977474,10.6861485014211439192877,0.122787333506701359930879,-0.106951918950208724190531,0.982433022828382296331995,-0.953169493188130712013617,0.813281290315273297508725,0.28329632545475152971548,1127.18799006272161022935,1143.54441128865641985612,1154.54820393336513006943,1138.90416212827108211059,795.219753569426075046067,150.76101612007718699715,-44.06864259453864463012,-899.855461185096942244854,163.752735519147535114826
0.095000000000000001110223,3.53543953458396664757402,0.626721784437806794798576,0.110686941480915373992033,-0.162808459382848491614482,-0.264642681414976432829889,0.0212444126508668507113953,-0.00479491079348714609870141,-0.00506853003218448588951262,-0.0596382712932231398572647,0.998195596292001940952332,0.00795480692427926253107451,-0.0432716627718819010772755,10.662021894527512699824,0.123292790252826411911968,-0.107004676945937099441508,0.984253863173576992728897,-0.952930700367421334995299,0.812990788619421866911807,0.285762087118853480571801,1129.22568134633570480219,1144.28030768829557928257,1154.40497939122724346817,1136.43686661772994739295,701.494112450381521739473,350.618201846463932724873,-56.3222468608273132417708,-890.104863801570104442362,163.745744476625191055064
0.0975000000000000033306691,3.39314767823544150004977,0.889714061778231535271289,0.135157625301566747255677,-0.155426089216361473788197,-0.261642602559392756234047,0.0208207317990646741112659,-0.00492926066972377598107702,-0.00540692766406540049894947,-0.0595997053582930993997913,0.998195452507659286567332,0.00591010030653061138594673,-0.0317845999600123163553178,10.6394429041093783183669,0.123787629346540029029455,-0.106988169827042817194851,0.986036941936684674381297,-0.952687236130440040504652,0.81270355662832982623911,0.288225629371557379165836,1130.69546062497352068021,1145.29750229788874094083,1154.26659269906099325453,1134.45363780926322760934,555.002386915975421288749,426.113202005762616408902,-54.8414288015009745436146,-762.51302898099243066099,163.739712586079917855386
0.100000000000000005551115,3.18063087931073384950764,1.07774715880346549923274,0.195090090950920169721172,-0.148590969831632585540504,-0.258420158328429239169566,0.0209456388595268168384411,-0.00506662578602224290130751,-0.005743821711138542666919,-0.0595693288291731862238443,0.998194680223731922730224,0.00337625549449776032884252,-0.0203680652541184323278678,10.6184059924240834504872,0.124270004234508735230236,-0.106921131370058999920936,0.987792960083781146352067,-0.952438303538410191428909,0.812420598779162395075559,0.290686068194667968089817,1132.00069328091558418237,1146.41087369832439435413,1154.13077224721973834676,1132.62430147282498182904,557.711962367556679964764,430.270820222176155311899,-59.5745647386592693806051,-766.161113684938072765362,163.733478944084794193259
0.102500000000000007771561,2.86333820657539384058055,1.23715829059227355735118,0.27288158916521731978122,-0.140232301307795320655103,-0.254559259322298780947591,0.0218774199131698925124834,-0.00520741087093172690114518,-0.00607451501429553952782214,-0.0595464687698681188754435,0.998193351080060686797424,0.000259357386745779489034547,-0.00914928510395145860867316,10.5988752205056364630309,0.124723381986288683886954,-0.106809440277713746381139,0.989534610225802468974621,-0.952184641268014164694478,0.812142222029333282762309,0.293145598371423954375814,1133.48402043681130635377,1147.44885639899962370691,1153.96871987536769665894,1130.6228322408385338349,543.03621117710565613379,279.149044370115518631792,-63.2566446913643929406135,-709.115735534807299700333,163.725779201120957395688
0.104999999999999996114219,2.55223832955116725074163,1.338907390094357552357,0.316643203729050304318093,-0.133034974387470944501288,-0.251339431623932574311198,0.0232914237980311571163394,-0.00535081206784562921768833,-0.00639367214383954052259185,-0.0595268332790272608479043,0.998191759537019773773636,-0.00353165054295135824591334,0.00177706130312537541326989,10.580788735572708603172,0.125129313867435920659688,-0.106658268568153455357894,0.991272676322566659301572,-0.951927637002157212009479,0.811868377819918829452206,0.295606544377566060610718,1134.71587433680110734713,1147.80661892017496938934,1153.81448902376291698602,1129.07872279515095215174,499.312249923742513146863,-0.933472155020355742749416,-71.729695554177084204639,-607.526292087233059646678,163.719189912283695775841
0.107499999999999998334665,2.20280859736287260020049,1.44208788434225576580161,0.31551413992292270949136,-0.126243637326878960225329,-0.248259594497450691852336,0.0250967053138444196047629,-0.00549889597386097207093458,-0.00670120961832004063962742,-0.0595081567194760616135163,0.998190031562497304129522,-0.00795627031178900920305175,0.0122715072532662838877826,10.5640650591072429165251,0.125481339745593112322553,-0.106477491098514120970719,0.993013010805645079948079,-0.951669825032708249779034,0.811597636019016244190993,0.298070874409714081654244,1135.98058168643001408782,1147.44418903822452193708,1153.61007139759681194846,1127.58520078040237422101,509.370137109453480661614,-269.281531353362652225769,-93.178318869831770143719,-600.298572729342936327157,163.712432976491385261397
0.110000000000000000555112,1.84055930746754814464339,1.57145804527287391572088,0.270802695705974871831501,-0.120621887974044550428943,-0.245440866399164098199392,0.0267800446574535562505037,-0.00565370063714071020150032,-0.00699874268064942448019927,-0.0594893048760806036900917,0.998188215938507927837975,-0.0129226138745453349165881,0.0222083891599057989263422,10.5486095978757692392946,0.125777825724382674721369,-0.10627615160659102666596,0.994757677435371356899907,-0.951413425964887538022197,0.811328411335404342530353,0.300541121377878805986938,1137.26272502234837702417,1146.46021126340815499134,1153.34859742941375770897,1126.07722993150423462794,506.598883160358582244953,-517.164544775186641345499,-118.3342938457825681553,-613.553720025446978070249,163.705545703989770345288
0.112500000000000002775558,1.50002822427029869345461,1.75493834237218493399268,0.181078728740184463630314,-0.11714599172683103078807,-0.242779865372279246571452,0.0278207678684387060830119,-0.00581685490168925081744256,-0.00729174247895221505633145,-0.0594740852053473531557692,0.998186043386404264765588,-0.0182452046448077186135972,0.031486473335028956899162,10.5343214741441073556416,0.126027047022430477296595,-0.106060346921872813985566,0.996504517803408651488439,-0.951159170320996172343087,0.811060174137673395300396,0.303018931624931042723148,1138.51357610223180927278,1144.85836631434858645662,1153.0183999283678986103,1124.51743218027513648849,523.74542001007239377941,-779.478616328605539820273,-155.018607149986422655275,-694.86871531403210155986,163.698511689459735407581
0.115000000000000004996004,1.16581487277646766997918,2.04589005881051555491013,0.044948863965988995750056,-0.115564353830058280658832,-0.23927228048768584001138,0.0281157857450404016774748,-0.0059897469140608936011283,-0.00758554466332739263378926,-0.0594660809870996634463047,0.998183262739770094107428,-0.0237299518164917865037378,0.0400213941039867862614621,10.5210999058444798492928,0.126238105468598621472509,-0.105835269109155361011432,0.998248398609561160554904,-0.950907536943852105260078,0.810792911116467562848698,0.305507116617959484372591,1139.88145212239874126681,1142.56281818176512388163,1152.57350439366382488515,1122.60288635493407127797,464.596828665662144430826,-839.389027250671574620355,-162.151124899310019600307,-698.714216516872852480446,163.689914629686597891123
0.11750000000000000721645,0.969072723183549755709976,2.3328282292150208654391,-0.0716450311470868822505409,-0.115658849222400397782629,-0.235490425816392123792298,0.0276683139185395950143675,-0.00617226250090313968699185,-0.00788072202488490115845909,-0.0594638539119958578482716,0.998179967241253685017455,-0.0292733333541308586578378,0.047767368885764806274441,10.5088493065308430374216,0.126410341267463310899188,-0.105604463422936709071642,0.999983302819609343181639,-0.950658688039457744345384,0.810527097726832179702683,0.308008006622757679604518,1140.83656024556012198445,1140.66142117809522460448,1152.20764430387134780176,1121.02386109769076938392,329.925029545711993250734,-679.044978208550105591712,-131.113432051870660188797,-610.546127464978098942083,163.682629967061870956968
0.119999999999999995559108,0.843350686530361270953904,2.62369073017561538208042,-0.170872497376862025886268,-0.115067121454865681218216,-0.230143395588826182862618,0.0268350118979465701585241,-0.00635837528675593961768886,-0.00817354895036825554455184,-0.0594630234787642333871283,0.998176494564968486145062,-0.0348600865894876515982403,0.0548094386758877852305893,10.4974826024028473625549,0.12653384446226373372113,-0.105360510956976183294387,1.00170426404760615213263,-0.950411820799746731580626,0.810262663233635826998125,0.310521271822524314032421,1141.53107727012729810667,1139.16759329072237960645,1151.91793723340447286319,1119.5501557176091864676,238.929139178344939864473,-487.628023307207513425965,-95.4567412146845555298569,-602.855299374733704098617,163.675231867897082338459
0.122499999999999997779554,0.715093762233628638114169,2.90766609448275437088682,-0.256035202256399752052118,-0.112093890724555014792863,-0.221574227030634257618047,0.0256860931947296769473077,-0.00654086688859353317104794,-0.00846024353012370805560138,-0.0594577263552592757966941,0.998173281578145554782111,-0.0404708117722967497531528,0.0612684093469191351499781,10.4869251174824675842956,0.126598556836912928824646,-0.105093599290985648120333,1.00340646825044621515133,-0.950166134014874375068871,0.809999520837037190190699,0.313045299196573090227957,1142.03120594145184441004,1138.22328106155919158482,1151.73036059779792594782,1118.00958460081710654777,130.926043816134438202425,-170.931791789371203549308,-37.8137747613436303595336,-513.501265782678729010513,163.666236148086682078429
0.125,0.577495119310321491923332,3.03908904493891940390426,-0.295506342399381061181174,-0.108640457715757740575491,-0.213004082478604445105574,0.0245981046082043748601809,-0.00671302684816425451752586,-0.0087384815481044483126416,-0.0594438632590912688358209,0.998170648899697754430349,-0.0460519493239092692071779,0.0672652984991478353204997,10.4771167959803843672262,0.126598107996919589934848,-0.104794024259184700986758,1.00508556867856557737184,-0.949921103189463655880331,0.809738275006405716638369,0.31557773207934441961342,1142.18570748920797086612,1138.31293433177552287816,1151.72886835959775453375,1116.98264938869579054881,19.4547961682928693960548,226.370204374688711368435,25.5582411222348824253459,-345.633725782545013771596,163.658650686182198796814
0.127500000000000002220446,0.370361830946183412383022,3.0176450392016951340679,-0.305699065485019072507811,-0.105719715390527907450391,-0.204009328047338345246686,0.023533250734616709826108,-0.00686855300279839552785033,-0.00900630526294493062577917,-0.0594174317355541867224922,0.998168907969399943347355,-0.0515412026469189432642537,0.0729213824923643227915449,10.4680125781880910551536,0.126527363098640960314967,-0.104452543358323587940895,1.00673874153535414244232,-0.94967623052056704402446,0.809479133614505741434186,0.318115629836984326050953,1142.12847992229330884584,1139.35513208343263613642,1151.85815180340910046652,1116.28141597190438005782,-53.4199637768778714530526,647.770000671106913614494,66.2464299260136044722458,-226.896530418662024430887,163.650983601957307200792
0.130000000000000004440892,0.0366153926089347464545298,2.79886885196259527219809,-0.29619624167388802771228,-0.103572531220161412335301,-0.19384764815554994532576,0.0225973548256864081862361,-0.00700574409814845328742239,-0.00926374142962668040146568,-0.0593798471756934662102445,0.998167998241004883475114,-0.0568334010163497882484052,0.0782696587640067942270861,10.4595829234508421734517,0.126387369676521588157669,-0.104067357274501462449656,1.00836374973682496580807,-0.949431775983584635980606,0.809221841562065336006526,0.320656884304134082164239,1141.91860767032358126016,1141.5517843351310602884,1152.06010050922782284033,1115.84816673660247943189,-85.1021242262503818665209,917.511915838758000063535,60.5974408896599356921797,-92.6110099896503982108698,163.641700896959378042084
0.132500000000000006661338,-0.294114062789097185923737,2.46691060495075298319989,-0.281807974538354433224896,-0.103210330797397054070075,-0.186537013907582011063013,0.0220632882544980236938503,-0.00712406407279559533707314,-0.00951167543163576427456274,-0.0593336899418253488347474,0.998167772575285439096149,-0.0618099830281359230443883,0.0833251897435050292717307,10.4518115200060712766117,0.126182027047778005934831,-0.103638355484581334842176,1.00996001599308482532535,-0.949188394325641282556205,0.80896677854944654129099,0.323199678262395928562967,1141.70296930116205658123,1143.94269166262643011578,1152.1611390078574004292,1115.81836092195612764044,-81.6749003179210575353864,1000.61422146413769951323,1.00865616486771525472932,45.786488799649262659841,163.633905471337726567072
0.135000000000000008881784,-0.641530451786985533857433,2.01389353823150063504954,-0.273735956459459972567316,-0.104576477329452494080542,-0.180816127069833576523905,0.0216087673335586955003507,-0.00723131993309195520575061,-0.00975099629417211857806969,-0.0592831213727631756160719,0.998167925332239525104683,-0.0663509320523881368503183,0.0879327969442302015412594,10.4446950393278612523318,0.125917410226760811964297,-0.103181622399934988520975,1.01152698641658345124483,-0.94894663114258759328834,0.808713430277542055790718,0.325743555191626676936778,1141.51023316873397561722,1146.55485544245175333344,1152.06514379005216142104,1116.07709918060072595836,-70.4602314743169131361356,1023.49301824619851686293,-84.1686222314819332268598,136.895560687753345519013,163.626058064054006990773
0.13750000000000001110223,-0.971258839840504983875746,1.4953439806571218184672,-0.278417071706000163189287,-0.10725291630383272656335,-0.176466107609395433941657,0.0211884919206001935687578,-0.00733732483148849274484649,-0.00998057898641400119410516,-0.0592311718499028208584356,0.998168217117796907622562,-0.070386299027353327328882,0.0918966587805827295198924,10.4382391103969798251683,0.125596448908667251975757,-0.102717599686590319030266,1.01306562487963014440595,-0.948707016940435021723488,0.808461921483664802678959,0.328288211477643698810169,1141.35066814379047173134,1149.06015675385742724757,1151.7402958966999904078,1116.50283872539489493647,-61.8245679337632623173704,914.147629829994116335001,-186.982548250943921175349,189.214067151260508126143,163.618174981950943447373
0.140000000000000013322676,-1.24915209493849133082222,0.94399400131717481343685,-0.304156629076094364716454,-0.11102827411523222278511,-0.173689852003977435179749,0.020854418438740786323482,-0.00745029618556878204388427,-0.0101990649331866294058369,-0.0591786475226580566122436,0.998168545092140258034874,-0.0738652955638610941857536,0.0950566898994642250908527,10.4324551813657215859621,0.125221847762190335862087,-0.102263841222916596063186,1.01457828547720629863704,-0.948470117824715686083437,0.808213031152243521759715,0.330832325297983731449136,1141.20111032906515902141,1151.12559359160172789416,1151.13023104879744096252,1117.02316951635702935164,-79.6866512103405710831794,751.813319545134845611756,-315.690088589599042734335,225.847921655849660282911,163.610257742518683699018
0.142500000000000015543122,-1.50212097738797956125723,0.304130271692248876913567,-0.360744342675341056470018,-0.116056620714713606967727,-0.172169257579648182776566,0.0204893867948578375925983,-0.00757703433766730889697971,-0.01040853608903707754052,-0.059129079742473368563882,0.99816860684243602364063,-0.0766835940570246149539102,0.09728601138190753894186,10.4273589228912850757069,0.12480440851609166108549,-0.101833709624334550758462,1.01606719331193251498746,-0.948236223333107419719568,0.807967450724476288215214,0.333375893645499965511902,1140.95223488773876852065,1152.81922335158310488623,1150.16184545375199377304,1117.63207833367414423265,-115.329785225367771772653,473.840993516116611772304,-368.110347127368982000917,208.714546550892066534288,163.600728893063234181682
0.144999999999999990007993,-1.64495751699205872142784,-0.169414852305519697539538,-0.424349587339745870639973,-0.120279480647241740487452,-0.172462434330233782553421,0.0200741649565522178866317,-0.00772443976296265447101241,-0.0106118923882612247594492,-0.0590890055767305175105086,0.998167894188232263097404,-0.0787379529074147127554184,0.0984545714800399152100141,10.4229684835722924418633,0.124357790106381246864053,-0.101439582466238659153035,1.01753408772747944155412,-0.948005822404924591850772,0.807724662094588818916918,0.335920593249268484292713,1140.62446140293832286261,1153.49479855918229986855,1149.28967931316060457902,1118.06674224911148485262,-162.886311884904756652759,126.590847515490764862989,-324.071319169617424904573,153.552934653590256175448,163.592772920254532209583
0.147499999999999992228439,-1.72784844766038747643222,-0.537469731635825009874452,-0.4907902521425174802161,-0.124530254276039142879995,-0.174203766875803883751317,0.01930991451721490032023,-0.00788958816308436144959515,-0.0108084467499295084486066,-0.0590625727241727294103413,0.998166126844330037215514,-0.0800288292199527045989171,0.0986312966779793465210702,10.4192993935027047314179,0.123887125381444959670851,-0.101074289009441792286381,1.01898290595035900807375,-0.947778977096496610954546,0.807483215465192638582437,0.338469682719412912064172,1140.13780332831424857432,1153.45217758916055572627,1148.54148885790391432238,1118.39984300694209196081,-239.604568798313067645722,-145.879229070396689849076,-259.924907236927310805186,125.117904330499982279434,163.584810854426791593141
0.149999999999999994448885,-1.77787441052300509980455,-0.820858905086708667830919,-0.548499523336664962513964,-0.129640243969347895847122,-0.177331247335903219308761,0.0177191967072698047802604,-0.00806534942857397608995118,-0.010997759455733172734293,-0.0590497880304355071690026,0.998163306299845176638996,-0.0805731116720035528411259,0.0979718164938227498161893,10.4163655838194504354988,0.123396908827241802431018,-0.10072236195128890512418,1.02041747829234186184522,-0.947555384980458548227489,0.807241700426870156803716,0.34102612986847347098518,1139.42643855894675652962,1152.76540241383031570876,1147.99005477697596688813,1118.69233177076398533245,-260.11225435136088890431,-317.719607741082370466756,-124.049260518404366848699,92.5642697647616898848355,163.575260643525723480707
0.152499999999999996669331,-1.79500329213282072693403,-0.911344932371630611633861,-0.558032922694065125490681,-0.133774698942545899882361,-0.18026135721109182163957,0.0157309171679708842406242,-0.00824835093891515373776269,-0.0111862132425012191644376,-0.0590492475054800111666786,0.998159520191991722626312,-0.0802586043251968944689523,0.0965596257276418457049516,10.4141818966445693916967,0.122905717749930296078809,-0.100375026589656995978928,1.02183855574782289643565,-0.947334841697979102015381,0.806999942617074750295103,0.343589735980831867401264,1138.83724205655744299293,1151.86357955045514245285,1147.9212425553118919197,1118.86266435576590083656,-198.021471524907440198149,-376.765962640183374787739,62.9429220936798969887604,55.5331402502360518269597,163.567313973670962923279
0.154999999999999998889777,-1.8061881821366574385479,-0.849547278884468792803375,-0.509814988189028928111668,-0.137929075739971318537158,-0.183444838653381570026113,0.0132400129472337070579702,-0.00843830452530583419168408,-0.011379090455622142136205,-0.0590571505792556877834087,0.998154995079504780974844,-0.0790084566265896875991714,0.0944110642590161031062479,10.4127616550808390627481,0.122429732312973299501735,-0.100030399569577641005758,1.02324635201336544554351,-0.947117862739719762465995,0.806758167259285174921501,0.346159970190662802380643,1138.43633120132221847598,1150.88157260062939712952,1148.30476938744436665729,1118.96999747201516584028,-88.1451767420911949102447,-395.912646809210514220467,265.594091441061891600839,33.4630667037799582885782,163.559389544982479947066
0.157500000000000001110223,-1.83269375537753087535009,-0.618554832106816165904206,-0.384506756026417650939919,-0.142756736970197556368944,-0.18697543111776432356308,0.0104903462030525203296794,-0.00863291171297040499377218,-0.011580118921417390659423,-0.0590689127677323441711899,0.99815001843313166940419,-0.0767961158957483347453632,0.0915806376612136319170787,10.4121140555128768312443,0.121981343924177768056616,-0.0996831459042980122520206,1.02464223609306337436919,-0.946905286324179917833987,0.806516783814532178809031,0.348736227410396393278091,1138.39651617284698659205,1149.88401631640908817644,1149.24921301251720251457,1119.02997968928480077011,84.982205008463935769214,-306.959263735552383423055,412.555600029008587625867,10.5429185264256286558293,163.549917612634061470089
0.160000000000000003330669,-1.87720006887149559737793,-0.325264389429930744768171,-0.240607873181403975060277,-0.146406880359377988831682,-0.188747063915562396374526,0.00897745358618533967343112,-0.00882914012148460457252153,-0.0117903049610039774991455,-0.059082705749894701141578,0.998144735404909222431513,-0.0736674930177448755719283,0.0881325593369290671841298,10.4122433189125001007369,0.121567295539520225933217,-0.0993267648026296967600501,1.02602911590164125321678,-0.946697246558877769651019,0.80627664981288238443824,0.351316846289159823157888,1138.8612422263645385101,1149.34677628195163379132,1150.36754738758941130072,1119.02271206464729402796,304.788951076579621712881,-138.698809953802879135765,495.343418692663817637367,-13.5350947935421448420357,163.542063982742860162034
0.162500000000000005551115,-1.94982657383650304083744,0.0222195809218077439117778,-0.0921254650113123435550833,-0.14986657494528721201732,-0.18885073723088593999897,0.0085590244218230228379074,-0.00902608902120260493673332,-0.0120156519582680452323808,-0.0590972071835049669874529,0.998139172624990300697334,-0.0695734043610143210178975,0.0840930312147904757136274,10.4131496034905453029751,0.121204083555200473054647,-0.0989592604854698382199629,1.02740926809610133574324,-0.946493284845033366892153,0.806038921213545145327828,0.353899753829810481686735,1139.9204609282298861217,1149.19052226664007321233,1151.7259301059805238765,1118.96230421531708998373,595.364154103844498422404,12.0267872429394522271195,633.093875699659633937699,-33.4261609038548783701117,163.534261217239986763161
0.165000000000000007771561,-2.05558843833051207994345,0.439606043736882723393933,0.0409505614275914864297334,-0.154503493657726864718427,-0.187151682696158006002918,0.00947310242621179909860984,-0.00922179221326103679134967,-0.0122626714762948119119557,-0.0591110876373786287008016,0.998133351888110698091339,-0.0644635007237952112335577,0.0795131054662862324367012,10.4148264421070173568751,0.120907991285340229992151,-0.0985773482104604081843746,1.02878603121965106481639,-0.946292351177276613860556,0.805804654521752317108962,0.356483527221888196745425,1141.83806299688376384438,1149.40691021816633110575,1153.53301676608771231258,1118.855581260128019494,786.324260851824192286585,128.62702950842492555239,682.987964928315136603487,-36.9402001398611545823769,163.524967199459126732108
0.167500000000000009992007,-2.13501736528476238063945,0.750117323504115529608782,0.0829977528100900308061227,-0.159161078887570167639254,-0.184465761672057082520837,0.0111488885852565975526085,-0.00941812601245680877659616,-0.0125252726220877602658632,-0.0591236272989297539925957,0.99812736206687113771352,-0.0585496348421385565119479,0.0743520864191204444715311,10.4172597351974882684544,0.120668537116661228614234,-0.0981879539294411851635402,1.03016547210399966871819,-0.94609415104794081230466,0.80557450183296586132542,0.359066894060464270044264,1143.85208223248901049374,1149.83365741418219840853,1155.14086993062210240168,1118.77760321461778403318,844.995007280021241058421,193.573236128668042965728,657.745368949053386131709,-13.8057853581358234151821,163.517287097064325962492
0.170000000000000012212453,-2.16642608352189114384601,0.995258204964141302006908,0.0359325094989221410779479,-0.16494196863728255442183,-0.181114473513010215688368,0.0129546866512615255900842,-0.00961702722437500663599241,-0.0127985470426724926712447,-0.0591358558334843104065115,0.998121169788967366187649,-0.0520209823510556917947056,0.0685743235139356921425957,10.420428748805900198704,0.120476283041856563338357,-0.0977983071143675858349908,1.03155350611639184954527,-0.94589737926820383062676,0.805348210000146669251819,0.361649559377062113085799,1146.06303803328387402871,1150.37477639880967217323,1156.82174361083298208541,1118.78655233333734031476,875.905103800641086309042,215.526674985676237383814,678.549879848832802053948,33.4184632592041168663854,163.509682362849815717709
0.172500000000000014432899,-2.13025242536775172297325,1.18234145356881836796958,-0.0783463941121347318130574,-0.171503897453286313634635,-0.177811283050373636349661,0.0141767662468955373683555,-0.0098221404475721720700454,-0.0130771789300151829865682,-0.059145267279964039430773,0.998114943202555449097702,-0.0450694732915473544876406,0.0621166835877223558193272,10.4243066420291352613958,0.120318757193589601084405,-0.0974204050042537794684705,1.03295532744030760241571,-0.945700650663726771760764,0.80512507478720352072088,0.364233499214654865561158,1148.23160775149221990432,1150.9112907891105805902,1158.53361932986626925413,1118.94469553091380475962,812.535764325183890832704,197.517845992706327251653,679.132969275132722941635,120.618330514571312050975,163.502145707198451418662
0.175000000000000016653345,-1.99486245748844570613301,1.30964324616107541388033,-0.243685535789900042935585,-0.178229884126240661901264,-0.174639681351799858077811,0.0141645813166452159970188,-0.0100346320426669723124835,-0.0133540026589802716255884,-0.0591485188378482254489832,0.998108953148112987285856,-0.0379230660681233594511141,0.0549739984423885871822613,10.4288602690723610777468,0.12017756853172720243883,-0.0970617496949790631299848,1.03437612863942551832963,-0.945503949948770183731028,0.804904249223506229604652,0.366820795989238224166229,1150.12571685490979689348,1151.36236562877320466214,1160.21740845720864854229,1119.38964398591019744345,732.984680495477505246527,171.107097999493703355256,709.933764679502587569004,287.181568573670574551215,163.49469745320362790153
0.177499999999999991118216,-1.72696038368464255263746,1.41464690541494486630825,-0.447595149688432669687899,-0.185084073390264197689348,-0.170813938045087543304845,0.0127531815503275740286693,-0.010252436642610664521702,-0.01362322222590318758495,-0.0591421306502074167754657,0.998103496013618252113986,-0.0307773841800475893293321,0.0472195472384627015771663,10.4340517599593276543146,0.120035315249785251578984,-0.0967230770503552106376333,1.03582028431537209733904,-0.94530650849943531621733,0.804685446587786734617964,0.369412384828088691257619,1151.89653115396959037753,1151.76682627910804512794,1162.08328815326376570738,1120.38060337378215081117,558.796181118534946108412,126.169709120768530397072,639.174354031732264047605,451.223619896111188154464,163.485869374266087561409
0.179999999999999993338662,-1.44436075971197386280664,1.47886869527767039755872,-0.582875527087384992519503,-0.189095304927719531917774,-0.167689513531356831910202,0.0106717395600388776505385,-0.0104754287232312510991239,-0.0138871245248484743994855,-0.0591224539961261105758261,0.998098751364693059784372,-0.023647363351873239983858,0.0389064512306401752428364,10.4398413331207429166625,0.119890465778947297170731,-0.0964081508235453410460281,1.03728873569560509082521,-0.94510710518917606659528,0.804468626312799028887923,0.372009125650291871956199,1152.91969776050245855004,1151.9932141743770444009,1163.41328022736729508324,1121.64576208539074286819,330.367119035463190357405,67.9791273615136901753431,468.287978204488865685562,597.916427957852079089207,163.478609349072570466888
0.182499999999999995559108,-1.14637785302927897035374,1.5354265338958634767863,-0.645763247455915179173758,-0.191327934962922857620171,-0.164563683617619277432809,0.00805580952449026777006935,-0.0107006442417663556743168,-0.0141448244656406235675306,-0.0590919641826925870486953,0.998094610066018739225058,-0.0166084417449880276940188,0.0301514973735984639913177,10.4461869249993544173094,0.119735085435379140506029,-0.0961139191195214681595616,1.03878268926783134951108,-0.944905372025510281730476,0.804253739944563617036977,0.374612155233985333335767,1153.5483667491469077504,1152.10672191591561386304,1164.42472804428621202533,1123.37018551357141404878,222.198143702507678654001,16.5873544515306861057979,367.131591993119968719839,844.776248141260225565929,163.471455292053832408783
0.184999999999999997779554,-0.818148892519832249270451,1.60520835347184598340675,-0.616449863493328531482973,-0.192667232807230554003652,-0.160754624783373462060254,0.00497503963541751255406087,-0.010922491264651489409343,-0.0143935379025582899092939,-0.0590510022143460877597221,0.998091146739571666302027,-0.00976644724944618000672669,0.0211356572218276209107479,10.4530461068550355463458,0.119556606054345856970933,-0.0958324592740408542912434,1.04030353707638822946535,-0.94470064282323706894573,0.804040984903045319320825,0.377221191779094633389491,1154.03068847901499793807,1152.07615094663469790248,1165.24893818733289663214,1125.86964332609704797505,161.459328978707929991288,-50.0629331615072743488781,246.795376390536830513156,960.159850603849008621182,163.462998484042259406124
0.1875,-0.589077459906094613728555,1.66551916557093449000604,-0.504726788944566018280113,-0.193328265259514658902518,-0.157460950993900672401082,0.00291966424549208389271904,-0.011137485394043340411474,-0.0146308408038831778974487,-0.059000937312528783929011,0.998088351769502502008891,-0.00320648357933401781383331,0.012006641253014822823264,10.4603782010485399922572,0.119344292936826565365571,-0.0955597836277090467715922,1.04185166002979867627687,-0.944492971195964980957172,0.803830932930948982573227,0.379834924935799622680577,1154.3556633940404481109,1151.85640725010807727813,1165.65870492623889731476,1128.17098476659066363936,142.293701287962790047459,-144.555911432462238508379,130.408481539734452780976,922.438978878698549124238,163.456061294782159620809
0.190000000000000002220446,-0.411052178242117094431052,1.7190340407099609087993,-0.31701662190198021118448,-0.19403401748187848463445,-0.153858925175807903507064,0.00167750251409850312071803,-0.0113474550311375415451165,-0.0148535955992137036485445,-0.0589466517815233487231907,0.998085962344941624024841,0.00298639538344915370093879,0.002808886149406643328863,10.4681452204991654042487,0.119088489974954261918505,-0.095302060696891732760605,1.04342622285357866651623,-0.944285006415267469392916,0.803623504897433282856412,0.382453516988343955596008,1154.74215698545481245674,1151.3533713894723859994,1165.90098059503156946448,1130.48183822049054469971,199.029457073720379867154,-301.789719813541239545884,103.522905663157786193551,967.371632767343726300169,163.449241837259478415945
0.192500000000000004440892,-0.246372697475099267094834,1.75420935487265738927931,-0.0312005801578907754345593,-0.194962875512264877109203,-0.148831975117268755504085,0.000991168676734065657446537,-0.0115580228642521484067052,-0.0150615987879770037854987,-0.0588957827346552470482166,0.998083468463417111671276,0.00879975038861323735628339,-0.00648144099667714163048871,10.4763117966083871834826,0.11878837087717518394836,-0.0950721019873052713977657,1.04502479665082281812261,-0.944079805119618087339006,0.803418661767208219792735,0.385077444122720879970956,1155.35081067940905086289,1150.34745865104036965931,1166.17631945455468667205,1133.00784293042738681834,244.943879655056434785365,-438.266078489595713563176,123.294861246540563115559,854.465047363736744046037,163.441197696483271784018
0.195000000000000006661338,-0.139396944237006409350599,1.7411066599218940620375,0.23462510646275983039466,-0.195410640336078494927463,-0.143698756260650511995536,0.000925263464902882962724584,-0.0117751837366826903746864,-0.0152536615193859664829645,-0.058851249455920802422515,0.998080649725785473691531,0.0142072766509899091336155,-0.0158890813275893091893742,10.4848447091330996272518,0.118442192037753940558886,-0.0948841949383322502686866,1.04664511985690400486249,-0.943879629937191766408944,0.80321647180446453795355,0.38770747923071652296656,1155.96687638373009576753,1149.16204099702440544206,1166.51745490126427284849,1134.75416345730923239898,254.303305687608144580736,-533.9972315647169125441,182.80064591754108960231,602.77181430219513913471,163.434611981281818771095
0.197500000000000008881784,-0.0511628930288161795636448,1.67074967926333761703006,0.498554148042512523808512,-0.195097500575134169542579,-0.137997011245766409981428,0.00159672528953220833197735,-0.0120053936632920146831971,-0.0154294505268294506600268,-0.0588144549903745206265171,0.998077357513471263850136,0.0192033200908648012117386,-0.0254424788362193135538014,10.4937127022505976015054,0.118051409960640438234769,-0.0947533289668786304904557,1.0482849007910843841529,-0.943684550063762839222647,0.803016930465718981047019,0.390342992130603860800875,1156.62232720784709272266,1147.67747249321678282286,1167.09032268414239297272,1136.02170200193836535618,253.527008637365497634164,-622.799561538158172879776,278.276795239753255373216,424.92022570409022819149,163.428149936806107689335
0.20000000000000001110223,0.0340900898864415213829204,1.55895454019874413198465,0.734889513088216816960596,-0.194272596499805633163405,-0.132827353674114495563074,0.00316550701691293255579662,-0.0122506751549176871179947,-0.0155935170850443824419607,-0.0587860121819993863834242,0.998073466822589350222472,0.0238782830672864161691837,-0.0350687819331292408020495,10.5028857557314285742223,0.117628225036543382353571,-0.0946842082423303699201256,1.04994215547877245420239,-0.943493628564312403206316,0.802820028675560237729769,0.392983331248380696187894,1157.23451142691692439257,1146.04804318933361173549,1167.90883887746304026223,1136.87876458582968552946,217.824980848172145897479,-652.542654310399825590139,391.062563856439396658971,255.725910912178505896009,163.421791223973144724368
0.202500000000000013322676,0.141208316115791765454901,1.42646111302462141878777,0.905926564829579783477698,-0.193551974343719873639103,-0.129157769188775584101592,0.00596016948108545833312499,-0.0125091054135604926728087,-0.0157484791999642562143613,-0.0587650911375857329388417,0.998069015852765750729247,0.028274193638161294189759,-0.0446144038669768830396301,10.5123349065549014369481,0.117180865327923530716525,-0.0946731218725394008117746,1.05161679787454698242755,-0.943305878076465487147573,0.802625176126824824152095,0.395627524670031982534368,1157.71145211208795444691,1144.41475922166478085273,1169.04563550342459166131,1137.30033155649925902253,165.637719405140018125167,-673.350910246880971499195,569.26214967570513181272,116.106251207520372759063,163.415558413747021404561
0.205000000000000015543122,0.340574340768387884281765,1.29397368134995316424352,1.00441304847036483316458,-0.193621426231349702540285,-0.12618169303040452366993,0.0103627925650565284876325,-0.0127752791280961539716055,-0.015894505814065196941387,-0.0587509392191955942541526,0.998064119864171428453403,0.0323717999088438540544743,-0.0538581893223449362229083,10.522031905549454222637,0.116712504753236301358044,-0.0947085538557433659345719,1.05331067808860434631413,-0.943119943071908939380421,0.802431997507479510822748,0.398275116625049385721269,1158.06270002394262519374,1142.68128863809920403583,1170.75514962584156819503,1137.45929584186728789064,90.1624256475769527696684,-568.389284048634635837516,674.237757565651349977998,32.3504915533248720294068,163.408227534967039673575
0.207500000000000017763568,0.598068136832960450810504,1.23804295441220779672165,0.990215213710578523453876,-0.194223201547954582579791,-0.1243252860871570247836,0.0141021341425152033077772,-0.0130457912302093560763527,-0.0160298911135778564263088,-0.0587417636624028224878735,0.998058961362939256467541,0.0361079906349102280893604,-0.0626281273590421905250736,10.5319484602351387536601,0.116222803146389594419752,-0.0947828124883605960260269,1.05502624190999005904246,-0.942936252422723164556828,0.802240865244145728851777,0.400925552441298627126542,1158.16226424032583963708,1141.57281280142160539981,1172.41682429125285125338,1137.46208401426588352479,5.91118689303587441230547,-348.221971726435924665566,694.682780121096129732905,18.7164300870336752780076,163.402245354439543234548
0.209999999999999992228439,0.969659391255265123987783,1.26123023907226028406114,0.890276095600292194376379,-0.19439132133829112314416,-0.122559032530114464520921,0.0169980361525489537255496,-0.0133136710155953557482844,-0.0161529616708500599331355,-0.0587365171546866057794567,0.998053724517534379678807,0.0394076231105779800634181,-0.0706854588835321151485402,10.5420554841659477318672,0.115711473634862366255405,-0.0948796559167302683279743,1.05676704610999605549182,-0.942755608257523691762003,0.8020522391873625700498,0.403578314859528886060502,1158.09225595840780442813,1140.94017877946703265479,1174.22856352644703292754,1137.55287799230245582294,-54.7685221193662812311231,-153.948359279912239117039,803.352792405579862133891,110.663460164460559553845,163.396399835284711343775
0.212499999999999994448885,1.53069572151318999964076,1.3818889690806606118656,0.708711274950035940989324,-0.192597090643565227452427,-0.119868071020472338750196,0.0192255385347883042679307,-0.0135742351204761902555562,-0.016268601015414104610235,-0.0587306560641844624393038,0.998048662731707447726137,0.0423290344179165084481653,-0.0778411404019888897298785,10.5523217633697559136863,0.115191975107955910107016,-0.0949865163508497728495072,1.05853489728830485461231,-0.942578897772257229270565,0.801866230751574704527229,0.406234744364102562386165,1157.8884216297290095099,1140.80307100502204775694,1176.43358825328073180572,1138.0154013150881837646,-79.5627549177424242543566,53.5476227120852357188596,791.252236775425672021811,255.703148648717387914076,163.389550520579234671459
0.214999999999999996669331,2.05717131053977952959144,1.54615139148265723356701,0.537579452452077610757897,-0.188813167666126990873465,-0.116818299906524078468628,0.0201831183984328664526853,-0.0138263398848449854672271,-0.0163805987381118803303259,-0.0587214065759410347444813,0.99804389819113348281121,0.0449045090755830073048216,-0.083996186606257738915815,10.5627134592835698612134,0.114676169805762201425736,-0.0950969857282807778942058,1.06033110044655010106851,-0.942407164638069727580216,0.801682499940506221314251,0.408895636519910954387313,1157.69444218381909195159,1141.20791689302745908208,1178.18482471032416469825,1138.83139373554604389938,-61.2093575210109861473029,258.178802080692321396782,657.448657194481143051235,427.118658122162344170647,163.383986907266461230392
0.217499999999999998889777,2.58507780802975073441985,1.74957823627277031519611,0.378269199758660801258259,-0.182660311775732248085191,-0.11263939294759449383232,0.0205100816938511877618456,-0.0140672923037209844643325,-0.0164887800532474426695728,-0.0587039719752135286112704,0.998039760938351006025471,0.0470755337835084136655084,-0.0890395039777288621607454,10.5731943376227697228842,0.114166559875775966426126,-0.0952010692687184495452968,1.06215804389997758860886,-0.942241753581198882017134,0.801500617882273447278862,0.411561132083415825988482,1157.58237484212395429495,1142.09396501542551050079,1179.72083153925314036314,1140.15099460569899747497,-5.71052224959202625598209,474.841474387812525037589,603.259376259983923773689,678.784461494478250642715,163.378581815926537501582
0.220000000000000001110223,3.15242456661351067026544,2.00603809847705250035688,0.224690694014681835444236,-0.173328798904027914229431,-0.106530918400255122935327,0.0205146726052301935083744,-0.0142933798844376968445458,-0.0165912499749653712111108,-0.0586755421070086630175311,0.998036510761076356423871,0.0487419930687610220010342,-0.0928593920266078676206689,10.5837256454459947008218,0.113661142867974879200332,-0.0952851931736689028440423,1.06401858739221810701281,-0.942082276930759854316477,0.801319517411620774183234,0.414230926282113220970871,1157.66588957257113179367,1143.58212426496652369678,1181.20112159162408715929,1142.22531604301843799476,79.5921230115708766561511,591.279527544110692360846,472.128577816010476908559,812.241087064148132412811,163.37229055363835072967
0.222500000000000003330669,3.53131706546783918909682,2.21225913339498569953889,0.135227846158735010018148,-0.164599395661877645480331,-0.101114263748641616813551,0.0203908113273681863841791,-0.0144993462608147931358626,-0.0166848846159359867624694,-0.058634587788942545139026,0.998034376996900451928241,0.0497748336711186373237936,-0.0953330320393976082815612,10.5942663278655384573312,0.113153632552103755593009,-0.0953312509223917525780223,1.06591604504599302138956,-0.941927231542130205532715,0.801137072143664363821358,0.4169052016822620276848,1157.9803354571818090335,1145.05036265314606680477,1182.08147442833319473721,1144.21220004101974154764,178.373427255519175105292,602.451878459123122411256,276.057588015464489217266,804.508938022990378158283,163.367218512941320796017
0.225000000000000005551115,3.78122359295752197283491,2.39835948742056803695277,0.0837095134365049287072935,-0.155306535714145599325064,-0.0958070507791587699930602,0.0202993392928751889559003,-0.0146823146624006292682019,-0.0167726027254636381180752,-0.0585858340762811583002367,0.998033086469404473461964,0.0501772965352635796909553,-0.0964026431460660027106258,10.6047723753708762473025,0.112649784797957369653076,-0.0953234025425566955380674,1.06785178492389509763427,-0.941774391430878821118711,0.800951851896157807075838,0.419584119167512148429466,1158.55775670884872852184,1146.59438365726214215101,1182.58140953170141074224,1146.24786073313339329616,263.368693536858472725726,608.560894722176612958719,141.679450535275350375741,792.627511002773871950922,163.362332469588068306621
0.227500000000000007771561,3.9093354767145918060578,2.56040298687743339556278,0.0563143096132225073890964,-0.145593274532813038435464,-0.0904173843318912123789843,0.020316681378335383484357,-0.0148387224533524774566784,-0.0168603154728137680229416,-0.058533014198727216503837,0.99803238733891486145211,0.0500218553750936684165751,-0.0960124735619879154935319,10.6151979443435191541312,0.11215926805291781542806,-0.0952438589749755315505553,1.06982648117875012161448,-0.941621836639770726229415,0.800763960502909100114266,0.422267601654145896539205,1159.297178924866102534,1148.09316712675695271173,1182.78987168100957205752,1148.175337596033614318,307.779664416738967247511,569.875303569142033666139,25.0021850378288732485998,720.435125670155002808315,163.357606405795451109952
0.230000000000000009992007,3.88127310592245855502824,2.67950041720688902913139,0.0454212685765631590806279,-0.135370727116613076557172,-0.0843479142860883296384245,0.0205251713851684579326129,-0.0149686387293443481927291,-0.0169570527090796840941067,-0.0584801290124497830102968,0.998031907594829403862491,0.0494616698028052664826149,-0.0941996712767785293607403,10.6254957567429393350267,0.111696879106274460369264,-0.0950824467654591831689004,1.07183914151065962094833,-0.941467580242103863064074,0.800574556230976397408483,0.424955067706476230515733,1160.09665503093242477917,1149.44376017510785459308,1182.70642045689055521507,1149.8500363614841717208,322.464947259322514128144,548.267502277257790410658,-85.1331633268727472341197,663.906061649094567655993,163.353079173579118332782
0.232500000000000012212453,3.66999463908057510508343,2.74865651606118888139463,0.0349922708796056580737854,-0.123044788066266938542093,-0.0758112557268569298152272,0.0210167968152577856744134,-0.0150775247908423171150361,-0.0170603442729552849665975,-0.0584286004937047687146645,0.998031538205600199376022,0.0484260630759856675053854,-0.0911475096603349688173523,10.6356192478581643712232,0.111251412592709486570897,-0.094843345160901329493619,1.0738897079919442756335,-0.941310320799945032810285,0.8003843540999472372377,0.427646119102876476336661,1160.90950366116271652572,1150.83450463814324393752,1182.36420586437520796608,1151.49486790427908999845,244.93407043887577856367,471.901427337115421778435,-151.91318822544403133179,541.930362416951084014727,163.347882723682943151289
0.235000000000000014432899,3.36349634742077840954266,2.73048711976375946264284,0.0194028685671784502375647,-0.113449097430873543923546,-0.0679954813776767891253527,0.0215773019369848162440917,-0.0151721565247103333529122,-0.0171605741996687516381925,-0.0583768845139404080057943,0.998031447360509860189381,0.0467092162797048821021306,-0.0870910096600002459066303,10.6455241336735735302454,0.110794890660530206960566,-0.0945362540830470970965038,1.07597870030655595741109,-0.941149729591435058040361,0.800194306735168781052892,0.430340306118316084926789,1161.32132538312680480885,1151.80326731179343369149,1181.94685451576333434787,1152.55968817356892941461,90.1946256915379365182162,356.86779257744058213575,-180.906471866364711331698,369.755213536427277176699,163.343752938885131698044
0.237500000000000016653345,2.96279800899519463186493,2.63259008626663160157477,-0.00738208395148044413391908,-0.105493383469338494751177,-0.0607085615287033253384408,0.022099195600318487925362,-0.0152607733665279937662618,-0.017249780870121519255056,-0.0583263646384670833566766,0.99803158430390137567656,0.0441571003118536170584107,-0.0823076379625671816775423,10.6551692486178311014555,0.110303086318048415570559,-0.0941747262187689754275866,1.07810503201056362421184,-0.940987177690667975227257,0.80000487953315879696703,0.433038780611133433673388,1161.36047678962040663464,1152.6188436010304485535,1181.45967350504338355677,1153.34364397196122808964,-63.1225277557408119832871,341.40324667537402092421,-221.826478896856428946194,293.642308162272001936799,163.339834759351390403026
0.239999999999999991118216,2.43775003890802421935291,2.44444419703272197708088,-0.0466300232119843532929693,-0.0983695929718268330388398,-0.0533999541307087072228299,0.0222627642102721304273594,-0.0153525478005329223119002,-0.0173223189449195798250702,-0.058274633016697371945547,0.998032067255221866375337,0.0406828617084711713358658,-0.0770992001798541937152009,10.6645180701596586914093,0.109756519087010284696504,-0.0937763262424922416915507,1.08026577225758613209905,-0.94082399683482942354118,0.799815903044240328334524,0.435744108862110901547737,1161.00571274434810220555,1153.51028354517029583803,1180.83772212127905731904,1154.02789971438028260309,-173.323999532250013544399,328.285202883536555873434,-233.199020219218425609142,219.486133820420150186692,163.335380236924066821302
0.242499999999999993338662,2.01015850074233748401298,2.2509528330726893408098,-0.075968999038812587420999,-0.0941935165468878593530988,-0.0481806029138467165062742,0.0218855968147633923870377,-0.015447593484083338433166,-0.0173759190817590336575194,-0.0582209658961338610838609,0.998032992983850397727963,0.0362754063458300274325197,-0.0715748562300454471696298,10.6735406475280338867151,0.109142934270488239922869,-0.0933400237400817123223362,1.08245795879234019132298,-0.94066088557524851765379,0.799627081878026335637344,0.438458155189587028832676,1160.49385679195916054596,1154.26026961544812365901,1180.29367840394729682885,1154.44107464106332372467,-205.50092709613619490483,320.551230924411072464864,-225.940870128033367336684,146.396195493116323405047,163.3318754348389632014
0.244999999999999995559108,1.63456507581322174615934,2.04269243552036794397964,-0.0909996978616464113898132,-0.0913573674511443112322695,-0.0433993733182501811862508,0.0212764263816900382753072,-0.0155467742673931607483295,-0.0174086596635348866968229,-0.0581667395554069099894434,0.998034316557066647490615,0.0309455458871443662982603,-0.0658588268689360156749046,10.6822137351929455917343,0.108452440517322751256657,-0.0928678094528260777984485,1.08467757917908946829755,-0.940498037070091719158427,0.799438593566700772541367,0.441181314116908973588238,1159.97820810886742037837,1155.11303969979235262144,1179.7080177706388894876,1154.75988069184586493066,-173.463968388432334677418,417.507477591925237447867,-269.982271464141149408533,132.870633337597496392846,163.328586637100443113013
0.247499999999999997779554,1.26469525858102760373924,1.7953763346661273381244,-0.0866072268602603445586396,-0.088751807795299425540847,-0.0383378948656669105155004,0.0206052694025121094223429,-0.0156524147454249855371256,-0.0174245667473197050900691,-0.0581159041714988111593243,0.99803571265830404168895,0.0248437926267470916841251,-0.0600944063562555211288618,10.6905211003115994117252,0.107690145457437352893848,-0.0923656990564336033422421,1.08691878836599298274734,-0.940335649836027576142783,0.799251812421589158397239,0.443913656096632913694577,1159.62653695001699816203,1156.34780700340775183577,1178.94376704662658994494,1155.10542780775131177506,-55.4914310615003572024762,498.516133237216763518518,-286.762882947777825393132,128.623323850979318194732,163.324890060769888577852
0.25,1.01975164931500406062526,1.60117778046700842686789,-0.0652369082161568941691243,-0.0865842400164526515560226,-0.034759969460247924777363,0.020199429258298113448733,-0.0157677550249665406056909,-0.0174279002290368377481311,-0.0580731254714689781870618,0.998036788711863742662445,0.0181354658142407650089911,-0.0544347183687661842488303,10.6984540459202985829279,0.106863745531344755956837,-0.0918437983659575046813117,1.089175766254611099626,-0.940174455012899978889607,0.799068811182799376702235,0.446654311659507141651915,1159.70075095355991834367,1157.60562036597843871277,1178.27420335589999922377,1155.40299731110076209006,116.277871992724513461326,561.487943345036455866648,-258.828592445251842946163,126.0273577508540938652,163.322017632834757705496
0.252500000000000002220446,0.820347604467915880732676,1.42405606193236566880955,-0.0313892996794882875311039,-0.0839170311326715434585566,-0.0314004177952895563441515,0.0199870159215368228822207,-0.0158907456982069969497751,-0.0174250900331115211872035,-0.0580418098513170999108723,0.998037255424825353600227,0.0110315322556450053081978,-0.0489033522582078342133549,10.7060110500975884662012,0.105986859070456837517149,-0.0913027947160594682829426,1.09144403419505953145574,-0.940015441190371170421258,0.798891367549492859012616,0.449402406721896963137652,1160.20792630998062122671,1159.15524672013293638884,1177.64962408440032959334,1155.73556459650558281282,261.660044541122033479041,676.292625708992432009836,-221.59227402903505321774,138.526734775677937250293,163.319360317421001127514
0.255000000000000004440892,0.642510950338881059451523,1.2600529490677654376185,0.00628156999482376837001807,-0.0810042188143822033952191,-0.0280871485532019071751364,0.0199342175753428295370551,-0.0160204556444872199538754,-0.0174204775674878069302576,-0.0580209213681065066881004,0.998037078373542718701117,0.00370329911130200598035067,-0.04353210377033942674041,10.7131965573789482704115,0.105070109231459971055322,-0.0907485908969381249722375,1.09372041648983664430261,-0.939860039790360479727838,0.798721201771571798211369,0.452156326265963637300871,1161.00905117626552964794,1160.98708349452340371499,1177.16624198575482296292,1156.09563098497915234475,355.070727760721297272539,809.568266028463085604017,-127.63336480570603725937,146.840681365165295346742,163.316880377928782763775
0.257500000000000006661338,0.483594862886843279703442,1.10969335631016097210022,0.0397756434641658579431933,-0.0785312122482070412710087,-0.0251346878818193772420209,0.0200713040626751687556251,-0.0161511618921257073255848,-0.0174203032530336129890536,-0.0580089339855048499727808,0.998036263337278350959991,-0.00364405681319733207312872,-0.0382292578574151900583367,10.720019635970659876989,0.104129508819894162074959,-0.0901775648602601148651203,1.09600355079815869885351,-0.939709568838688169556406,0.798559681575736091119211,0.454914018400000175201825,1161.98327994878422941838,1163.20308805027525522746,1177.01145726037179883861,1156.4697680033314100001,409.985616866833538551873,1069.67346211340463923989,45.0409813930036335705154,162.884697883600750856203,163.314612658138173628686
0.260000000000000008881784,0.328212594620936992662052,0.94474755343109317884398,0.0645332686366699437297001,-0.0768984195775400114492015,-0.0223934596554483736352559,0.0204560863879340408544305,-0.0162803922608750276102008,-0.0174286358740751018414628,-0.0580048268344026743403852,0.998034732716957417864023,-0.0108516615605703352354094,-0.0329565948839575864615092,10.726492360464545683385,0.103178300549321796952817,-0.0895936869337286972969636,1.0982930657018910025613,-0.939565256143091831475544,0.798407633891344281629188,0.457675035849831712830849,1163.058979260599699046,1166.33545080509043145867,1177.39144689271984134393,1156.91005447439715680957,338.598452468340553878079,1224.18836524402536269918,248.341363286044497726834,158.898476450849415186894,163.312134061056980272042
0.26250000000000001110223,0.248970246138325856932738,0.81992364932873318394968,0.0664829946709704355800596,-0.0767634694337593209700898,-0.020728860932109197112716,0.0209478986272050721195725,-0.0164012001525753146891073,-0.0174473758981301893533633,-0.0580081888001688847356085,0.998032435803684725428297,-0.0178189295982410338126112,-0.0275652614011049693076849,10.7326281438189692352125,0.102225354445304714157139,-0.0889906574083862561552749,1.10059079592033981498389,-0.939427190680900414676557,0.798264094351723074716176,0.460439063544596738353221,1163.67627221112593360886,1169.3240298764953877253,1178.25316407680202246411,1157.26426038558565778658,156.088007838070410571163,1257.44404980659851389646,451.528675009603432499716,142.259547996036303629808,163.310268705747631656777
0.265000000000000013322676,0.245357914252686937217618,0.702858558704054559029828,0.0465502287082946095142511,-0.0776518226895422242206379,-0.0193088405116408276529505,0.0215414120799238273384901,-0.016505917245694501360731,-0.0174741924978575255411606,-0.0580172567605076947017118,0.998029516854320952745638,-0.024543967208743699276452,-0.0218801659687489005734484,10.7384400650838660595809,0.101270047169692956057219,-0.0883597734010216906419544,1.10290009302888125652942,-0.939295188557928817374432,0.798127598326105358594873,0.463205744904703675679514,1163.8394192997900518094,1172.62267105412342971249,1179.64909026776786049595,1157.62135221437733889616,-42.8327452372286288095893,1484.83894413929965594434,698.969011487860711895337,167.440064876245600089533,163.308608883802094169369
0.267500000000000015543122,0.33450495442081162877912,0.556696247941838251449553,0.00282010168480251004197168,-0.0788153835013509634910278,-0.0173508167478308716891178,0.0221208101452260302854924,-0.0165917824678158895568281,-0.0175135924853914021204204,-0.0580295248330626664556853,0.998026228014376792785356,-0.0308800673860417478067131,-0.0158109077157603597485469,10.7439406929607237373148,0.100326758734820664642484,-0.0877000392840320414089561,1.10522223163171906534785,-0.939167450041124340920362,0.797997262996849254790277,0.46597463708691194694822,1163.46210848493979028717,1176.74822459719189282623,1181.74800913424132886576,1158.10146070996688649757,-220.35718757379052590295,1499.85577522092944491305,797.402755925985957219382,195.204553809116816864844,163.306852632674861069972
0.270000000000000017763568,0.46910979433852056930121,0.41776605065449851084125,-0.0398960741474793725847015,-0.0786745264107413383447565,-0.0154166631284903803827957,0.0222238675845749973636334,-0.016657568766956083045061,-0.0175622503181168190811157,-0.0580420182124850372873404,0.998022975932917222330332,-0.0368540849928121055922858,-0.00930279809920753902874324,10.7491406220814447181056,0.0993916831081296664462954,-0.087012091032686506020255,1.10755944182792531726989,-0.939043434043396074706322,0.797872023421847598179113,0.468746708274297596563684,1162.73763336192109818512,1180.12194993022808375827,1183.63610404739779369265,1158.59737498342292383313,-338.555149470903131714294,1275.90863411637542412791,729.145856991635127997142,233.471252794242701611438,163.305584178354791902166
0.272500000000000019984014,0.624914685363780031401859,0.253771974890258267265608,-0.0721815516801626033682737,-0.0767622669581081579215365,-0.0135733970190372917746791,0.021856328950241539488264,-0.0167019983331845103813329,-0.0176178496165935311035255,-0.058054897831563812005129,0.998019918280909523744526,-0.042479506052313917296992,-0.00229918319526981745903882,10.7540485440498159164235,0.098462268881464004577353,-0.0862925566293481910440377,1.10991307642411896061674,-0.938922083023989051397962,0.797749519685309715910648,0.4715236869183309087461,1161.76933273758527320751,1183.12776776777377563121,1185.39373841919950791635,1159.26881697393810100039,-425.903840248747258101503,1164.02745660220602985646,691.881702008594743347203,353.117669370703538334055,163.30451719450431369296
0.27500000000000002220446,0.786350360898280364985169,0.0386131657932119592979703,-0.0801382036443696599281594,-0.0732014973949619562887392,-0.012218730007453904376491,0.021120011276639445024772,-0.0167315185040051647713533,-0.0176748294362939033230742,-0.058068808327168423832898,0.998017071766819641176482,-0.0478357158426966494468857,0.00508186969914569547368544,10.7586715997027297930799,0.0975282556476519402188785,-0.0855521780344477705826378,1.11228276658512514885047,-0.93880284522318957485254,0.797625885574194226634859,0.474308750235002740680557,1160.60811416067735990509,1185.94208721323911959189,1187.09551255744077025156,1160.3629633302764432301,-384.170257934647111142112,855.034931556928427198727,534.620187277550485305255,457.904644113159122298384,163.303469048636372917827
0.277500000000000024424907,0.876409864269469873754304,-0.135259054787279175968706,-0.0520745931236533954322709,-0.0699272961274842314027822,-0.0122342607840097705729221,0.0204796277243791853550636,-0.0167531045251586609146077,-0.0177274587797862336058241,-0.0580811571336308229973611,0.998014606192473840984292,-0.0530078995099963895532014,0.0127024147334488454741397,10.7630155167317163034113,0.0965771018237401024375544,-0.0848003975847516494601663,1.11466730209468378731685,-0.938684967395112423993453,0.797497980829715458206408,0.47710399500824446361591,1159.8484814479120359465,1187.40294242555842174625,1188.06683935558726261661,1161.5583401945038986014,-220.726890960758993287527,371.735223165705633618927,291.065813586055526229757,538.116879536800752248382,163.302788961683205570807
0.280000000000000026645353,0.914456042658640777531787,-0.271538058516756719562579,0.0151753491582310856555793,-0.0668773398894504239597936,-0.0134027713793447491447131,0.0199592768275038932868082,-0.0167708095981347095337899,-0.0177710827750399875946119,-0.0580930654675998123237513,0.998012483567139785378686,-0.0580660162883205460682134,0.0204724121197168637542596,10.767084585738661672849,0.0955975261010300197961342,-0.0840371973131522481681444,1.11706545711348881333436,-0.938567162935137200285851,0.797364583912404389920425,0.479908184385595237841926,1159.5044797058735639439,1187.80076332906764946529,1188.55084162537104930379,1163.05354772796044926508,-50.2349428416891470305927,-14.3607434165914913393181,121.718593788364046304196,638.945339590827074971457,163.302309702692070914054
0.282500000000000028865799,0.919205855499816593123796,-0.355855414340348563673189,0.11129768808994533468848,-0.0643898052180447155734555,-0.0151021579368592322872855,0.0195936587363067897527014,-0.0167869089252740272266706,-0.0178068814669315768350888,-0.0581069031229139026928365,0.998010503245017832618657,-0.0629588139426126430775454,0.0283291733833119993568594,10.7708824498474413644544,0.0945904030523100625149624,-0.0832564432198390214079353,1.11947540377082965790123,-0.93844953878820325243737,0.797225989119316191811038,0.482719540071550712312387,1159.59730673370358999819,1187.33113870847546422738,1188.67543232452908341656,1164.75306689245803681843,148.970784312314066255567,-363.852634602289640497474,-18.3837293127453271779359,705.323836699061985200387,163.301996843624380062465
0.285000000000000031086245,0.904683812224904015941718,-0.364531483582877735560857,0.230341783980341024973271,-0.0629829764284457332967904,-0.0169452470199018961904969,0.0194830343627491915647898,-0.0168058092445579725093818,-0.0178320611406427784184636,-0.0581232220762277138059737,0.998008595827073019535192,-0.0677173802560733090194489,0.0361411786143171417928777,10.774411523082511266125,0.0935475090706666678741499,-0.0824575252936673580572702,1.12189609684520896770721,-0.938332739518959568769674,0.797083267633923786554817,0.485536981789840282885962,1160.24933362743513498572,1185.9815001560561995575,1188.45892297880732257909,1166.58016691145576260169,403.96707196491627200885,-726.994723439519702878897,-149.183749818575819290345,788.910218220961951374193,163.30188346326650616902
0.287500000000000033306691,0.88614125498062357166873,-0.289538098723408854340278,0.374264787994744274612913,-0.0618811555325429613061416,-0.0187464298168935721011774,0.0197919166922591906188078,-0.016834930666276230054601,-0.0178441794460891742235553,-0.0581393894402190969383781,0.99800681662642265479235,-0.072359855313604212745382,0.0436952693821627477510638,10.7776738225225034994992,0.0924615652781372032720242,-0.0816480685706753445129991,1.12432642004935989810122,-0.938217721837513174421019,0.796937560859487525988243,0.488359591755934074885914,1161.61714209352817306353,1183.69616509127786230238,1187.92951357543620360957,1168.6976179835628499859,575.227734327205780573422,-889.005455848300698562525,-223.077097883654005272547,726.25252659882619354903,163.301975029246250414872
0.289999999999999980015986,0.871090550237996308347022,-0.16919530179168773553755,0.46952895401730315727562,-0.060441064432340228795848,-0.0196847808794319983904941,0.0205759400837116947224903,-0.0168825632711725633072763,-0.0178417697929617279084535,-0.0581524081497577921551212,0.998005210282371213459385,-0.0768820088694268238826979,0.0507435634873434557312599,10.7806709303427403767728,0.0913280947231010914455496,-0.0808395776759480433337757,1.12676539143174325730001,-0.938104793332012909523598,0.796790900678367552956161,0.491186132352249282817525,1163.12547229907113433001,1181.53647287681474153942,1187.34353748938906392141,1170.21142954444985662121,635.309215822241753812705,-850.540909265063874045154,-249.486444577408121858753,512.585958881168835432618,163.302237776490756004932
0.292499999999999982236432,0.842271736529676018356838,-0.0136732973577127145392573,0.503087152224871880790147,-0.0580204370627982191077621,-0.0199669352082843115647748,0.0221164014956754945151474,-0.0169522655519979970062394,-0.0178267802437013407612643,-0.0581592365130899277558818,0.998003843804881607404411,-0.0812125048937900467782569,0.0571298321904421466110868,10.7834034179645268380909,0.0901504806832231636581909,-0.0800351115897205978022555,1.12921247338052199715719,-0.937994040166486797716061,0.79664640259176444647693,0.494015393349679310386335,1164.79368817263934943185,1179.44346054495258613315,1186.68208135254917579005,1171.26054777796866801509,706.937161344421156172757,-849.496519964667754720722,-298.287399580158023582044,327.502042865898772561195,163.302688921707840563613
0.294999999999999984456878,0.772403709625127277149659,0.180061999697914976170665,0.432074512285976375380869,-0.0546937186753813711637129,-0.0195411847816016476242496,0.0249562310539616361015902,-0.0170421684191193398283382,-0.0178043661396453459233591,-0.058160422744554518548199,0.998002610347799912204891,-0.0852211440892251675949254,0.0628062048592940014302144,10.7858706728804332186655,0.0889400539424024111356815,-0.0792274379895113040062071,1.13166732903902156337494,-0.937885607115780617348832,0.796506477476116692137964,0.496848344067107261512461,1166.66015810579324352148,1177.28899027699139878678,1185.85210049148827238241,1171.8489397587793519051,616.135379017031823423167,-707.689364643419366984745,-308.944555295420002494211,107.084165468449910463278,163.303440571673093018035
0.297499999999999986677324,0.67929797601708497012396,0.323538125509629403975254,0.262328163904485045510029,-0.0521070774724899307694947,-0.0185603939753097267606474,0.0279656396673709783939898,-0.0171497743865705008781131,-0.0177770992625551176036236,-0.0581555868598933531354866,0.9980015174087143448034,-0.0888363266417459968016246,0.0677299742851569241963716,10.7880711059508769267268,0.0877031368381556708513358,-0.0784111446625574415314475,1.13412958731308743942634,-0.937780183067105976846278,0.796371948067653656622156,0.499686968598428038479398,1167.87436506772451139113,1175.90501372173548588762,1185.13735857607207435649,1171.79596860531091806479,374.795801718573443395144,-461.329654349355735121208,-295.359815799428986338171,-100.178228969843900131309,163.304235631547697948918
0.29999999999999998889777,0.557766392508644681669239,0.424585861540605347119737,-0.015051282442818059159606,-0.0498309936237960743321551,-0.0170115978560856848100791,0.0307721093868110057156784,-0.0172699490828920193541407,-0.017747608169248422355091,-0.0581426829846361445386371,0.998000718443922574252269,-0.0919915882001376000731696,0.071915579981253280328346,10.7900025287637557624976,0.0864466109122811049436663,-0.0775775059291216595447338,1.13659851582339976872049,-0.937678873566263004768473,0.796243870326239444601413,0.502532315645393912184602,1168.53413711438611244375,1174.98234200524461812165,1184.37530141249112602964,1171.34804861393013197812,145.800212491394489688901,-310.320520819095406750421,-354.734903312100527728035,-221.323082317576137256765,163.305196755288648091664
0.302499999999999991118216,0.405722157370152325395196,0.480231467144377588418536,-0.415015032248763737765529,-0.0477122155542495790525592,-0.014857156613641592235453,0.0319242390935915235083975,-0.0173939957805356835984778,-0.0177198557454377979281102,-0.0581161643059929511334616,0.998000611675065818495511,-0.0945993502016515414032582,0.0754621881735636490518004,10.7916625503631848914665,0.0851803578527821625421268,-0.0767119479766899120543044,1.13907298186135386153239,-0.937581692595803151135669,0.796122604873758854537869,0.505385629200992392284775,1168.60336613018148455012,1174.35341111764000743278,1183.36368405951157001255,1170.68935319372303638374,-85.097480924287012271634,-165.501719540543348330175,-390.503013959550685285649,-209.365392350582425251559,163.306530756656030689555
0.304999999999999993338662,0.303537443901533199319687,0.469382768065945699120789,-0.73420518464630812882632,-0.0470346160478693278705897,-0.0133800880236636266645833,0.0299652945756885141781467,-0.0175118506253474359724009,-0.0177013323853836279653251,-0.0580752582042887294244693,0.998001278846570527569781,-0.096506772218152278575154,0.0785085507111511204936249,10.793049867749633818903,0.0839233390119412669960752,-0.075797107723933998535415,1.14155094006443302845355,-0.93748817237751402853263,0.796008978034023484404713,0.508246373951285690395707,1168.10864970976467702712,1174.15483340754190066946,1182.4227863426933708979,1170.3012216521772188571,-279.561539001769915557816,-30.5383857118158346111159,-391.797633516261726072116,-76.395120857523508561826,163.30778504123125571823
0.307499999999999995559108,0.265937031865256079399273,0.404831653692611426187398,-0.948166134596773124698643,-0.0476901288075957593970422,-0.0126991435056554129168216,0.0256310569567763379961178,-0.0176159368005275526747333,-0.0176931426236787946171258,-0.0580206412729567244657147,0.998002787626856679992216,-0.0977035309391982714766201,0.081143308033819389057939,10.7941634726158302015619,0.0826808724673049888487242,-0.0748228702790690036739107,1.14403066806650377529309,-0.937398830866156829166869,0.795902668528276291404211,0.511114869911770575150456,1167.20555843517263383546,1174.20071918908092811762,1181.40469589193025967688,1170.30737758943541848566,-394.35184423805333153723,47.1922842977619012572177,-407.764925404171322043112,78.3847207710095261745664,163.309178726593529518141
0.309999999999999997779554,0.3025566551557122285665,0.30030410022415610082902,-1.02425974107299277982008,-0.0486972454956048975138749,-0.0122150995395810518101554,0.0206155847825928752181657,-0.0177036982780521129354767,-0.0176976047220817091221168,-0.0579566153940099040853262,0.998004887073075330761185,-0.0981568458413907968251877,0.0833613613660497132507032,10.7950046893871167696943,0.0814622267599733884679836,-0.0737904117595165470744334,1.14650942364364594183712,-0.937313699287230739365384,0.795802755710185882875862,0.513991520738431573178673,1166.13689048857440866414,1174.39079482903071038891,1180.38396171567251258239,1170.69314525603226684325,-422.522867632960299033584,102.529178884333219912151,-385.197513307093345247267,226.252459831039033133493,163.310682191671276086709
0.3125,0.431334539300767483283039,0.147940707186203862510965,-0.910320303603438185646723,-0.0490639301250518911068355,-0.0112653868138715418378837,0.0156341831104932077467495,-0.0177771330667721230711642,-0.0177176329319823876173867,-0.0578854320724926582619752,0.998007357379593340596102,-0.0978221596253228548034642,0.0850786238121439275516877,10.7955765787834163660364,0.0802782869206445093279712,-0.0727115810935033690665108,1.1489839937370356359736,-0.937232334409402567665381,0.79570864278752806431072,0.516875943491441502963823,1165.09294409700783035078,1174.71336508350259464351,1179.47870832539479124534,1171.43863988859061464609,-403.31517025188043135131,172.34882344896490735664,-336.184574070693713565561,355.556428806539429388067,163.312311748999405836003
0.315000000000000002220446,0.667982014506630306094337,-0.0882333863510187388357053,-0.575246729713875248890531,-0.0482268593451823796014466,-0.00978424448412784121542618,0.0104913395434896063174168,-0.0178432342109526853590751,-0.0177516074024255329777411,-0.0578095280064875802206181,0.99800996113704032453029,-0.0967542788650662538563196,0.0861158515940345647976528,10.7958823130607672879933,0.0791298862915756490155061,-0.0716100848388454835902195,1.15145176642839852654276,-0.937153965242008779590321,0.795619770409267124122721,0.519767572187577964193395,1164.12031463731500480208,1175.25253894627553563623,1178.70303884531904259347,1172.47092740006496569549,-285.122810661777975838049,230.568657084995521699966,-208.575113216556729867079,353.983020379154936563282,163.314405817804868092935
0.317500000000000004440892,0.902884958133311599226545,-0.316844759611741910720895,-0.182728752369525127008387,-0.0464810399235656632188629,-0.00921604731901679019578921,0.00793411429643555571322722,-0.0179059887091494486510701,-0.0177986337475984669753704,-0.0577303802996457227081351,0.998012559618513095394121,-0.095002887376463632240764,0.0863784886324620304609567,10.795923068786565934829,0.0780185537814170743109443,-0.0705023044717426744520949,1.15391140884428944346496,-0.937078369542447719986455,0.795535848815576374093439,0.522665726512703376904767,1163.66733004369893933472,1175.86620836892757324676,1178.43583275931200660125,1173.20855499048639103421,-96.3059739729032173727319,294.1837253350965397658,-8.28576410567620058600369,226.712012137022412616716,163.316261819072906291694
0.320000000000000006661338,1.13459101732886002977807,-0.545155840880831243921989,0.231499651961003000133488,-0.0438141959140819908791187,-0.0103753151273418345312827,0.00868251403488336064018238,-0.0179675596000911791394472,-0.017855077997485237217834,-0.0576522676551616125584232,0.99801493614216152394647,-0.0926872006806803566680841,0.0858239288487719076403692,10.7956965016928627676407,0.0769390324719973761613545,-0.0693997702883478312374521,1.15636330816934007614805,-0.937005395904941473794736,0.795457530345898167212226,0.525568904675764003719962,1163.63878476745048828889,1176.72345757295101975615,1178.66161002479066155502,1173.60448746075007875334,74.533539129470156581192,448.50628989961438719547,216.370712392426668202461,81.4849535844131622752684,163.318228338580439640282
0.322500000000000008881784,1.36118466556303574499509,-0.770835701356126001826397,0.633134274423592380287573,-0.039675206320687807226566,-0.0135989754971144616996215,0.0134033677581934969336164,-0.0180257328199444448457722,-0.017919027259603162449686,-0.057580603740577954163804,0.998016857107021371220412,-0.0899009062767852223929665,0.0845216817269497100451048,10.7951958636277911551815,0.0758890134262873994330789,-0.068302562635522243161823,1.15880922254122853409797,-0.936934534611293612371696,0.795384404776369846601369,0.528475584672279286024832,1164.03999773934629047289,1178.10873981842564717226,1179.51768632127414093702,1173.61597975840845720086,200.974772340805259318586,569.782315086831204098416,395.776864162644073985575,-57.8197402927343730993925,163.320711544841287832242
0.32500000000000001110223,1.47716851526912518188794,-0.89237959179587367231079,0.82561933470072135232698,-0.0355603082695826813730555,-0.016955593998967264518507,0.0186690879861519769267186,-0.018081938990234840830551,-0.0179884092979007079171616,-0.0575151950150523394444946,0.998018348471470306826347,-0.0867371560306380157134853,0.082480184560563274409617,10.7944109037353488389499,0.0748652445124169535484171,-0.067218544419535064537996,1.1612511227306419048233,-0.936866411536876442234245,0.795315245684043881091441,0.531384883064062840674069,1164.64365862915451543813,1179.57236914838517805038,1180.64049434560388363025,1173.31538875928640663915,270.86822027395078293921,635.842713801684453756025,494.642900238067795726238,-147.775984394183836911907,163.322881152435030571723
0.327500000000000013322676,1.492091602675375439091,-0.934595272683871103325259,0.849900039298392973030616,-0.0308372144331639196079831,-0.0201537565483483095685191,0.0230584654654634110815259,-0.018131082463385628233965,-0.0180596749330559636081972,-0.0574570084502752168043038,0.99801951183112280752141,-0.0833325762237611261662451,0.0798576866623785797116852,10.7933244806606687404837,0.0738598439211965579476171,-0.0661390298401864640265302,1.16369241810078904997283,-0.936800569363344215467748,0.795250062995024764589402,0.534296351174259331884286,1165.39433884071604552446,1181.28795338743407228321,1181.99090082246448218939,1172.87709983643753730576,336.267165567778363310936,774.639107998836379920249,584.634464896225267693808,-180.259837155153775256622,163.325152556790072821968
0.330000000000000015543122,1.3840766948166700611722,-0.906745371223834029095201,0.722692816683239147579343,-0.0249167398028185549385682,-0.0233001417812994139622251,0.0262462039126615184758684,-0.0181735336425573983099024,-0.0181295154006731878970626,-0.0574085240159517562474889,0.998020259733843562166555,-0.0798140115802504074293822,0.0767029629200094431595858,10.7919159218685134504767,0.0728658904727034206771918,-0.0650662441168306099337215,1.1661354554879626022057,-0.936737454985001383178655,0.795187280763074766376519,0.537211504150445384730972,1166.32499445699340867577,1183.44556468837936336058,1183.56366667008501281089,1172.41408957351063691021,329.975628941701586427371,768.684581271463002849487,522.77862512487399726524,-139.102773023887380077213,163.327994234511891136208
0.332500000000000017763568,1.20130885789532371177302,-0.837821273610041550305993,0.536241748790638794730512,-0.0203663254922400067947752,-0.0251823623238857062511808,0.0271773315214025208697013,-0.0182116591604887419209025,-0.0181959313694453894694192,-0.0573710102651415962404791,0.998020518989777172258471,-0.0762767534648988304590844,0.0730302634377043569102739,10.7901604861327058415554,0.0718792351796336687064226,-0.0640055551432365116282242,1.16858148118566229634041,-0.936677725343978750949248,0.795124653615284393559648,0.540133031675221531031639,1167.04421698542455487768,1185.13137629379139070807,1184.60479394808885444945,1172.18158597131809983694,262.152417776814900207683,600.816879248076816111279,318.301995083129156682844,-59.6125030721850137638285,163.330458343598081683012
0.335000000000000019984014,0.961194802061093644951484,-0.746643774511690505590877,0.326831189553742462727826,-0.0172641678549127590425183,-0.026491857572896827799358,0.0268629657015926372187753,-0.0182485097616041890000727,-0.0182535782990295089578403,-0.0573414998854250151927303,0.998020508442447495944805,-0.0728832656513090509919905,0.0688409908524623415093657,10.7880288827239372295708,0.0708872133480154126283779,-0.0629636916778561206431419,1.17103130612958605816232,-0.936621186425381058171524,0.795061316064152867610915,0.543060948743529281479425,1167.63575654587748431368,1186.44964908461975028331,1185.15517664550066001539,1172.1160270581497115927,221.303871699092070457482,443.821866257394106014544,109.642008098853594333377,-14.3307027174614507458728,163.333022119618618717141
0.33750000000000002220446,0.672478769536423159891569,-0.632555863011457941702531,0.0990055719169092574016844,-0.0159321622068528193083559,-0.0277206758492581605002325,0.0258490213929130491221642,-0.0182822765359864948531143,-0.0183034124830358489732784,-0.0573212250936853684457617,0.998020173558287870818617,-0.0696660443394695599872435,0.0642477161943680874500728,10.785488428250189940627,0.0698911895005482897147431,-0.0619341349250607936527402,1.17348475171693333862777,-0.936567499912082657154144,0.794998572848239826171834,0.545995298555094765724505,1168.15073634392001622473,1187.35048562507836322766,1185.1530039885831229185,1172.10993245773079252103,153.204770542242698638802,189.5733581732654897678,-100.638898532679291975001,-17.9298445096719518687678,163.336214687011704427277
0.340000000000000024424907,0.477202568019690021028367,-0.54052328504242641571409,-0.0536938669404181737054849,-0.0162416109977558086041594,-0.0287044859754633820136949,0.0248916739718342688858499,-0.0183160459779500676968933,-0.0183447848870078797367533,-0.0573085689395746653018726,0.998019559296091873790147,-0.0666802602528666771286581,0.0592566783656779325073494,10.7825051268929748005121,0.0688888103076853719475281,-0.0609222069178238651021573,1.17594047910305188331392,-0.936516508909965295082145,0.794937877954757121656826,0.548936049468471076728804,1168.40178039858869851741,1187.3975158754860785848,1184.65198215283726312919,1172.02637783560135176231,62.3303397058861605728453,-144.541801818377138033611,-265.293424002765959812677,-84.5610265307640673881906,163.338973005599797261311
0.342500000000000026645353,0.36229137246312131948045,-0.451114164019699726004831,-0.166805663010543170354794,-0.016705426479341652090671,-0.0297598806191850702440593,0.0241508728547270012931847,-0.0183469663969605331632629,-0.0183793829345530006225129,-0.0573035983586869732131497,0.998018678912019674420719,-0.0639339315492548215802415,0.0540019848001953226002136,10.7790430123480707180761,0.0678822176754618339389324,-0.0599190110959881422347806,1.17839697415325850293755,-0.936467949156570500512942,0.794880210758490246547581,0.55188423022991073274568,1168.46238804244944731181,1186.62777661598647682695,1183.82653686856929198257,1171.68712732507697182882,-8.03673605473704100177201,-444.264216360169996278273,-343.470028940327836153301,-198.412333779560697166744,163.341834713500702491729
0.345000000000000028865799,0.319139178365105136148117,-0.359853168344226703734279,-0.256135417241194485171718,-0.0168615942339856612897098,-0.0308338812150082235141735,0.023695831717679149280853,-0.0183699019946419496440715,-0.0184090959383778340896498,-0.0573018793377940427458128,0.998017844812653209807252,-0.0614248399543270567901843,0.0486668629827008078492234,10.775065964422669395617,0.0668730823981847355419461,-0.0589108945230099462220252,1.1808524643842301937724,-0.936421856038521682741305,0.794825801007672527731529,0.554839873413000117530203,1168.36159671831501327688,1185.17619479368522661389,1182.93463200813562252733,1171.03431616670354742382,-81.2950729364728630343961,-731.499567575382798167993,-324.622991430487388697657,-346.847140663203106214496,163.344783543739026754338
0.347500000000000031086245,0.35045228436514469505525,-0.261336692089591926535519,-0.330900576112413968843384,-0.0164343059343815614536943,-0.0318690831182276840261025,0.0235749907340668495014935,-0.0183810519660709686950995,-0.0184362931369353305610659,-0.0572984089448112521303358,0.998017371438404188310756,-0.059131620293555717249312,0.043403354910490819784652,10.7705395791916966885537,0.0658641266973035710563522,-0.0578875478020624417707651,1.18330461837163425364849,-0.936378010847286668116851,0.794775122953167212358494,0.557801803301505083609868,1168.05591267776708264137,1182.9702787781095594255,1182.20342191141685361799,1169.95289162176095487666,-184.454586302490326943371,-1109.02713800214678485645,-239.598905409593299964399,-565.410465694048525620019,163.347838949900875604726
0.350000000000000033306691,0.446511073973243965973268,-0.132453537046289843148728,-0.415063948796294379661731,-0.0149476425775024127778901,-0.0328481791184331850530498,0.0236039666791527241729298,-0.0183822827966042372238586,-0.018458907443443042795117,-0.057293163669959235040352,0.998017263011974797848325,-0.0571164729934963838475781,0.0382300540737368008126218,10.7654321202519565048306,0.0648485148651655601836907,-0.0568524756899713851199252,1.18575079731295129903401,-0.936336784959635348712936,0.794727435925363101532071,0.560770696227130716060572,1167.43932378680256078951,1179.63105910367448814213,1181.73663748108765503275,1168.20726383823330252199,-266.782366138752877304796,-1301.15307503976009684266,-87.4821817273650452762013,-693.647157646735422531492,163.351630382506101568652
0.352499999999999980015986,0.554804875722230361745346,-0.019136039178645567609971,-0.478165627932750691986286,-0.0130356250730441838858731,-0.0331755551776945975528399,0.0234459806717820622157245,-0.018377771616305930979518,-0.0184807677111228085831129,-0.0572873733328474327164415,0.998017298621071469177934,-0.0553046366657031635005737,0.0331194556730571507130456,10.7597157141328843010797,0.0638335497562725062703493,-0.0558140769241031314829016,1.18818734503192313667341,-0.936297554270659193598192,0.794682664582826103760738,0.563746632481001319625591,1166.72200084707333189726,1176.46451340291082487965,1181.76601100278003286803,1166.48465583352731300693,-320.960347690837465961522,-1288.62056567333138445974,95.8493951273349722441708,-709.900108970903602312319,163.354895121534724466983
0.354999999999999982236432,0.676697134110942899454244,0.0927324829319541299454954,-0.515920768632676884912769,-0.0111590586811476880774174,-0.0328677198598051334421655,0.0224528686243372598008161,-0.0183672593951597698525013,-0.0185046058586442220550428,-0.057282087027049143068691,0.998017370168366224625345,-0.0536423908003158672608279,0.0281355633776652555577691,10.7533649008445131300959,0.0628232165965451061495628,-0.0547707541817785553694975,1.19061144075432712163831,-0.936259701408132194444534,0.79464015913709695748679,0.566729098855194846073857,1165.83452204834838994429,1173.1879562753078971582,1182.21588445672432499123,1164.65776329337882089021,-408.500694251688059921435,-1392.38473686846077725932,271.022499661785104763112,-785.473531576735013004509,163.358270149350119027076
0.357499999999999984456878,0.832149744098045318629886,0.217301458099351640917973,-0.499655384460357787634877,-0.0096073274495107677251049,-0.0319339655187151766346787,0.0200172742714955810561239,-0.0183499119169754296154728,-0.0185308195626183482007665,-0.0572786917679489610000232,0.998017406102777004939242,-0.0521192890751153853345912,0.0233494714818977752712748,10.7463576723672673551846,0.0618158988373233506119497,-0.0537202079898669096480468,1.19302086556179665066679,-0.936223366940834744731603,0.794599974882584492164028,0.569717431765176418601015,1164.67949737581488989235,1169.50258971856851530902,1183.12112350108895952872,1162.5572881756436345313,-415.356026200333531051001,-1257.65179021768631173472,367.250768659641494195967,-727.876397039562334612128,163.36244864577142266171
0.359999999999999986677324,0.963782385254289053477805,0.31159476254047618892784,-0.415614048822082526868371,-0.00841101785178357055916543,-0.0309621343465755864687861,0.0174023718029890396563619,-0.018324290973765849227517,-0.0185593236093661156926871,-0.0572781385617501387352846,0.998017381513213508448246,-0.0507285424166129400580516,0.0188431348258120620609013,10.7386760115370396562184,0.0608088624246110459603543,-0.0526592440368929340377413,1.19541380178648326548796,-0.936188755060279653719135,0.794563003882816532019717,0.572710788772159307136178,1163.75774191734672058374,1166.89969732421945991518,1184.05213830002253416751,1161.01838130818100580655,-327.25308214889963664973,-895.094599771254365805362,377.352732217650213897286,-547.855396811518858157797,163.366038269287059847557
0.36249999999999998889777,1.07906407735158360594596,0.40069494642235364834093,-0.255010196780875442179592,-0.00614639891544620318303283,-0.0299709279712173266851938,0.015134178919595633883155,-0.0182899913062938498931054,-0.0185948364344332428554907,-0.0572814751320752033048045,0.998017157338777494146598,-0.0493528743681885956329225,0.0146808614204015294713024,10.7303068956267111389025,0.0598113119599213705068763,-0.0515869139878988580694141,1.19778798292736055053354,-0.936155641561632223535128,0.794530045862872680295652,0.575709074919531715863741,1163.04323196507039028802,1165.02711671971223950095,1185.0078871621772123035,1159.81801119158603796677,-230.913704402791864822575,-629.564530099104899818485,396.133158883412420436798,-433.871817878843614835205,163.369739842239994231932
0.364999999999999991118216,1.16590304143965628469459,0.512144114210192680225475,-0.000977431938225636898209814,-0.00170518688095455694421487,-0.0288067302450477000230755,0.0140627040999212506167115,-0.0182462291116277687541558,-0.0186376733788439843952922,-0.0572888821027111791450714,0.998016732584001586836564,-0.0479644988910656461245097,0.0109292068850632903553866,10.7212412291643470751978,0.0588223112540892031918638,-0.050502385093164472995575,1.20014181677433717787551,-0.936123986101898952760791,0.794501772154182162033464,0.57871254575136932274404,1162.60317339533276026486,1163.75187467372393257392,1186.032804094439597975,1158.84902221878678574285,-76.2048040071930898875507,-311.542616578298918739165,340.822648706671031959559,-272.065276698321895310073,163.374311175732060519294
0.367499999999999993338662,1.17756306697335388911085,0.616626904136170606030021,0.227474489374148935993958,0.00278104392779758092038578,-0.0278479965626774600417903,0.0147988617996207948851461,-0.0181926873547770054373451,-0.0186854633018327352667054,-0.0572942061743055980338468,0.99801651028817783828373,-0.0465859109652167063808648,0.00764398721660033281244395,10.7114743481939242997214,0.0578347547560704999813908,-0.0494068648247810021656434,1.20247396588412036599891,-0.936093958317204433150494,0.794478506693955144335462,0.581721696036534230422888,1162.66220794503442448331,1163.46940363682074348617,1186.71200040571056888439,1158.45768480809442735335,109.431568441095706134547,16.3849504398967695806277,227.332106314270077973561,-72.5040195838118251003834,163.378228260556653594904
0.369999999999999995559108,1.12771021211678657003574,0.738452416024740654343361,0.431693018597849587081328,0.00658848776271624136935401,-0.0266615413875739733218229,0.0164868412169310897541497,-0.0181325215150251115026059,-0.018734669726161914254936,-0.0572916952049409636260613,0.99801682939115299308952,-0.0452582891564592831867841,0.00480417512196006785130109,10.7010066784088344604697,0.0568399405276919858498452,-0.0483098309416525872883597,1.20478281974767664763704,-0.93606684811232143683668,0.794459463736357007768163,0.584736738806247324795606,1163.15033123753823929292,1163.83379942592341649288,1187.16946462601094935962,1158.48650212086772626208,247.052133269653268143884,215.644819804083255121441,146.574908047432330704396,72.7394497303975384738806,163.382256487215073548214
0.372499999999999997779554,1.04562078668132274472669,0.873590639662782053598278,0.592978975052811274615294,0.00934803998812181249911113,-0.0249742585248393551833335,0.0184685567944867755352245,-0.0180715463883841555292609,-0.0187787877557049273646861,-0.0572749153140851494092622,0.998018075149107120047631,-0.0440819309065339920428173,0.00232760665049896314782174,10.6898436190686023650187,0.0558230496460885156073672,-0.0472272319812443719388995,1.20706682091230099729273,-0.93604344485879686921237,0.794442951344978887107118,0.5877575926846539955406,1163.8974686113826919609,1164.54762773584116075654,1187.44487494594773124845,1158.82138205674641540099,323.428380270160857890005,318.779860579342937398906,71.5260621661854543162917,187.914134190986999328743,163.386376198726679831452
0.375,0.956602927076108167092627,1.01866139886203654896235,0.687381382836961929427844,0.0109956361015707895778526,-0.0226003137420470734397782,0.0206102763940957459110059,-0.018012036569730376089904,-0.0188124578896113579806748,-0.057243629712370611151151,0.998020318842117837299099,-0.0431404563600241847121097,0.000204213152238029438390043,10.6779956280567365212164,0.0547724407365931253988123,-0.0461654910296636911137824,1.20932470190419150135597,-0.936023837519271539875376,0.794428212164312474996564,0.590784888797197482723789,1164.76747313888904500345,1165.42769872882013260096,1187.52709493684187691542,1159.42607279182266211137,361.382418824586807204469,365.604025621996356676391,-2.30842919677342939266396,291.431497313078295974265,163.390605093446055207096
0.377500000000000002220446,0.876211315843572258188487,1.19565826179495915404516,0.717075639578866885770481,0.0119366975226987814123758,-0.0193007827272450409317184,0.023325796908824206199462,-0.0179535165091427514894029,-0.0188351666064966206948217,-0.0572023914851511536272533,0.998023315550992884404025,-0.0424217136114456577766774,-0.00151678574705425145419113,10.6654790002399870729732,0.0536884722590177110301823,-0.0451230686426255730991919,1.21155508488382124276939,-0.93600752231437922556978,0.794415742618615916548208,0.593817629667388047209897,1165.70438070550562770222,1166.37564786395114424522,1187.43333279996386409039,1160.27853954331180830195,300.352730139320271973702,297.648955289787124911527,-67.3388922391949904522335,302.047746114385233795474,163.395804105894058011472
0.380000000000000004440892,0.841385042308859465443049,1.34090131036014592602612,0.675894847982018376342239,0.0125148047152511109753048,-0.0164452679339716738293742,0.0255954802877129301841297,-0.0178942288775122519683958,-0.0188504930394222530720683,-0.0571552976954053729152783,0.998026793699636316503643,-0.0418314235876491441468161,-0.00275768989182845897234486,10.6523162418884638213967,0.0525815772431750538817852,-0.0440945274457039126936309,1.21375647537003494846886,-0.935994160641985262216735,0.79440709870906500711385,0.596853442202213813061462,1166.26923678958564778441,1166.9159435052690696466,1187.19040047564590167894,1160.93631152239458970143,171.411667686243021080372,147.525534435089724638601,-142.249971971295849471062,216.056188328911758844697,163.400238543487262177223
