t,ang acc x,ang acc y,ang acc z,ang vel x,ang vel y,ang vel z,quat x,quat y,quat z,quat w,acc x,acc y,acc z,vel x,vel y,vel z,pos x,pos y,pos z,mot 1,mot 2,mot 3,mot 4,dmot 1,dmot 2,dmot 3,dmot 4,vbat
0.0025000000000000000520417,-3.73059357721744211389137,7.69891748865726111006325,-0.460501971163621737215266,0.0669818186850938551701873,0.0135075955155566484328089,0.0229667768146320470934452,0.00182021295380791121344688,-0.0163904242554137637155609,0.0163221778802180653156206,0.999738734090081293537366,0.0949364101104024360466838,0.00031665790412253869146042,11.6692849035377559374638,-0.104411872980123276999365,-0.0334559794497560417103621,0.935042519572753083600958,5.89818083955280769714591,-0.638305169460058219321752,0.161119648206480503560556,1242.51341311541432332888,1260.81896293988052093482,1275.94267557369994392502,1173.97881561075291756424,-1233.32117392346845008433,-398.507261515169375343248,-373.530761848360270960256,326.878561086414265446365,163.416439594389288458842
0.00500000000000000010408341,-4.06725692776451897003653,7.69100038266218000160279,-0.524181462818695820260473,0.0578987309296374735856361,0.0330934883757513717550403,0.0212714494211081427132992,0.00177591478317487062345281,-0.0160420563918703233674545,0.0163383741060134056455322,0.999742181195522161551992,0.0985188985407099149238519,0.00957293412412277278100703,11.689784761964714832061,-0.10554166099565899517021,-0.0334301967038971858947605,0.939419480227163705698956,5.89784697740556307365978,-0.638404035913449297012789,0.163479953874175742978281,1239.43011018060565220367,1259.82269478609259749646,1275.00884866907904324762,1174.79601201346895322786,-1387.61367467859622593096,-363.671919396210853392404,-415.567198414009965290461,522.421080203412316222966,163.43802316331471047306
0.00749999999999999972244424,-4.34347615298232714309279,7.36629902942408421040454,-0.528060868490998536195491,0.0472365958543389877211105,0.0530664480378094868817662,0.019390676952057515208816,0.00173886288007490908899544,-0.01570353300000047747087,0.0163620319805200288565405,0.999745398040340904621814,0.102357691052817431631716,0.0189968721779408822314394,11.7102009510374731604543,-0.106658634934383850234596,-0.0333879549948144782600679,0.943824771697091335909136,5.89751308313385802506446,-0.638502110166296765747518,0.165827246035735481610729,1235.57534474202134333609,1259.00060334289946695208,1273.86483958162989438279,1176.59092101176997857692,-1669.14724206976643472444,-306.334062483165325829759,-491.81932396722913836129,885.259141603046373347752,163.459114200298586183635
0.0100000000000000002081668,-4.51144349887379370045437,6.67877709499622262967478,-0.458455617454087693829479,0.036317668266991121051035,0.0729801401400107241368431,0.0174530739396005669938905,0.00171604048028480764102877,-0.0153886447961141415580189,0.0163973124026676984887896,0.999748223244899092421178,0.106820219806073812840452,0.0287448458834296816100107,11.7304299297019412051668,-0.107735605915813631439093,-0.0333134975640706626487386,0.948280265748797868141651,5.89717840779578139631667,-0.638597995093184711556944,0.168168040155738440777355,1231.08437397025682003004,1258.29102447367677086731,1272.54975204924289755581,1179.2223077214841850946,-2036.44179601351379460539,-321.802738902260841769021,-583.968747785638583991386,1250.06043254043083834404,163.479612732341536229796
0.0125000000000000006938894,-4.55161088784517620098313,5.51078671134366793182835,-0.30184315442987386113316,0.0237545542021923711262232,0.0945196662729650555201388,0.0154159978175558726870564,0.00171155176341649187254923,-0.0151082159364564865000613,0.0164449255261763412072629,0.99975052917479922953703,0.112209589139682361369488,0.0388988632875293810498007,11.7503281784009523391887,-0.108749918552895508128131,-0.0331963357367456926572125,0.952806358255194107975683,5.89684276758982850452639,-0.638692855912905921300649,0.170508851697880242648253,1225.39313576195377208933,1257.39158964838816245901,1270.94499584270170089439,1182.84122317447213390551,-2071.20735377598111881525,-364.961480704323605550599,-569.104866236375642074563,1326.03303616265316122735,163.503528186252793830135
0.0149999999999999994448885,-4.42367925205136014454865,4.35407234377730034680098,-0.129989882135329637424803,0.0127109438797334394627425,0.107888975712632437242711,0.0144077480947252863779928,0.00171980807255112480048942,-0.0148568306242930266852786,0.0165034241591701172358064,0.999752433826901265589981,0.118444527213715192215382,0.0493078993874995347157508,11.7697178044139825203729,-0.109709228414230142156782,-0.0330435122079605833600446,0.957416276137670885226783,5.89650659252506148533257,-0.638788472123359429843958,0.172855690286893542984004,1220.72833720137691670971,1256.46621707015515312378,1269.70422771806101991388,1185.85247290229744976386,-1773.86132428205155520118,-433.136888199396651089046,-460.826364630247439890809,1110.7460432895093163097,163.522890424317893121042
0.0175000000000000016653345,-4.09569454734661153594288,3.16969869855177677209213,0.0509862444167820255680468,0.000309535014677873388314056,0.115052070706897227592158,0.0144607071224187224561808,0.00172899474741201853410233,-0.0146236558801282248015729,0.0165675480668580725474026,0.999754183629959602974679,0.125307979105950179077311,0.0596609382622768635862087,11.7883879188275795257823,-0.110631113793440663539691,-0.0328741479855523613395896,0.962117208473015295133735,5.89616918957604330131517,-0.638885563154317215328604,0.175212983135596828132563,1216.52382914054351203959,1255.22590520739117891935,1268.64086401955046312651,1188.39495339091968162393,-1668.54259426399926269369,-637.607347636276131197519,-431.491540791102977436822,909.677003679507606648258,163.541665801572690952526
0.0200000000000000004163336,-3.4607055729128406440509,1.90282728377125454066743,0.23598574716847217636051,-0.0143060808540181882975162,0.118507197594450927602416,0.015526798548886933809543,0.00172660880240670458474206,-0.0143966277317862881984789,0.0166315733989561356787057,0.999756040082210417629938,0.132543765374841054915933,0.0696135279576849952398732,11.8060982759033858968678,-0.111535239861157917107271,-0.0327085712042341492100661,0.966911046922393713209942,5.89582894813810121092956,-0.63898498814895066111319,0.17758565514484075942292,1212.38562423005691925937,1253.27818033197377189936,1267.54677001410550474247,1190.40085792069498893397,-1327.17866304346966899175,-797.580062040834036451997,-386.595146178297170536098,498.576000232651722399169,163.56351996433593853908
0.0224999999999999991673327,-2.76125627562944098158937,1.07766147168516002174954,0.336923633373493069953497,-0.0244088935817511204495744,0.119139599089251271846202,0.0169480425763425569807286,0.00170812712045254966666818,-0.0141756471955228544046257,0.0166923144937962883438409,0.999758022251353350995373,0.140169321675108399238852,0.0789864590495202023578969,11.822579799950279522136,-0.112417772563524739903862,-0.0325515349320308899905285,0.971798085091117314071596,5.89548595294065780336723,-0.639086149471363995644424,0.179976436192387401202808,1209.88793582532616710523,1251.23800489718701101083,1266.70788828865897812648,1190.88783339208293909905,-779.895062753121123932942,-906.179723012337262844085,-344.252874552921582562703,-106.400462949795823419663,163.581169624380066807134
0.0250000000000000013877788,-1.97016863033351019574013,0.561845006820908432487727,0.361908899117657778532475,-0.0312768932275068398118911,0.119054271844480724640292,0.0185038263986345430378577,0.00166915117125866698140346,-0.0139635983069462954464512,0.0167494486120932754846802,0.999760059372306164604538,0.148259562575619174840114,0.0875840094552317038889555,11.8375456503846905320643,-0.113268772951645071978,-0.0324071161478605707095824,0.976775226590542833271513,5.89514106881384059022366,-0.639188186379175515838824,0.182385469216357481991864,1208.48614891629131307127,1248.74728171691208444827,1265.82550564134089654544,1189.86885560594600974582,-370.600931130866172225069,-1203.82815680231919941434,-419.445741326171571472514,-829.576415932251507001638,163.598237238405317839351
0.0275000000000000001387779,-1.05479314503190280127853,0.329666226034139031586534,0.295443773400514864135857,-0.0352506531242625376076916,0.118896278257555734758633,0.0201291234265879234732743,0.00161351156134105803638401,-0.0137586203200342656327582,0.0168020734207090897960324,0.999762149036340752594754,0.156764161625519538034723,0.095389316159563780628261,11.8506984260051115853685,-0.114086811362011111836701,-0.0322636911126872941157906,0.981835684779414519240959,5.89479465545889347311004,-0.639290479697461999641916,0.184812032679526117018298,1208.03493116967183595989,1245.21886411317541387689,1264.6106595820281199849,1186.73995131242168099561,14.7944467709749076789194,-1388.68493087270576324954,-478.064750124576903544948,-1466.29022881529704136483,163.61804675564764011142
0.029999999999999998889777,-0.429669397457319190980485,0.458444199477181235646839,0.162272496807424032594369,-0.0350286414728975745158657,0.118776655765759728278219,0.0211249540268252204711086,0.0015517292512544349648157,-0.0135573498584868820659999,0.0168501442723611137564088,0.999764293637828371785758,0.165581866248468323465914,0.102529045399214785438957,11.8617369460736643560494,-0.114872984491459134703817,-0.0320964441231349484340285,0.986970402975705374259974,5.89444610305802374483619,-0.63939321381531177834745,0.187255623731792192332435,1208.56012115014618757414,1241.80385706254855904263,1263.43518189071801316459,1182.5374044618695279496,347.987352445170415649045,-1473.0694743573619689414,-502.751771157590951588645,-1986.82454990330325017567,163.633995798683258726669
0.032500000000000001110223,-0.0583938666642011550145241,0.904309025471414895669398,-0.0403990185528199999276389,-0.0324451737089078429132627,0.119261206726634219621452,0.0215889261598730397562207,0.00149359266810575991822618,-0.0133601359351275452563845,0.0168941765523693311623621,0.999766445414095650257025,0.174680142869765131496962,0.10909760689720146564774,11.8703639879869520257216,-0.115620942188510988923866,-0.0318820960011231002706467,0.992169441735257784387159,5.8940945355696525709277,-0.639496910351960212715028,0.189715481127470247946221,1209.77486793189768832235,1237.85351674138860289531,1262.09690072624016465852,1176.805828562905162471,552.942671495611193677178,-1674.72855809087218403874,-558.02209409334818701609,-2509.27268360287371251616,163.64936585853601513918
0.0350000000000000033306691,0.050963551426595289639554,1.58698422150958040610647,-0.287505375906645654904281,-0.029274073349356961176726,0.120972213871365433246474,0.0215598546034618081257417,0.00143900826205492059911561,-0.0131730501808501512112093,0.0169324617011155573176318,0.999768536161608656342992,0.184138282230435212927233,0.114941533125487771460627,11.8762952786347568689962,-0.116312990720840614411458,-0.0316181223599783789435236,0.997422430221652112081188,5.89374039664045401565318,-0.639601069962661417100946,0.192190543587537177039337,1211.32483450762424581626,1233.43021427209419016435,1260.64507142025126995577,1169.99104104385514801834,637.652479486905917838158,-1884.20116623665398947196,-604.020852997746601431572,-2926.55041285984361820738,163.664256831188794194532
0.0374999999999999986122212,-0.170357556462178899581161,2.50664077746726299267266,-0.567187975607078787021464,-0.0266409728116550822973885,0.125107849655359815166378,0.0209056996459055753623257,0.00138071901166014906169044,-0.0130045852311952581797927,0.0169630309820388118502432,0.999770479221815278059182,0.194070994420476400366127,0.119728360688792834221061,11.8792654583056567219046,-0.116926674405180106020019,-0.0313174246113855220263744,1.00271844843978086281311,5.8933845880368833647367,-0.639705342788668196440938,0.194679584816945444591951,1212.96313032933221620624,1228.43251091020533749543,1259.07679646125143335667,1162.17307649860595120117,660.743832883190748361812,-2316.97992983231551988865,-717.262887269635371012555,-3582.83743445740765309893,163.678571536264769292757
0.0400000000000000008326673,-0.780390775574163697569929,3.80334478586087199047938,-0.90633514371251155949949,-0.0256142193742479561124892,0.133830691155490510979575,0.0191691836885734684381433,0.0013095884869843404246792,-0.0128438352658174041731609,0.016986137629051142883263,0.99977239747497748112437,0.204113730058649633924972,0.123085238320640472098333,11.8790397496122110965189,-0.117478771436540563311013,-0.0309968752886050254169437,1.00804154470663465126279,5.8930268028808354685566,-0.639810424550365519635875,0.197183460422429096547958,1214.62855367204019785277,1221.84531462293261938612,1257.05875698390309480601,1152.07685387156811884779,506.884550881067752925446,-2487.47413767114039728767,-767.639792094586709936266,-3753.25098308530550639261,163.695085005283345935823
0.0425000000000000030531133,-1.51521151239454021641961,4.97898439318232632899708,-1.16206219625572604314812,-0.0274561116703288705942487,0.144348871882311352576878,0.0166809859645858961363363,0.00121546533277360380327636,-0.0126715916292947285842763,0.0170021552897977219764858,0.999774517464970258195933,0.213687866302348067337746,0.124620729813397529417429,11.8754145972329094860243,-0.118003811138889413978603,-0.0306767951127409170541949,1.01337349351634453675786,5.89266671174842038283259,-0.639917199341697884307223,0.199702607777479529405085,1215.4975530837375572446,1215.9951402218496241403,1255.23859750077849639638,1143.40682158317940775305,186.348588180271775627261,-2365.4069080401782230183,-767.718193327027961458953,-3440.25025856399406620767,163.70829430840842633188
0.0449999999999999983346655,-2.3904748364548265016083,6.17495931565388289641305,-1.35220354520883789817276,-0.032494651045755724994013,0.157874786378940812348048,0.0129341246125841309588811,0.00109545070354057213699028,-0.0124744866344462003449056,0.0170096218480596736433164,0.999777005708381127924156,0.222342977019422433082596,0.124121996260534106504281,11.8682116460017414993899,-0.118525476407533317257936,-0.0303655269308223153823523,1.01869789653654030381347,5.8923045652710763775417,-0.640025738369867758237319,0.202237268367831152238168,1215.56029661294155630458,1210.01828008273173509224,1253.22016601726795670402,1134.8756025787481576117,-200.948321662144849142351,-2586.47226917205580321024,-950.574945997096165228868,-3629.61609964750277868006,163.720932611420664670732
0.0475000000000000005551115,-3.48857022609776246113711,7.54638860900758956518075,-1.46921504627812371523987,-0.0416854344335941817689672,0.177779642645581131832344,0.00732995032472326911443528,0.000950542977439437298051161,-0.012239022479315015204393,0.0170112224102763401334393,0.99977995049353918233237,0.22962025864970864175163,0.121482718576202131099961,11.857283233993321402977,-0.119069226406633546511138,-0.0300645563328622300591775,1.02399886318323529721397,5.89193999681702873516542,-0.640134723167512298402926,0.2047865967613613502607,1214.49281147542683356733,1203.06277887598935194546,1250.48572277079301784397,1125.2587410849419029546,-594.248335130714053775591,-2460.10839668706239535823,-1066.62133040331264055567,-3358.20350498715606590849,163.735440631136867750683
0.0500000000000000027755576,-4.36698324087365374879255,8.57498120788312689910526,-1.46258912511859029415007,-0.0514658916358698426130047,0.197686078743394139101142,0.00239961842532986644252468,0.000783715303763484459100008,-0.0119515207787533103006572,0.0170134548532202140025404,0.999783372655500324199807,0.235055507629301052574533,0.116662990810008387887464,11.8425146690236360313975,-0.119662679701113452979122,-0.0297726630120434855586442,1.02926110144640814425543,5.89157273334285225274698,-0.640242118046545183318585,0.207349202409628452503654,1212.58905493728798319353,1197.71773809929641174676,1247.88705936525138895377,1118.084585053812361366,-960.202415348522208660142,-1988.98373563165569066769,-1115.12593168295143186697,-2623.93249399579099190305,163.746984371108311506759
0.0524999999999999980571097,-5.12642422318870760733489,9.42082856525094491928485,-1.35697683275382785517138,-0.0634633994567222886606928,0.220553704293665275848468,-0.00195418439589849788143305,0.000600371922475886085450447,-0.0116063457926566058336926,0.0170236390220768613046332,0.999787173591544564565936,0.238378158495131581284809,0.109702653580714071246405,11.8238211515162401354928,-0.12031868534897045830423,-0.0294860523129392287922101,1.03447198212491731084128,5.89120341671076896972181,-0.640346031580966923435483,0.209923791565139516990257,1209.69179939868422479776,1193.1178601978310780396,1244.91009311237826295837,1112.13907861496295481629,-1457.09036950415861610963,-1806.80950771943662402919,-1396.83902526330780347052,-2262.23195370821576943854,163.757965025258698688049
0.0550000000000000002775558,-5.81859908150416327288212,10.1726134048392111708381,-1.15185405669773999193239,-0.0805166042791520264465532,0.250070128173830341644646,-0.00603328947214291574918654,0.000409695265021614097103453,-0.0112009352766987927557674,0.0170436145416355856740953,0.999791300793375192768053,0.239396438996846538938001,0.100761239078777431465994,11.8011503606981946745691,-0.121045090883675529602748,-0.0291967674386048037238339,1.03962035053265222650509,5.8908324142202550532943,-0.64044449162636840622298,0.212509662243684477322958,1205.30360308976719352358,1188.68369056069923317409,1240.90286423893485334702,1106.77342528527128706628,-1709.54466189509571449889,-1426.22104562524191351258,-1532.68465508026429233723,-1636.20591287149045456317,163.770497768011409789324
0.0575000000000000024980018,-6.1655070972483940749953,10.5596892903864105761613,-0.951674166163640755655706,-0.0965496420180455422466181,0.275584220347685260321668,-0.00843738982344744564700889,0.000206647535937429460911954,-0.0107396613609618846868488,0.0170696031628345505637423,0.999795713749927927871397,0.238086174905953573688322,0.0896961449172446467770214,11.7744876831435547615001,-0.121837409498776999550174,-0.0289297942612988696897691,1.04469609375742344958837,5.89046116137798581036122,-0.640535886888878636113986,0.215105729712378818119234,1201.14407608920873826719,1185.98675496970486165083,1237.24666983697693467548,1103.95804905060549572227,-1700.27437420626574748894,-864.515474352629553322913,-1507.81271550645283241465,-764.535065267864752058813,163.780411629063081591084
0.059999999999999997779554,-6.24179890587674002233598,10.6914999995292561152382,-0.76625171904291333735415,-0.113484406687817201975221,0.301564216244376737119381,-0.00973470046931317924132632,-1.37537246990461531793038e-05,-0.0102298435250521031064652,0.0170960428684241994012893,0.999800372866103792546255,0.234507846971466260566075,0.0764058047696830056061401,11.743853071639662744019,-0.122686675417131851872909,-0.0287120167833795937595287,1.04968976369869149145586,5.89009143834103898740295,-0.640619426035724304213659,0.217712549427616253172602,1196.80223121873586933361,1184.36111318893608768121,1233.36380066140259259555,1102.95074995893196501129,-1722.92228366518520488171,-477.582474722703636871302,-1570.12050619287106201227,-114.006115382244445299875,163.789784943421722118728
0.0625,-6.09388933443757441210664,10.6158472800258412149788,-0.621819151320752383504953,-0.130207462826720576920536,0.327463589096849749804363,-0.0101725814414721071193837,-0.000246495330472290379020261,-0.00967618652069380733027337,0.0171152551607216610318751,0.999805306087735989883925,0.228684218436317310274575,0.0610669494906564136460503,11.7093017007853745781176,-0.123590540257424871817271,-0.0285502863708117053664903,1.05459145187726255343819,5.88972477475370137511845,-0.64069540789165868588384,0.220330929232794292538244,1192.52946467088281679025,1183.59884259609134460334,1229.39606730601258277602,1103.38801847369427377998,-1661.34504842293472393067,-115.033766068563537032787,-1580.02354655727549470612,478.241626478483851769852,163.798718529913884367488
0.065000000000000002220446,-5.70681346133005984455622,10.3033447250854202081882,-0.546743099601388227171128,-0.145554936735617090892703,0.352535835025102384232554,-0.0103037777474043797804049,-0.000490849790775574703650952,-0.00908898862805271497145032,0.0171216766438453751875137,0.999810459012292485070361,0.220792663094210861451927,0.0437936092172166724356686,11.6709258534236681725815,-0.124536433770127630271674,-0.0284593986225190678784891,1.05939163934637736730338,5.88936162012305519652955,-0.640765031957735931023024,0.222961716579228363954712,1188.49550597662118889275,1183.78594435859326949867,1225.46368292861620830081,1105.34195809132438625966,-1717.60465018378295098955,260.456487373448680955335,-1689.90324899122992974299,1118.42708073090670950478,163.807133719433551277689
0.0675000000000000044408921,-5.03704122195405190609563,9.67742628417516570493717,-0.538362938421249381804046,-0.161246315053737376832288,0.381225100421381968285317,-0.0109007842356322499910437,-0.000750305264914677373308538,-0.00848024098782989427247614,0.0171140844727408897307797,0.999815702268374573158383,0.211075870160146950027524,0.0246397923477583713491867,11.6288570226221139591871,-0.125509247022344366806479,-0.0284606100330094952122195,1.06408017878805338796155,5.88900160905236624842019,-0.640830428120381268008998,0.225606542766036866076718,1183.94144141996389407723,1184.90112503295858914498,1220.94655106105642516923,1108.98015387734881187498,-1646.37427225352303139516,513.761000491103459353326,-1605.91126569606649354682,1468.25363090656401254819,163.816649863087150151841
0.0700000000000000066613381,-4.37059169560443638857805,8.96480794842688055723556,-0.586357027594540558546043,-0.17166806274294366119193,0.403982976634108037483628,-0.0118409071705129279039603,-0.00102207257193447304324807,-0.0078601295119334127492472,0.0170925272090258414947606,0.999820925149596417824682,0.199765099886475644419548,0.00384386627240269895811053,11.5832654114260975575235,-0.126497714573548386551849,-0.0285595347421455959813219,1.06864618912656572646824,5.88864405952637781638259,-0.640892876129526944950499,0.228266460638081453149439,1180.26363461535356691456,1186.35474936104878906917,1217.43412660013586901186,1112.68322624585721314361,-1494.66165242656916234409,625.728323689282888153684,-1343.62862012221989971295,1523.6478841977743741154,163.824108648550662792331
0.0724999999999999950039964,-3.66100082877757415644737,8.07949296154613172404879,-0.666074616281075670976008,-0.179578915610905109900841,0.424988969726937559912017,-0.0132259375582447179231504,-0.00129801838819902778596194,-0.00724549474980064854567896,0.0170580386760817333258178,0.999825967323711428669242,0.187276450174895997546898,-0.0182029571881605831129569,11.5343577004630279958519,-0.127476003374184521099721,-0.0287478833685596187053068,1.07308048779750753176643,5.88828846577129727535294,-0.640953560061660820856844,0.230941553313708136663251,1176.46813315783106190793,1188.02976665140499790141,1214.22840796044533817621,1116.59839329833766896627,-1754.30241753656787295768,707.943344191791311459383,-1342.41915474290431120608,1680.74390049851308504003,163.831095094987631455297
0.0749999999999999972244424,-2.81384963797472709146064,6.85987039284621857859747,-0.763721152248353685187965,-0.186845200477483208700846,0.447050865569311450808954,-0.0154423522118068493047538,-0.00156890886898260932882931,-0.00664889127534746150055556,0.0170098781299416919321477,0.999830748903961619156178,0.173953993036650211845284,-0.0410569089841547746333461,11.4823823758225085356344,-0.12842676899771063303568,-0.0290125530596898120738736,1.07737308758091065996609,5.88793394164104277876959,-0.641014686266346833676266,0.233630201835752115968603,1171.4921225276707446028,1189.89446608200773880526,1210.72203082642135996139,1121.08694574834976265265,-1923.15283356360669131391,606.512044284544913352875,-1237.84234319750680697325,1569.92659360171137450379,163.838952250305879942971
0.0774999999999999994448885,-2.12808402924681283607811,5.75272549644078079467135,-0.8217561692534832706869,-0.191449185176229136340353,0.462518641361037319281735,-0.0176144105063915992759327,-0.00183342930979521522363851,-0.00607219767168258595102515,0.0169495707370959820814438,0.999835230741901614948119,0.159921749872100726896917,-0.0644328465645402220784987,11.4276298950090335893037,-0.12935561835886399961737,-0.0293538323461427844152105,1.08151139177228228227534,5.8875804033211371901757,-0.641078027259598615117397,0.236331374271750827009697,1166.85236899001301935641,1191.06232687282772531034,1208.03919624445779845701,1124.44802626634623266,-1965.5696868035174702527,340.075760460922253969329,-1038.97378804572235821979,1253.54671098007088403392,163.845075125442718899649
0.0800000000000000016653345,-1.45767933473045596670659,4.60649844355029358666798,-0.829406368289572593077708,-0.195062289136173211412384,0.474643313460908877754463,-0.0198767601793318413050393,-0.00208737952782747041707845,-0.00551885519934182215695539,0.0168821399905669036756173,0.999839323576170113661021,0.145369790893000561116111,-0.0879653114376549444264342,11.3704229887067587156935,-0.130264610390762897162986,-0.0297627280710604860680668,1.08548426560760713499576,5.88722880366879319780082,-0.64114305999692933202283,0.239045170602467854648054,1161.66427409365314815659,1191.59484488431235149619,1205.52716188619274362281,1127.35467930325012275716,-2382.00353761971882704529,60.8819670218962869512325,-1086.27825684607068978949,1202.20287615888878463011,163.850773679674887262081
0.0825000000000000038857806,-0.644030741937245077011198,3.25190273595811651929921,-0.756071011750593324762804,-0.198605811137302995517118,0.484939527437109330065823,-0.0224439804763155725808588,-0.00231929433149971305286319,-0.00499039549913738583741818,0.0168091685668934169572974,0.999843032459310054882451,0.130473265649800135301817,-0.111114480280799121647561,11.3111146858403461834541,-0.131159097277953717863852,-0.0302134534712695176916775,1.08928173278621720498904,5.88688124785615496392666,-0.641208522179958273490286,0.241771011105305827504353,1154.9423513019144138525,1191.36673670793720702932,1202.60780496022744046059,1130.45904064714068226749,-2508.37346312614272392238,-226.524404397286872381301,-1070.09324657105844380567,1112.99332707085250149248,163.857140297410325047167
0.0850000000000000061062266,0.062209919619028108961345,2.18249535460438837120023,-0.612131069300036023683731,-0.200650772951706052316112,0.490154785943744564225,-0.0245246832073366359538991,-0.00251731014266589649130967,-0.00448517692292948414595211,0.0167303195055034138738481,0.99984641505747895440237,0.115359347254838151553002,-0.133331220367419678307641,11.2500839911520440494996,-0.132050533929719215997522,-0.0306779596555093944654224,1.09289454805831209860401,5.88653998420589896767297,-0.641272949290679572520446,0.244510117240998053889101,1149.1224067780224231683,1190.46222286232591613953,1200.17669565333744685631,1132.9196459386043898121,-2315.63925673499170443392,-482.101088514945786300814,-990.921867825590197753627,1008.05357946332969731884,163.862066343907287091497
0.0875000000000000083266727,0.807727081164639093557867,1.20686253361230555469774,-0.371034943413421580693523,-0.200937885777809022158635,0.492705881397008993438646,-0.0267246243068703578926737,-0.00268509720904327271392975,-0.0039902149139067286803817,0.0166520498355452635508289,0.999849419309869147376446,0.0999153001376907740072042,-0.154418084901783492224325,11.1877283403983991405539,-0.132974888240898619917729,-0.0311582227793396060455677,1.09631139029656710093263,5.88620536974568420163223,-0.641336621684890695327397,0.247261388009696908563129,1143.36415501823944396165,1188.95623126536247582408,1197.65319562109948492434,1135.49930854445733530156,-2250.34370544322382556857,-663.313935923407711925393,-1038.08510644785405929724,1079.70625781204239501676,163.866614406106236856431
0.0899999999999999966693309,1.57657832628748195702428,0.315802631873138117679645,-0.0497927051083567259737173,-0.199067428480469432727773,0.493728364708191591603281,-0.028870126440176530069337,-0.00282963267450325869564742,-0.0034922421136500568158989,0.0165762080976762614381581,0.999852063846585092932173,0.0840413877161561850837046,-0.1742555150565894550585,11.124452126267403428983,-0.133966724891335819958016,-0.0316633958718305144608429,1.09952293236897924444406,5.88587515599108268560258,-0.641401435644687989423574,0.250022987128833640291248,1137.87068825080632450408,1187.14565318270888383267,1194.98627012109818679164,1138.31817722766459155537,-2090.54833077812372721382,-736.402864316370596498018,-1113.3857022290178520052,1195.58280735123162230593,163.870860511925826585866
0.092499999999999998889777,2.34514039054535450290473,-0.481873800484443171043836,0.347542128372604341990382,-0.19447516504828576966446,0.493426174193582478544329,-0.0300880676958294422662643,-0.00295611824425274973687783,-0.00298551918639859952681048,0.0165026571010816920648256,0.999854377998708798713778,0.0678200906997981634027894,-0.192695618151944358942274,11.0606587774418496650242,-0.135041137004314082403766,-0.0321983234161321504873676,1.10252462009012996979607,5.88554628142846425475909,-0.641468902673626661936623,0.252792827398275632422298,1132.91141336434884578921,1185.2742169437806296628,1192.08626710995440589613,1141.4772225812134820444,-2017.67232497750046604779,-755.858078279560913870228,-1334.31734111522814600903,1445.21801573960010500741,163.874755320621829923766
0.095000000000000001110223,3.22102807022982151607948,-1.34956464820417809669095,0.854612827983006972942803,-0.186265710364438646928775,0.491648281912739015808711,-0.029186654928375591055989,-0.00307021089118154335770305,-0.00246861248647127278985081,0.0164294214952794559447824,0.999856410546568818986657,0.0514332002726253650903843,-0.209615601165169113118125,10.9967446027189001966917,-0.136200305162781060142052,-0.032768473978200256258031,1.10531587905595141130277,5.88521548800581761895501,-0.641539780479617460784425,0.255570049872758831011055,1127.7823266259188130789,1183.36636279131107585272,1188.31468341552204037725,1145.54426730636259890161,-1723.58783071149287025037,-593.035625770016281421704,-1423.99275077918764509377,1496.26922951156166163855,163.879037684291660070812
0.0975000000000000033306691,3.87885492921112851050225,-2.00632088614699677364683,1.24421868662717582942889,-0.177392569777810843456578,0.488709906882229094815528,-0.0263094026288514248879125,-0.00317597159373252200392779,-0.00194287941988585156904978,0.0163565117252081997090141,0.999858182852674914897761,0.0351191474477434290024647,-0.224876164540036838079828,10.9330928201552826095622,-0.137436936399154358001695,-0.0333746359351476395982417,1.10789990814792105311426,5.88488043884635203539801,-0.641613957402539347718573,0.258353719474373133557776,1124.29347421079137347988,1182.30903881493054541352,1184.96630335605846084945,1148.95856872877129717381,-1218.41660911213580220647,-274.505305067850486011594,-1360.98883717345302102331,1305.32165286708618623379,163.882289531878399202469
0.100000000000000005551115,4.42771502549899853562465,-2.58957762401344560032612,1.52814742208607556861466,-0.166869774449319774323186,0.483718794891517034351125,-0.0218229737594069460315804,-0.00327700868053800104320872,-0.001412177192655989822756,0.0162891817885614798022687,0.999859637130015910244651,0.0191567869816163284524269,-0.238350270053545643111903,10.8700668732355296697278,-0.138735566663619441785116,-0.034014842011703821933466,1.1102835153392720535237,5.88453962072287595219677,-0.641691698329103776821114,0.261143576894041717917361,1121.69024358035812838352,1181.99383626597182228579,1181.5097392296547695878,1152.07087557069803551713,-935.655497936340111664322,41.90948390846639171059,-1513.87312220558533226722,1223.25701947056472818076,163.885222125897087153135
0.102500000000000007771561,4.93169426609922290083432,-3.18281176339157756416398,1.68024837191610032505196,-0.152808513795734984830332,0.475026388006038469136172,-0.015114757478464994552847,-0.00337800190567527029023021,-0.000880251783563657506405387,0.0162331703610275601690205,0.999860718999184716615503,0.00380200764454669513925378,-0.249957470450528407290847,10.8080039551548434673123,-0.140078873530257386192943,-0.0346893042840199783416466,1.11247623119868666030641,5.8841923176385151350587,-0.64177238334526798269053,0.263938056527942777051976,1119.61519672110966894252,1182.51858623447287754971,1177.39693774503052736691,1155.07485382612412649905,-589.702254852819578445633,325.28199113267027087204,-1481.1154215993183242972,936.27681432312965625897,163.888381169239892187761
0.104999999999999996114219,5.20951692135607924427632,-3.57091276729336426498662,1.62159595284071755827426,-0.139986158636573321256691,0.465977692736180559851533,-0.00871558122214855651721521,-0.00348091335114122241156664,-0.000346993722031677098976282,0.0161887521811898797696738,0.99986146737893144553766,-0.0107938067423638244662909,-0.259582610704454652683637,10.7472107363196549556505,-0.141456450065098854329548,-0.0353938251855681132451714,1.11448936402500731190912,5.88383859823995081228531,-0.641855043749269382757916,0.266735079731438062822235,1118.74173230609403617564,1183.62024622163517051376,1174.10416212165819160873,1156.75225964231367470347,-185.023889547938210853317,531.261781051490402205673,-1274.79739490813949487347,470.75226779611602978548,163.890718841704625674538
0.107499999999999998334665,5.33476999908539095685001,-3.83954670298029299146947,1.37189171807036824901616,-0.126388088144255700262519,0.456199101125195904948839,-0.00236400535850564115850081,-0.00358606650456510687649536,0.000181283890197949228238056,0.0161530757598712659817153,0.999861879463422753566704,-0.0243654343071911493046056,-0.267106003455470086827006,10.6879586444912373366378,-0.142843039103782099008555,-0.0361220865406201227520988,1.11633843649094788297305,5.88348020862569587308144,-0.641939837518315625786158,0.269531635918477729951803,1118.69007727336997959355,1185.17489513973032444483,1171.02295077048984239809,1157.42861516510470210051,139.853568318949214699387,709.568055149929250546847,-1308.72557513402966833382,64.1635648851205928622221,163.892755006530563832712
0.110000000000000000555112,5.32140825466030342738577,-4.03324986084413161790962,0.908212936312703611463348,-0.110164780957958605145386,0.444626414046791651468737,0.00350649467761014266634079,-0.00369146400771846669441878,0.000700171292750430642772008,0.016126464601057856340649,0.999861898108617808134113,-0.0367180069029114375389611,-0.272387748271969432067863,10.6304816303132181332103,-0.144218206121551367759892,-0.0368621096190606262199552,1.11804025174559962252374,5.88311838711268020318812,-0.642025816348470335093168,0.272324543774418281749661,1119.44100014768878281757,1187.1680864973848201771,1167.56053424598803758272,1157.073077466739277952,382.879830419414815878554,688.528398116295079489646,-1242.59970958773806160025,-308.124222538981200614217,163.894853427450726712777
0.112500000000000002775558,5.19591932743981299580582,-4.10239374418003688305134,0.461485382547966171973286,-0.0976410184104734152343852,0.435340853154348839115784,0.00575470221551644192659047,-0.00379740411346325083125075,0.00121037887998876113153368,0.0161109784598994776327885,0.999861445877342824850587,-0.0477955741993909416498454,-0.275365890766240406506427,10.5749723760968663555104,-0.145574255065719443402728,-0.0376068535858789312897876,1.11961050828750918739729,5.88275399665928233616796,-0.642112005033776411799806,0.275113837075331935100309,1120.60447642546705537825,1188.61753713031180268445,1164.80995222255114640575,1155.88799405240979467635,536.121732455557776120258,468.158037063085032514209,-1092.19688810171555815032,-624.520853388593764066172,163.896316855517397925723
0.115000000000000004996004,4.98435650308035338440504,-4.09206589909371132307569,0.0657614935149676421710652,-0.0865397515306969289383687,0.426192817768401288613944,0.00463244798314459398785869,-0.00390444722130558986503135,0.00171369275038031425827112,0.0161048974480762843719539,0.99986051778493800767933,-0.0575899096974459151487835,-0.276014244805928732340305,10.5215831622239157638887,-0.146907185526283928789226,-0.0383513333605088740929645,1.12106383717130375643478,5.8823888280372038650512,-0.64219827587507194444072,0.277902841642295117541295,1122.12160880996657397191,1189.50887668270024732919,1162.09954980547945524449,1153.9504731997963062895,631.704123595954456504842,228.278235995003143443682,-1090.00375544310281838989,-870.613426606131838525471,163.897486833822654261894
0.11750000000000000721645,4.7198490877383365571518,-4.02166322669287445989994,-0.208348140968740741518772,-0.0761531276436957921260884,0.416932724178342928311736,0.00141199695330233789165864,-0.00400888992167835848945412,0.00221893539314325623570956,0.0161070386214260188872949,0.999859115530307707153668,-0.0662631852791122077928065,-0.274245350039531543551163,10.4704289467332483098971,-0.148230362375198460034298,-0.0390808288195978875689818,1.12241145179856105507099,5.88202419713245561183612,-0.642284420003538247812003,0.280694290942260393784125,1123.76299704344683050294,1189.75892831028681939642,1159.35993344533562776633,1151.53492691937913150468,644.815863130589946194959,-72.5472134101893573188136,-1109.09680437612428249849,-1048.63840309181091470236,163.89841544012543295139
0.119999999999999995559108,4.39716678710149100339777,-3.87803825075477526240775,-0.275986854528536773578651,-0.0658783238769849732729966,0.40737982069958289521594,-0.00274042836829633922046678,-0.00411053761075574897176921,0.00273858707505243584648391,0.0161204591087028871465581,0.999857160564545210945653,-0.0740759573216058092581804,-0.270075289760072279054981,10.4215874202353848687608,-0.149567491674671149137765,-0.0397871215916049750238592,1.12366093929666344131135,5.88166094835118080652592,-0.642370061486047361221097,0.283488923220568178606982,1125.3456881256195174501,1189.14614061564930125314,1156.55406578359884406382,1148.7072811843372619478,630.762595635407024019514,-457.120048259867814977042,-1245.19550358663991573849,-1302.79550519908548267267,163.89905537352609599111
0.122499999999999997779554,3.9334835441966005120662,-3.61810044559866073043963,-0.106566657147720678100455,-0.0535523165582533766659878,0.395687882294175508057776,-0.00704354541207562363791528,-0.00421324557167067608592914,0.00327580370697065116625257,0.0161479296181003886823113,0.999854588244058817281257,-0.0811126060010765592700466,-0.263637567864249466875748,10.3751050964568669598975,-0.150922940487015044830343,-0.0404713099953158267352293,1.12481985349127100448641,5.88129934366169226933607,-0.642455462727801296374253,0.286287410944270181989424,1126.9168100216238599387,1187.4733280689874845848,1153.13395592740243955632,1145.02094939338371659687,486.756875885248064150801,-737.817463301416182730463,-1253.25494991361551910813,-1375.89694748280521707784,163.899492649472108496411
0.125,3.47505490683535489537803,-3.33305843511107369181445,0.205259969224927479869436,-0.0437106219984797483846251,0.38617757474113290072637,-0.00901675448998558344559928,-0.00431857803928335955145901,0.00383006904832337109409468,0.0161879745267442497203003,0.999851429416463655108771,-0.0873969093503507987730217,-0.255048456292674807777132,10.3310050083562163791839,-0.152293520309314062144423,-0.0411303037651314790101864,1.12589462771287518449981,5.88093955074673324645573,-0.64254102499104026602339,0.289089621625577997132694,1127.7794725050457600446,1185.45705329914221692889,1150.28779103403076078393,1141.82779644692323017807,218.906936720395407292017,-879.268074441642170313571,-1124.61390520065742748557,-1271.11661013818661558616,163.899583759887121914289
0.127500000000000002220446,2.94288660922030587130394,-2.9991856348479259963824,0.605837477673435653713341,-0.0350322076388977568517369,0.377663613892175398234485,-0.00827493914781052622431368,-0.00442291565382221633917492,0.0043958152792605321990127,0.0162371815060579072209634,0.999847794952510748878183,-0.0928628780036588330482061,-0.2443484390113288551305,10.2892935250393744439634,-0.153665045700107499859755,-0.041749502794140781747334,1.12689141593221253678792,5.88058170593160500772001,-0.642628094376911151996978,0.291898042440531579888585,1128.01134470522583796992,1183.07698769677926975419,1147.51088640139914787142,1138.6653663426927778346,-66.3566763241760213531961,-1059.37336499609864404192,-1193.86889309566754491243,-1343.02603882310791050259,163.899393886582600998736
0.130000000000000004440892,2.24165850705675806509021,-2.59089413865777107304211,1.06281735168146052039617,-0.0267001303956764732272511,0.36921500044821464747713,-0.00386709743811607933525187,-0.00452095027798499974475144,0.00495652780865509477725706,0.016293776650087531815414,0.999843821808511612481141,-0.0972359003306801639165968,-0.231576838011770341774209,10.2499652203067341815768,-0.154999039102767049991272,-0.0423097859545026530603273,1.12781799574333363445078,5.88022547878654844311086,-0.64271809711925920183262,0.294713040640635914879653,1127.44768912342487965361,1180.1601864741617191612,1144.31844656855241737503,1135.11266625280768494122,-348.882017122604963788035,-1034.23670619713357154978,-1141.64177163383919832995,-1230.73768317412827855151,163.898844377635981572894
0.132500000000000006661338,1.63466368726096789032454,-2.28972734482532525035481,1.3419235828830713419535,-0.0218379367270956047109021,0.363915213565761008762678,0.00196077552342594938969422,-0.00461113932306273476002811,0.00549987614426363825848032,0.0163546629269275267670736,0.999839640266307227989273,-0.100344617280379175272564,-0.216877653013755222755066,10.2130032310288445529523,-0.156266496790070541500484,-0.0428003247002758102635056,1.1286791885191431727975,5.87986977150016709714464,-0.642812226549631549055164,0.29753280093880002388218,1126.26693461961281172989,1177.90580416579359734897,1141.80267754322994733229,1132.5116779268221307575,-603.002016361460277948936,-829.641671518765406290186,-972.613752590040348877665,-931.807439427438225720834,163.898120950213552760033
0.135000000000000008881784,1.04721665097730465276982,-2.08190017204566846231728,1.45720070507054755282184,-0.0192017140335817293461673,0.3603728903824443552395,0.00826578999283611275117334,-0.00469497564343809153930565,0.0060155596652823163997259,0.0164173864053745004187856,0.999835360892696534129698,-0.102073435682441954197586,-0.200481951706940525470557,10.178384078308654991929,-0.15744302995807546441398,-0.0432168662272374229371685,1.12947795519600768798796,5.87951400520453226761219,-0.642910553603304069092417,0.300357225039660391541219,1124.4326790416175754217,1176.01197811656788871915,1139.45537780560221108317,1130.45362905567048983357,-916.96045734620304301643,-737.671299362545369149302,-991.229944614859959983733,-751.68497059594233178359,163.897125381348388373226
0.13750000000000001110223,0.411434086141567068040104,-1.97866960376622680328751,1.40100471208207899564968,-0.0183166908010452614274932,0.3570250047826802886064,0.0147190086378895038099479,-0.00477419673916345405073614,0.00649504799330796050993442,0.0164777707591186040048115,0.999831120219771940504927,-0.102353240783551846515564,-0.182648033144511640069041,10.1460819457011837130267,-0.158507990613057342388359,-0.0435566653828056357666831,1.13021603580046625658895,5.87915833159763234760931,-0.643012018072734892193409,0.303186976206317293502934,1121.68213233288179253577,1174.21744766898086709261,1136.8465278201556429849,1128.75325307384241568798,-1060.44646733962417783914,-586.809847001858884141257,-918.933278874918983092357,-484.77538405259065257269,163.895620602473911731067
0.140000000000000013322676,-0.0372478977131342481321497,-2.01656122095304546348871,1.22283063548128900777101,-0.0188937704859123006828625,0.353841139190974762751551,0.0185758077682922490003747,-0.00485359563147382249564954,0.00694141167766557706103603,0.0165311313861098360677993,0.999826980534359699426261,-0.101359382314980178696473,-0.163711735395212804045073,10.1160685401330834309874,-0.159466942983116699572577,-0.0438245737843698177083063,1.13089093321450695484032,5.87880288035389408918263,-0.643116523215473856467383,0.306022288854794710655227,1119.13044670491944998503,1173.07792888155859145627,1134.86071141122761218867,1128.02975213540753429697,-1023.56631717443542584078,-405.80488582063446756365,-748.284437451956591758062,-146.959059072332678397288,163.894111862799178425121
0.142500000000000015543122,-0.390902584653919471513461,-2.15571052335284152334793,0.967027400280726867620729,-0.0200630428870312606248749,0.349130239462756786217312,0.0208607718133953824735105,-0.00493809189107139844682193,0.00735512407075939681627696,0.0165765005567962003807381,0.999822964659718760316309,-0.0992198278958714846575973,-0.144027321598573843086655,10.0883182159396902477511,-0.160319848364798400730535,-0.0440260967082094500923972,1.13150107932885735095851,5.87844802964833679226331,-0.643223153362101451868682,0.308862539976548944320456,1116.5643007470096108591,1172.18842323987769304949,1133.10510563289585661551,1128.01845777848075158545,-993.702900928251551704307,-337.15869657853704666195,-656.741498861859668068064,101.502264816418133364095,163.892343479565454344993
0.144999999999999990007993,-0.668459691503335839968258,-2.34609657689950035219795,0.693925107147974729038253,-0.0214381675487983376637846,0.343166650523296645758364,0.022052145599942982873154,-0.00502892367463812512556887,0.00774017893440450376052464,0.016615855936986518442966,0.999819043462566447999507,-0.0961359290812010686133604,-0.123884879266537573094809,10.062807676650662003226,-0.161074698326834075956526,-0.0441590816644289868575513,1.13204473605189082086042,5.87809338661761238142844,-0.643330186503860534941168,0.31170642461535108536097,1114.16193220027821553231,1171.39213539866591418104,1131.57700391691832919605,1128.537263459489622619,-889.163482413009205629351,-323.861464968651205253991,-548.627380072005394140433,308.451268848376969344827,163.890363680918255795405
0.147499999999999992228439,-0.863076316903765516919123,-2.56131313782178260396449,0.448332983001357820995736,-0.0229306701377468592772946,0.336507637230906375691575,0.0222526676361917800928136,-0.00511581064915393908532071,0.0081046048835407107080453,0.0166523775620035091593607,0.999815193056094564383329,-0.0923876160447202610104256,-0.103349347915087916294219,10.039515126247636089829,-0.161748275663252061296049,-0.0441966127565361632800744,1.13252091241868657611747,5.87773833366595876981364,-0.643436615183471949386274,0.314552340506279726195515,1112.11848333494458529458,1170.56911591503444469708,1130.36196873253584271879,1129.56071412272262932674,-792.600639086457931625773,-398.397856255087049248687,-459.631088471223449687386,520.809541201742376870243,163.888134055303908098722
0.149999999999999994448885,-1.0090872987527748083636,-2.81492095333953340485778,0.228247445831463474652523,-0.0249711004935737057586209,0.328287073989021849218517,0.0218077757506209210514037,-0.00518381448343083802571263,0.00844611342433366704685049,0.0166854234065870118963737,0.999811544626579951078327,-0.0880464077295271541068189,-0.0824003103736713482518894,10.018418696657363398117,-0.162333567677327067491078,-0.0441046243823826206176264,1.13293351924133611774437,5.87738336909964154131103,-0.643540878501647983789269,0.317399406275031881197179,1110.19892900484592246357,1169.40014611739047722949,1129.27884847456220995809,1131.14131116549833677709,-611.35836647226767581742,-473.312242187921185632149,-340.555564841860984870436,600.927574441629417378863,163.885176773270302419405
0.152499999999999996669331,-1.05734375567247140814686,-3.00683019474034018969633,0.1220207036685212603766,-0.0271652276205118781149395,0.321125170973695805987091,0.0211706702132389394666045,-0.00523192979386838310368324,0.00876774672446793343350002,0.0167145507431871002956836,0.999808097691968655773564,-0.0832959362973532263518806,-0.0612936133715469219640504,9.99949058172873073147002,-0.162836257661509192784521,-0.0438820846965840838382888,1.13328464491447111761602,5.87702956567839951418364,-0.643641814048529048442049,0.320248394184261764294774,1109.06169150258324407332,1168.2025547040948367794,1128.65919090832653637335,1132.56535199493077925581,-367.088737033963866451813,-531.583184455848368088482,-205.476817438056798437174,549.277263987232345243683,163.882482992545419620001
0.154999999999999998889777,-1.02186409023813395968716,-3.16587417630576695160016,0.0951016552949044968734427,-0.0301407241416822499480155,0.313613635375351529344101,0.0206299174096357083862951,-0.00527100994573980255464285,0.00907789745619730185921537,0.0167388464557701316381966,0.999804747577133001712468,-0.0784293661637796846175519,-0.040511891909491157259815,9.98269735201804664370684,-0.163274635956822955495937,-0.0435562473743583006280389,1.13357477201120704357606,5.87667756191530621379115,-0.643740061874901403626836,0.323099350083011160883473,1108.36348531967610142601,1166.74223019511123311531,1128.25146438737192511326,1133.88769748543450077705,-224.571060072139317753681,-696.100950909430480351148,-157.011669630673935671439,517.850129494172051636269,163.879557642117447358032
0.157500000000000001110223,-0.87606764388960645106863,-3.30813903706554679473584,0.134025843214944373471553,-0.0341083659993755283768024,0.304521414451106697818261,0.0203838161133123203783146,-0.00531186263683165911519968,0.00937905592161293946706913,0.0167588062516299714233003,0.999801414457286319326101,-0.0736186259882749272076552,-0.0205244524332676772648831,9.96800006708671126887111,-0.163653667602308261486144,-0.0431552193859486427074401,1.13380770044410517094491,5.87632653948759031692362,-0.643836674946160480992319,0.32595290860435410795759,1107.93883620222254648979,1164.72204994954768153548,1127.87413256017316598445,1135.15460264240164178773,-103.5488273725603960429,-770.818389233908646929194,-139.147813653334992523014,390.161735202536533506645,163.875787136899020879355
0.160000000000000003330669,-0.674626681231344504929837,-3.3784078012156713022307,0.202060192532686949684617,-0.0369112470820181712283237,0.296800391000601959667904,0.0206521332386459706420556,-0.00536302375417402853174931,0.00967531140762961823498234,0.0167757525579746019639416,0.999798000364859662525419,-0.0690621968123046603427184,-0.00173643748692285659895873,9.95534945139204019426415,-0.163981784401948993412645,-0.0427026004925764729458493,1.13398854618567535013085,5.87597370567187304857271,-0.643932272182092479972937,0.328808174760975790995587,1107.84574118281329901947,1162.88813824894168647006,1127.55572531910524958221,1135.83850616144718514988,-5.17487218635323653614932,-737.234434174842363063362,-144.870850263214236974818,183.036240156707037840533,163.872433936070848403688
0.162500000000000005551115,-0.413879596929137505423313,-3.38607575701151919389531,0.273910424767831506276394,-0.0386070129685786370132838,0.288548128797479819240834,0.021513922816516570929446,-0.00542995839958337108560604,0.00997221447803806060328213,0.0167945331791404181553951,0.999794350856282543205111,-0.0649791191636175657908581,0.0155302358481795022004945,9.94468219953912502262483,-0.164270922346301917471578,-0.042214796982324373497697,1.13412403169926934154432,5.87561790745429934901267,-0.644026553990781680525401,0.33166306083498153789435,1107.91296184129078028491,1161.03587777867346630956,1127.14977830885709408903,1136.06978384318517782958,35.6263242983004317920859,-717.923265749004031022196,-181.864389510792364035296,17.2615445202154518256066,163.868868395380218316859
0.165000000000000007771561,-0.13039503955152662029171,-3.33187215492528254756621,0.324961622928959026346263,-0.0393772344770153548410008,0.279807203196301201852947,0.0228705790627766365752382,-0.00551377976377727570256315,0.0102735323473981624703422,0.0168206117635371667218269,0.999790341080206590440582,-0.0615421374283687261375064,0.0310644540227436594115318,9.93591780959269321726879,-0.164529341653481736562625,-0.0416991334874702856971851,1.13422363446776630624413,5.87525989355989608498021,-0.644119043490280818176075,0.33451637677812534610311,1108.02387280430480132054,1159.29852192019666290435,1126.64640337155128690938,1135.92481388404826248006,32.9214201729882631752844,-634.926423831574879841355,-222.229839896772119800517,-135.817634513023108411289,163.865131909390271403026
0.167500000000000009992007,0.144677504969114023580801,-3.19806124053330531609163,0.329170299161520796271674,-0.0389399258153036095797539,0.27081662190207678175824,0.0246309892617835937689286,-0.00561272211981588692308875,0.0105740398091904511113093,0.0168521577588702821393074,0.999786067752065576996756,-0.058735474625599665143838,0.0447378735531465399066775,9.92895698340623056310505,-0.164745268354464180493579,-0.0411598959740155576070286,1.13430154912742686690308,5.87490159628203034714033,-0.644210010876694827430811,0.337366083340707278992454,1108.07756894215572174289,1157.86124565951558906818,1126.03862910937323249527,1135.39069567062006171909,-14.2092273592879667631905,-529.311551669615710125072,-281.628542885846172794118,-291.65801643071034732202,163.861195603237661089224
0.170000000000000012212453,0.422480981174851555337568,-2.95864645186955455002931,0.268240841470166357929372,-0.036961241848272555210464,0.260416874131315256857278,0.0265892702941528183413489,-0.00572314464660969059173201,0.01086980571341359183557,0.0168859336136099637271091,0.999781647205245538323481,-0.0565559944239451967140653,0.0564907570914058021482873,9.92367939831742162937189,-0.164911057887981438163649,-0.040598394183465676132716,1.13437271038438414194616,5.87454421549194005791605,-0.644298559190439323884902,0.340208881303635912729533,1107.95282666750836142455,1156.65196416184858207998,1125.23826065712205490854,1134.46652380189470932237,-88.7825640965274089921877,-343.626942742821199772152,-296.653957304078801371361,-352.571716666306770093797,163.856249369825093253894
0.172500000000000014432899,0.589034941955304813809846,-2.72107688707276196282692,0.167217752685497017539618,-0.0345879759252462962160202,0.252643772336345440177041,0.0276196793527990758221335,-0.00583501879537271818387811,0.0111595646117052648554901,0.0169212597562657836303135,0.999777160753137272841684,-0.0550342275316866719192532,0.0664236065769166217354069,9.91994284972651740872607,-0.165026541838968421327394,-0.0400013985251198439518916,1.13445184356463313335439,5.87418846602170585669001,-0.644383529118267683877264,0.343044798655974370049648,1107.63365612167308427161,1156.14311094580148164823,1124.55535932285283706733,1133.62783708728852616332,-175.287721443055346526307,-99.1083177693780328354478,-267.089988446377674335963,-307.0649994527227022445,163.851948322529409551862
0.175000000000000016653345,0.680741619441010636926137,-2.49626078784025162704552,0.0314728190657809908659104,-0.0322407711116221781799673,0.246347001031226725542567,0.0278278359785607207199654,-0.00593903141361264153008648,0.0114459861047351181551068,0.0169561746815955968759049,0.999772665815232053354578,-0.0542600757401464212081876,0.0746584268767346292960951,9.91758680751821586341066,-0.165101875202021686206422,-0.0393582291907853543122542,1.13455132835850069916717,5.8738350152973204387763,-0.644464137887726828957113,0.345876307738098076605127,1107.07638806029308398138,1156.15642257300169148948,1123.90281071489016539999,1132.93119880463109439006,-290.893516073448608949548,109.301519128940128666727,-271.809118237253073857573,-235.690837124549233294601,163.847469425975276635654
0.177499999999999991118216,0.71660783913682923884636,-2.31323136036738485898923,-0.146300413923859284892615,-0.0298993491463410698827374,0.240542882216961545482903,0.0272527574443372430645915,-0.00602782462014293200086579,0.0117363814038254181404408,0.0169935439155717363246545,0.999768076081774648145029,-0.0543921162536588204128307,0.0813144273300518971581141,9.91643653413762748982663,-0.165159469009392101401801,-0.0386613908440949574640833,1.13467993489487173341956,5.87348355712543312989737,-0.644539707435590969453187,0.348704649115557874239357,1106.17918854130584804807,1156.68961854144617973361,1123.19631373166657795082,1132.44938290166578553908,-355.266104165504486900318,260.617216414449387684726,-242.718998174769922115956,-107.039035632988586144165,163.841899339795332934955
0.179999999999999993338662,0.701351234219547037262998,-2.28011993930315481904358,-0.290997590209136403061052,-0.0283940152153695050951665,0.236633637730293472367649,0.0262134849988036565393568,-0.00610089125558628542211892,0.0120332117592990787274809,0.0170345100728535835121757,0.999763351259752020006033,-0.05547154776705311152174,0.0864084319003325662666981,9.91631053568921849716844,-0.165212048004361872211021,-0.037919693497582097896359,1.13484487425282587480524,5.8731340809930072666134,-0.644610528516882497207519,0.35153107939508893009517,1105.30005753946556978917,1157.45950865507393245935,1122.68921572401632147375,1132.39600362646615394624,-364.82030413480936203996,346.35080172379247187564,-184.886683992681184918183,38.0047444981300586164252,163.837102719762668812109
0.182499999999999995559108,0.659743904286044680063128,-2.40671371598939298763753,-0.420654834971594171477705,-0.0271514065695502293529273,0.232891904364893043144491,0.0248638085746143502885452,-0.00616203384537562966205559,0.0123371288583973091196322,0.0170798008830037977012761,0.999758457514322462778011,-0.0574799639313319510325329,0.0899050068194696683221423,9.91702543575407879927752,-0.165269421437201885494162,-0.0371515651147053468927872,1.1350505756943012336535,5.87278711100631767294544,-0.644677525823576291763572,0.354356454830700884350847,1104.35508702063179953257,1158.42137255006514351408,1122.27188031170317117358,1132.6394066241564360098,-419.955896813507536080579,436.361482513302291863511,-164.646903807806523900581,133.780984562053959052719,163.832155469522916746428
0.184999999999999997779554,0.597144282656458247338094,-2.74901436387147324325042,-0.556328887892548529237047,-0.0257440821541493648771937,0.22768456996458880103873,0.0232376501316730148249956,-0.00621389837882611786173959,0.012651132340444827539816,0.0171288273891144170180123,0.999753365238468805209493,-0.0604198874712309486056938,0.0918242457208878204433233,9.91840000031625201870611,-0.165347516264225363746831,-0.0363724101979907010750992,1.13529745860212960550939,5.87244312583221272916489,-0.644740668468528066448187,0.357182016566222004794184,1103.20027805539803011925,1159.64131606764044590818,1121.86598120497728814371,1133.06490854927642430994,-422.474393087986356931651,441.359108973119475649582,-135.549448073606868092611,139.755970965370465819433,163.8260572100429612874
0.1875,0.542411241918226538771819,-3.17171220659711883271825,-0.655718287844822000920431,-0.024698723468485631049596,0.221981266592049281127785,0.0220168167772039728713462,-0.00625433836789320365956435,0.0129634810759377168409845,0.0171784544946208747595584,0.999748293999580206481426,-0.0639756706565711014134124,0.0923053326152792896763799,9.92026221692683130015666,-0.165429133289511448579034,-0.0355871501158063416325739,1.1355876944904930159197,5.87210456124650548304089,-0.644800227193023212102219,0.36001116402934174587358,1102.24271505519186575839,1160.62816809493074288184,1121.59413307133513626468,1133.33818647898328890733,-376.455164648586674047692,377.482510419030973025656,-99.3907848650450489458308,52.7026744693557205323486,163.820850442006843650233
0.190000000000000002220446,0.489068389147462201371752,-3.68629635919410247879568,-0.744140351717194836744795,-0.0238579081417654714769583,0.214242794763836785776334,0.0209283359372206718973519,-0.00627915960153716846969818,0.0132588194840216402892175,0.0172226465996544036984872,0.999743574868487749895962,-0.0677366975940103394071556,0.0915522925396710929302202,9.92245530962304833622056,-0.165488824644029364208109,-0.0347958995143140686900907,1.13592152146303870807742,5.8717743193515410382588,-0.644856928161050224623807,0.362847674669358633003924,1101.31800223215509504371,1161.52872861973560247861,1121.36902728065206247265,1133.32842192162320316129,-355.807797933311690030678,343.409821523163998335804,-86.5623444877655146001416,-66.2854080992473768674245,163.8155263000692514197
0.192500000000000004440892,0.435481307353277002913927,-4.2275884338225422354185,-0.821081515608344747469971,-0.0230611855976973062487545,0.20487466474485604983613,0.019767468007023281106882,-0.00628758096438593577087728,0.0135244459843104920110379,0.0172557115875138361582586,0.999739483250576710382518,-0.0713249592459779396813602,0.0897231374926861224849972,9.92484424520114494328027,-0.165506716536490516844538,-0.0340050203253844593453969,1.13629547568654176714631,5.87145314106539295551102,-0.644910719068451210311821,0.365693112230282169061724,1100.46367606552530560293,1162.34521720254656429461,1121.16132134889630833641,1133.00675943848705173878,-305.880249199981051333452,306.568529919649961357209,-84.4415578812003531083974,-198.741403650183031004417,163.810114196360729010848
0.195000000000000006661338,0.374659100461897320855087,-4.73771678337709545303369,-0.871568938930157299793677,-0.0222224872742965776084567,0.193659532416657148568007,0.0181868702664985948391774,-0.00628356025811532391961434,0.013757629930251187230783,0.0172730308550125347122339,0.999736116442682454241719,-0.0745446768165391876470594,0.0869013180701942444805752,9.92731912008928318869039,-0.165484187531988180541731,-0.0332295506073332705399004,1.13670100587904299160869,5.87113920377068421174727,-0.644961367251632333719158,0.368547601571122873664876,1099.78860098615518836596,1163.06157126933385370648,1120.94681949124606035184,1132.33471490337228715362,-223.829365210531051388898,291.569827086322845843824,-102.324400245743078130545,-342.526402897373998257535,163.804607314177559374002
0.197500000000000008881784,0.280311392485546040376221,-5.23762746385381738889464,-0.874475629474906313021165,-0.021326772008772768018936,0.178090192229983040883567,0.0154426424053583973700077,-0.00627349801227817301801926,0.0139614509916806735917438,0.0172709300870989429510516,0.999733465086457107062756,-0.0773046202766257822824869,0.0831350241724309602098231,9.92979730036217489441697,-0.16543335817427343159558,-0.0324881155740306543089346,1.13712727262832791197411,5.87082982469310099560289,-0.645009866498839623538686,0.37140963825672840270542,1099.34452923947264935123,1163.80306633797817994491,1120.64969934766759251943,1131.2941274240001803264,-79.779509904392327257483,249.269678961172530762269,-119.035094118635143445317,-383.593018809142108693777,163.797903978242800349108
0.20000000000000001110223,0.173241933474832521255848,-5.51614500393792539512106,-0.807269318178536088304043,-0.0207084753554791119178891,0.163637140939591030353029,0.012418350322887095407709,-0.00626054799513728766485743,0.0141369742999708919439783,0.0172491689027835445879866,0.999731509665556683508214,-0.0794661618672188319045802,0.0785422368044486896021539,9.93222390909839525363623,-0.165358542721695894739398,-0.031789511690350852335385,1.13756526116615264143661,5.87052188516658191019815,-0.645057946823752059728463,0.374277061104606512120796,1099.3897034366332263744,1164.30791966413971749716,1120.35164402065288413723,1130.41674980932657490484,119.656544097870110476833,171.312807289768755936166,-131.428086253208562084183,-308.87254292042570114063,163.792249161314629191111
0.202500000000000013322676,0.0242028228720927787720463,-5.62131261173018614840657,-0.652165812816314582889277,-0.0200882581102789017912791,0.148376004399760313967604,0.00914253219493381570626145,-0.0062495468625751553204406,0.0142888934089403854543754,0.0172128390378664640480988,0.999730076445361937054201,-0.0809632540796824673456911,0.0732097258368201442291223,9.93457239995670526866434,-0.165269109134822150819488,-0.0311432499883918800787086,1.13800637983304198108669,5.87021209465019300210997,-0.64510639860689900082491,0.377146472724192438619184,1099.94281195996200040099,1164.65963037442702443514,1119.99255891640154914057,1129.74976470939805039961,357.318238855532058551034,107.555068529063547089208,-168.805330824670676292953,-210.900173599656937994951,163.786535559837886921741
0.205000000000000015543122,-0.212545297054241022483012,-5.55061444166189055238192,-0.373128455745456444336838,-0.0192458657604408639452132,0.130360333688621321535095,0.0060272916679786504162708,-0.00624548997336632667753964,0.014417187100688249115632,0.0171696028281924789604673,0.999729013203409011545375,-0.081644446774153403567631,0.0672161423903058496964746,9.93684408672885233215766,-0.165160499911407188111667,-0.0305575030830867976072707,1.13844568635799681111109,5.86989827840585398632811,-0.645154981789183623597239,0.380014261039088085958326,1101.17629463091088837245,1164.84569500678503572999,1119.50761736652953004523,1129.36224894132828922011,530.253075454902045748895,19.4533946885712616392539,-179.130851297759193130332,-67.4039712165267133059388,163.779625802522872390909
0.207500000000000017763568,-0.455620983163334603016636,-5.35594126835435968558841,-0.0900355560395880855084627,-0.0187171286887822911626511,0.116655618162081156641285,0.00472173866607486156232731,-0.00625100632585606254265631,0.0145184844468384272736516,0.0171263004269280906533002,0.999728244549211941816225,-0.0813069117778800060092337,0.0606787160460022789720824,9.93906520542905091986086,-0.165017660014804529167165,-0.0300345474008339476112983,1.13888144114505585058339,5.86957970256115757479165,-0.645203088365964738670755,0.382878640578948603589993,1102.59407733723651290347,1164.75689734786988083215,1119.09690465991275232227,1129.41274485331541654887,615.599069420889577486378,-95.9589639582650164584265,-148.613358371085951148416,80.8941696627702384603253,163.77383375458077807707
0.209999999999999992228439,-0.724755621964433105475223,-5.07372571369921310235895,0.196078523155657657994766,-0.0191284316665511697208579,0.105061191203497564239377,0.00496276180067743016843806,-0.00627203768632714035724529,0.0145925481312792187232885,0.017086662417301081567933,0.999727682499077618949457,-0.0798335530609294713455526,0.0536388908024538757501887,9.94128478245974989135902,-0.164830732583962552562085,-0.0295842974691684149068927,1.139312027684281192208,5.86925611721115991770148,-0.645250464581838989452933,0.385739387532906208289063,1104.25428997801532204903,1164.36590018699371285038,1118.76455057467410370009,1129.76671978964213849395,743.024298832509657586343,-248.087751806134548360205,-98.7920706848858571902383,181.38649393145072963307,163.768019186840518841564
0.212499999999999994448885,-1.02882754676337073718173,-4.69411821481380009402073,0.47897061336364027406276,-0.0216886482023420160136773,0.0932617545343115417200153,0.00711085588103338266108278,-0.00631768233273048533671368,0.0146429018568305976261135,0.0170538251677373429993079,0.999727174778225702311829,-0.0772087116493625352786623,0.0460616559484084558961925,9.94357139748259832856547,-0.16459750143097665042724,-0.0292232799203563584078402,1.1397350508489532128209,5.86892827566281205520227,-0.645297025187079098529352,0.388597329514700384756054,1106.30919883139904413838,1163.5164585888392139168,1118.60294430648832531006,1130.31967732297266593378,734.621680121198778579128,-374.030863314055409318826,5.15255895875270208961183,181.223594141965634207736,163.76103011549693633242
0.214999999999999996669331,-1.22381137609820145328854,-4.36896503117470391686084,0.625181458107844090221761,-0.0255391654462651940260542,0.084417247571163492314561,0.0101309796533303481808064,-0.00639097183038565743590231,0.0146807823209791042662342,0.0170314409383696338529113,0.99972648183833701107659,-0.0735962130694734345537356,0.0380170044318164784824532,9.94600748971188863833959,-0.164332943710678774928979,-0.0289531314380244049477842,1.14014597449004972951059,5.86859775505499392522779,-0.645342314743790779196786,0.391455201688921949898514,1107.92739837862131935253,1162.49574587042343409848,1118.79031336946786723274,1130.67283776035196751764,601.828967440541759970074,-465.191570348406060020352,169.232388294631022063186,66.3685026419897781124746,163.755206254131365994908
0.217499999999999998889777,-1.31767472687145836829359,-4.03277835414931917767944,0.654315536512151907366786,-0.0303657564794447554223922,0.0756492969041943491559365,0.0133323930129200900196462,-0.00648462328310346440563006,0.0147131456610160079451211,0.0170214263389662674719194,0.999725516651452927874288,-0.069101843230960607877833,0.0297583404804891010764223,9.94868785944451694547297,-0.16404229762017466520696,-0.0287520267072293098098434,1.14054193029456785168918,5.868266261567727681836,-0.645386672438215014402374,0.39431647443696349331077,1109.3183436686017557804,1161.19050073709718162718,1119.44910624796148113091,1130.65151983618261510856,508.619974061366065143375,-558.759183217307054292178,355.542658518970370096213,-101.325292754745447609821,163.749394015030162563562
0.220000000000000001110223,-1.31553709498279070011506,-3.66530276567541202226153,0.589547921008436559553445,-0.0353164812237101236047643,0.0665217919701219795314273,0.0158912146350629231161822,-0.00659143199044306439537966,0.0147415163209319265147368,0.0170239580714610268252773,0.999724301312247209949646,-0.06375399575263286655602,0.0215137533164821148634616,9.95171920971079870810172,-0.163719249716801434901825,-0.0285984427007426739164586,1.14092149840189960308123,5.86793506638661988006334,-0.645430322594919059220331,0.397183558485296850371071,1110.47049824892815195199,1159.70194995433689655329,1120.56802666206272078853,1130.16621129657823985326,402.261261029707043235248,-623.899353535352361177502,562.098492100266867055325,-320.678411154449065634253,163.74359929270079305752
0.222500000000000003330669,-1.20995776889945738652443,-3.22366691574287944632715,0.435942399837763727710183,-0.0393758047313917253218207,0.0569585551006353274505756,0.0174005429459333504915719,-0.00670193185595925090825009,0.0147643372861020871072979,0.0170411367081582040827747,0.999722885494164770214809,-0.0575472315748438434379608,0.0135316382581055077993781,9.95521569487287116828611,-0.163351565356773947845781,-0.028464684696791264090221,1.1412845936270090696496,5.86760534988285975543931,-0.64547399048866160864435,0.400055939367383706084524,1111.32964997375029270188,1158.07100396942041697912,1122.25959870846281773993,1129.0481277804103683593,318.430627179395457915234,-730.761907675422889951733,861.660637846761460423295,-619.448233995034911458788,163.73783462041103575757
0.225000000000000005551115,-1.00629217610645893543619,-2.57561129043569136953806,0.192626299312769450056138,-0.0421379798144547595972753,0.0460943061002924911462308,0.0182396393687115285220379,-0.00681481886462886963379271,0.0147810958267699226603709,0.0170694782871655161005098,0.999721343544356266797024,-0.0505280092328731639250705,0.00587560336591902432346046,9.95929608661198173535922,-0.162930628839674462859932,-0.028342886637851193165627,1.14163111528763305813072,5.8672772617293782460024,-0.645518812406755460031604,0.402931411533849592743195,1112.06265138482513066265,1156.04814041595977869292,1124.87632985129653206968,1127.0689701266030624538,227.247058884085873842196,-741.446380422939228083123,1032.97193835501184366876,-791.716024937112933912431,163.730962547998956324591
0.227500000000000007771561,-0.808322745233395090203032,-1.93854329649487056030921,-0.025787932509716310347514,-0.0427598582470647345377124,0.0388298944956490324487142,0.0182645154137802100124954,-0.00693355272032390723691009,0.0147901905631241548794153,0.0171026807458826389518602,0.999719784079087014916354,-0.042746878854612424536441,-0.00150865966904874249099322,9.96407867245480183271411,-0.162446542716426556296483,-0.0282367739117039620588834,1.1419623681716850605028,5.86695015011015019723573,-0.645564947944539779811635,0.405808562593747534918975,1112.46588526817072306585,1154.3637720673057174281,1127.42445840023788150575,1125.08954765572480027913,125.734024902931082579016,-666.388768102296467077394,1055.60705743296148284571,-791.148885567735533186351,163.725281128824377674391
0.230000000000000009992007,-0.607566120893471950381581,-1.2355665778314159908291,-0.222830186122568441042802,-0.0426459981156945694413807,0.0344797833376237622404759,0.0175156766410638764508434,-0.00705659061047861618093391,0.0147989323805536362316237,0.0171379603439729202851716,0.99971815823594312178102,-0.0344488400784322551517747,-0.00859559035540634341909794,9.9696746285757136263328,-0.161910881492180969143391,-0.0281373945277535106312961,1.14227868807324073330278,5.86662250864396384031352,-0.645612314611096804739532,0.408685872330741273295018,1112.69132150933978664398,1152.71619657544829351536,1130.15436513846134403138,1123.11322569876438137726,62.1453464641944606228208,-716.498975345938788450439,1193.55553011368897387001,-782.240102631202944394317,163.719654953056078738882
0.232500000000000012212453,-0.359103970104650838113258,-0.381933683285969993725928,-0.39778228769810164422438,-0.0429642688141962728054501,0.0326570154318747557509184,0.0158389121285102338343442,-0.00717629993079975467967779,0.0148197996455159027029413,0.017171440566358976698158,0.999716404614142017948097,-0.02599572896976143007719,-0.0152561884953313214863257,9.97618479893524678914218,-0.16134809612729400507547,-0.0280224534778146551483591,1.14258076523732210461048,5.8662937916383608438764,-0.645660807020062232908231,0.411562301164131116859579,1112.77661200049169565318,1150.78127719057602007524,1133.39223605080633205944,1121.17834714256878214655,1.60642959881442815017749,-705.501339006877287829411,1150.10942000444538280135,-582.800993536692999441584,163.712976421407006455411
0.235000000000000014432899,-0.123670228807516033309177,0.287931839417586155072115,-0.47314351071806687309973,-0.0441448224853751777785327,0.0334737309881471198358405,0.0139867254245531983519735,-0.00728972820803707333842114,0.0148638913679746565571493,0.0172020421807696152760592,0.999714404002070122778889,-0.0177338906766404368064993,-0.0214730343923242583681343,9.983697606230663268434,-0.160781450113952256719685,-0.0278804219569699050784717,1.14287094784283937975999,5.86596507758461349624213,-0.645709951211579480379044,0.414437996984996503968546,1112.69935365733385879139,1149.18868988041390366561,1135.90491223848357549286,1120.19922073108091353788,-58.1802989035622388769298,-634.346198729735419874487,942.532601441552401411172,-219.391276220676246566654,163.707478143181475616075
0.237500000000000016653345,0.170150484767922716144994,0.867220931929026828122176,-0.464864598204604684283936,-0.0460457176731102549305241,0.0360656828994537284605038,0.0118694381687897802801768,-0.00739661597060180774076965,0.014928988148038526556638,0.0172279994993086681132066,0.999712222477803114095707,-0.00975086721152437427284632,-0.0273008390202259809687035,9.99228477428815864413991,-0.16020579633617618164898,-0.0277077924229135186262596,1.14315693647585936432165,5.86563793516674003569733,-0.64575948257543502872835,0.417313316874561857083847,1112.48571050597388421011,1147.6095461969273401337,1138.10489905801409804553,1120.08139076146539991896,-112.76319482990454901028,-684.023879191321157122729,885.418617250301849708194,155.870505487428829383134,163.702057172883201019431
0.239999999999999991118216,0.596909257076373100936451,1.42515737328252978244336,-0.365143624909451069981969,-0.0475677609700637660239408,0.0406475641575710644470831,0.00959642464136256471973763,-0.00748389794188486501269608,0.0150084582869797391463385,0.0172501495299790912063553,0.999710033202900527626866,-0.0020411488212109217543766,-0.0325508057023775609906124,10.0019957295651771289613,-0.159607577011613405160162,-0.0274724895650163628002538,1.14344960064101686114668,5.86531356163637607181727,-0.645807529539440761112701,0.420187566450318350508297,1112.13553768318433867535,1145.76857048445731379616,1140.33200532473506427777,1120.97857325851805398997,-126.857688361906781437938,-652.846249381949178314244,749.51879585510494052869,481.354693743426139462827,163.695650121759683770506
0.242499999999999993338662,0.989811681804272702756009,1.7676391465534420088801,-0.225545807587236385449714,-0.0468226587022930948456256,0.0451792116217488159968241,0.00826722086516913472198365,-0.00754288504573774002542885,0.0150941593329716530758056,0.0172720919375913065096917,0.999707953385429060055856,0.00543522122284209943665623,-0.0371283884393469182372272,10.0128566032546242325907,-0.158972055890024943636263,-0.0271531311066077543636688,1.14376072250680294040137,5.86499338562660277318628,-0.645852955572195241984446,0.423059989109527190276339,1111.8514220641643532872,1144.34531495001760958985,1141.85249303728960512672,1122.48816423018251953181,-84.7223823384864971330899,-524.353298466439355252078,546.816473175885676027974,710.960182910093180908007,163.690399022146806373712
0.244999999999999995559108,1.36468318230375906807694,1.9884511112996050563595,-0.0615762420410457603225929,-0.0431907411364526941377484,0.0498604444751254635703752,0.00784761504712249910453714,-0.00757113107981515799649319,0.0151784518687768932299065,0.0172944199667689479937849,0.999706101398309066041747,0.0127152098027701644655796,-0.0410641910067854054577907,10.0248684340565930028788,-0.158287517101828062449087,-0.0267447607155310539128745,1.1441018881967073284045,5.86467864960444540400886,-0.645895675133930424749451,0.425929639036878304736433,1111.71192577149190583441,1143.14680399212511474616,1143.06608769061449493165,1124.53337417306852330512,-11.332552389876571652394,-425.337818708203087680886,442.272581167662394818763,857.541213838202679653477,163.68524694565121535561
0.247499999999999997779554,1.67887654402328134750633,2.11856639277839242652135,0.0922389079029447139790321,-0.0377497397382746055494174,0.0545205967722891884919001,0.00831139613171076423181471,-0.00756628716309768259429269,0.0152645730521005773550058,0.0173169819710605778217971,0.999704444261330316123804,0.0196312073914798081164523,-0.044383934381112544187431,10.0380065000535321217967,-0.157568420282898469242383,-0.0262434714773946975441277,1.14448112934345380686807,5.86437029796310493878764,-0.645935632235851153737372,0.428795344677299239410928,1111.79475930221497037564,1142.21862585647659216193,1144.06385594312791909033,1126.77587029937353690912,103.104396086655384578989,-292.473794497800270164589,355.491033548832660926564,884.840050969159278793086,163.680182648603278039445
0.25,1.88423576867743891583018,2.15119980278502698212151,0.19981943672718610605088,-0.0314737661479324165592075,0.0593417655553859849093534,0.00951412740108982177278385,-0.00752689727810402445934423,0.0153581765562469021307868,0.0173382692896236895174766,0.999702933878629629305124,0.0259822717976665208683418,-0.0471229213102747485075739,10.0522209295848696797293,-0.156835483001716458062447,-0.0256485210577135185061604,1.14490499519731114830279,5.86406858272894204731074,-0.645972989643603168197217,0.431658970699547395177831,1112.22744775192518318363,1141.68443501963611197425,1144.84354285835865994159,1128.95757442791432367812,273.533795932280327178887,-142.986705432849589669786,300.893968513446168344672,882.068602976413899341424,163.675231076602727853242
0.252500000000000002220446,1.99657544078617199545533,2.08778373959372665069623,0.244632144977077137237842,-0.0242390399112455239005737,0.0654625185457874680938772,0.0112167274577551160513744,-0.0074583618847040055246933,0.0154604017612070872983443,0.0173579048515064907065586,0.999701523039758233046825,0.0316735244408000438109951,-0.0494456670025650024680175,10.0674377672318478005309,-0.156099476024085553893528,-0.0249754137309715559811529,1.14537987114934391996712,5.86377298134634905579787,-0.646008522195471113214182,0.434523836085042136634371,1113.16242828187637314841,1141.50369232931234364514,1145.56832578569515135314,1131.18621331425561038486,399.037084443261505839473,-2.42952414096180069336128,234.760125602724457394288,719.239716889250530584832,163.669428276575729341857
0.255000000000000004440892,1.99629935997831586824702,1.9550746565746219829407,0.20132715285415714312478,-0.0189579116967526530024291,0.0705821693531826915846139,0.0126172204533897269751463,-0.00736994269061072397597467,0.0155657228360745331086079,0.0173720477971926745563991,0.99970030077612614949345,0.0367611597695247649397743,-0.0515822692717286396257848,10.0835602483588768762957,-0.155355379559791145771541,-0.0242503011107754740116604,1.14591260506654846196284,5.86348271926138320253585,-0.646042615325796321101848,0.437391274900127913216608,1114.22263317414149241813,1141.67228739893130295968,1146.01734348637228322332,1132.55377301236057974165,454.027649253202582713129,107.068499366732694966231,150.54979869441908135741,422.645590828414754014375,163.664714677017656185853
0.257500000000000006661338,1.9357064851102034896968,1.74879376064392078049536,0.0764811756913847812233698,-0.0146102736757346834961524,0.0755441221022100095616736,0.0139490476475777995524208,-0.00727227883746814525445235,0.0156636082664037452893968,0.0173810110530019622243625,0.999699351983490469564231,0.0414222003840154229248327,-0.0537785205504189844916141,10.100471111734849571917,-0.154585794299076206836929,-0.0235020918565773118125151,1.14651021606648595430045,5.86319733933038644835278,-0.646075282945446249804888,0.440261235163517061774741,1115.43256652814238805149,1142.03903482614600761735,1146.32107477916724747047,1133.29944126839768614445,529.36618641101586035802,174.655874398831514326957,102.074201689765601486215,179.281380762904348102893,163.660134815899624527447
0.260000000000000008881784,1.83821937336988305844443,1.43589415271726483780412,-0.145332801764959357315732,-0.0102229355359966973815222,0.0809976745389094782145989,0.0149719797303725539461272,-0.00717950623237879805710326,0.0157520603788457065619344,0.0173869533503670341267888,0.999698567721017283815854,0.0456792519444647049375874,-0.0563314210444876145578164,10.1180368700883054344786,-0.153791559002510097586836,-0.0227674478161375842821812,1.14717580752959746881459,5.86291514895918641769867,-0.646106934364671481318965,0.44313439039792551499275,1116.86946410619657399366,1142.54556677092546124186,1146.52771449482111165707,1133.45017991617510233482,502.076567804078422341263,181.223028660133252287778,51.1606880846556606456943,-56.769050346019817254728,163.654801385935314783637
0.26250000000000001110223,1.76074523355902878840595,1.14429967470530180584376,-0.360234469491613307212674,-0.00704193473069680050263619,0.0845344713628293220608612,0.0147486497666875961826127,-0.00709763716920285437500526,0.0158314992659741790581585,0.0173889420627476379288545,0.999697912388921250403939,0.0495246959999504632321532,-0.0593527684217249884568446,10.1361104769694776450706,-0.152976928786696164674908,-0.0220657278311973924223022,1.14791130552423870092582,5.862633972766770895646,-0.646136777921127225532416,0.446009565625480108863599,1117.94294936716278243694,1142.94514996944667473144,1146.57687821959052598686,1133.01559601666758680949,391.015937110432446388586,153.971131084472148131681,-1.47363946189216088455964,-255.958767170977580462932,163.650497649615260797873
0.265000000000000013322676,1.69980321794813793445655,0.858680582196568842334727,-0.559956764065648093797734,-0.00387905536375712442498376,0.0865923053204580989161698,0.0132058642745995838407858,-0.0070303979056428400964962,0.015906094080979486099503,0.0173891888280056153281983,0.999697254454569139703324,0.0528901994788560647631215,-0.0628873336334833527017096,10.154535340198918902388,-0.152153132658279538480528,-0.0214106048983957186759852,1.14871686678962547922822,5.86235190133003492007902,-0.646163685666070963797836,0.44888538674402894690374,1118.8245437917487379309,1143.31542242634782269306,1146.52034629751165084599,1132.17038608032021329564,351.94486511554686103409,178.291259126672059664998,-40.0385036972692986978473,-405.558460665588086158095,163.64634630112115587508
0.267500000000000015543122,1.6385418968434328768069,0.568198114628931771896703,-0.729065477620501223299243,0.000235847808442731128597547,0.087688009771966404781729,0.0103397918126978474728794,-0.00697745177473148552732551,0.015975725864402750414639,0.0173909738210871432639859,0.999696540434141023290238,0.0558075641468034899794759,-0.0668779924939472691924891,10.1731480980936783709012,-0.151320140043966655518659,-0.0208067175675814321211821,1.14959333027372045954451,5.86206790925672915903988,-0.646187257883785504120056,0.451761699033178532047828,1119.70267369274051816319,1143.83660626508003588242,1146.37668570110417931573,1130.9878037133396446734,313.604688754730602795462,231.229983546745444300541,-56.5083374332061296740903,-409.432876646632962547301,163.641547817220043725683
0.270000000000000017763568,1.58152229846520886447081,0.395165394706371297939285,-0.781461219556947916942136,0.00401376566866119052073847,0.0878963714474914475927037,0.00753588987540637546963529,-0.00693545028868645333647303,0.0160450271353817577879575,0.0173936467959321348908386,0.999695729594862414479906,0.0582220810865414495349768,-0.0711814628865554133163585,10.1917834235967887934748,-0.150487912445902677349707,-0.0202527189553876191263626,1.15053918605373550754223,5.86178168850805292322548,-0.646207096559620275399993,0.454639658219833375785157,1120.39256723552239236597,1144.47157234408155090932,1146.23780461034561994893,1130.1232216970870467776,305.996360005201211151871,330.498012867655859281513,-48.9585454254665393136747,-262.471969809894062564126,163.637706587179877715243
0.272500000000000019984014,1.49432508319359502735324,0.309567802271802805513801,-0.722105994830743336265755,0.00819331153706181342100123,0.0876613654045925172475506,0.00450849474380989739819015,-0.00690332966617971787587349,0.0161146635406361066200631,0.0173961851303345085839602,0.99969483557450689037438,0.0601665461700892079122127,-0.0756818034769566605479696,10.2102767190966066124247,-0.149657346949845393435652,-0.0197524983328644238023131,1.15155280194103437629849,5.86149508665340235324948,-0.646223349013766767967581,0.457520355499952346978176,1121.23265549276652564004,1145.48909632941831659991,1146.131892973976846406,1129.67544386429017322371,392.190590952759180254361,488.790902551817907806253,-31.0171929717398313641752,-79.5430308768572302824396,163.634034393147629771192
0.27500000000000002220446,1.36662754238688610719521,0.29573028959756592071173,-0.569112867429869662139197,0.0124347814958745833679998,0.0873304782299134524370388,0.00156758596751683924354348,-0.00688264976380475318462615,0.0161864256420860136431727,0.0173994949492539685564907,0.999693802192024194575026,0.0616564122977636408506896,-0.0802993766096004729648783,10.2284680719180460783946,-0.148832588853452102428676,-0.0193147796785915898398756,1.15263084267859894360697,5.86121085039913314318483,-0.646236148507431384935273,0.460404542590309717731145,1122.35352019028618997254,1146.91552685684064272209,1146.08271864548692065,1129.72550654270276027091,544.433815579213387536583,671.831621766386319904996,-3.83537262719073268613101,150.68303866182745309743,163.630506155259922707046
0.277500000000000024424907,1.18142365122859982484727,0.351657109785558585901555,-0.32175362292557041499208,0.0161699787922112113436324,0.0874857273648429190071596,-0.000476479671679252178399799,-0.00686994360972553296668108,0.0162677904893070296443724,0.0174055471228630152802364,0.999692494439618717372298,0.0625973112099873774116787,-0.0848358385263395381459262,10.2462061748790702608858,-0.148031468467406973621436,-0.0189351512562195706257384,1.15376736881340558049658,5.86093085213048237136491,-0.646246480009126322840984,0.46329359542569858998462,1123.95482457066259485146,1148.84825443825025104161,1146.11271611084089272481,1130.42885905759931119974,827.308426256376378660207,941.807335965494644369755,26.4936440484234232428662,436.235704369846246208908,163.627155565610053145065
0.280000000000000026645353,0.896306659561913798839328,0.462330517736595669742172,0.0376951146940365383608551,0.0195577834707287186166713,0.088941230588008318713733,-0.00100217719223049100268907,-0.0068626237385144778571644,0.0163614033309946137195734,0.0174169311174698776545355,0.999690835897584562097506,0.0629965568728748093185743,-0.0891019684198942896191653,10.2633497425079092124633,-0.14726139461227419347189,-0.0186099592017984899472438,1.15495693731472526266657,5.86065592242579036508232,-0.646254894989049089026878,0.466187602766901687534329,1126.49006232156807527645,1151.62456353666811992298,1146.21518686572903789056,1131.90668506455199349148,1018.25390952458201354602,1058.38306142286364774918,40.4972382845243927818046,606.685044924369663021935,163.623344861111235104545
0.282500000000000028865799,0.61633003716305079233706,0.561379917816061335678057,0.347943812021855147786908,0.0214086823822666749705945,0.0910642837437858759797038,9.61382259405176584424191e-05,-0.00685927276786764839738852,0.0164693041644592037819894,0.0174319537916245125008796,0.999688824881774351638342,0.0628753512359054578251261,-0.0929246893555179254153842,10.279770272290722488151,-0.146528688926005012937992,-0.0183378794051027929623565,1.15619361718031710140053,5.86038522418017215898089,-0.64626164276067077363308,0.469085108126125693850383,1129.04609411828550946666,1154.14016974536457382783,1146.31520230226351486635,1133.46228428222116235702,1073.68746866786659666104,995.141597433984316012356,32.249561041680834705403,628.203766762180180194264,163.620347211329971059968
0.285000000000000031086245,0.307225369839165651786317,0.642346867904660001613593,0.62489786613255970948444,0.0224275661968073893037801,0.0935549054721960954283944,0.00214033033040468643332099,-0.00686233937896446512944015,0.0165910148770012123853324,0.017448982925112110214938,0.99968647190874060370902,0.0623065250145678206639133,-0.096210680288186870012801,10.2953533164092032592407,-0.145834052308032036116003,-0.0181249896116562406178652,1.15747163576976608290181,5.8601180871185292176051,-0.64626672043842570136718,0.471985020112117792390194,1131.85849966490741280722,1156.60027152383804605051,1146.3764346709374422062,1135.04770389836289723462,1228.70932133837300170853,1006.89873672154044470517,10.4886956050904611714714,642.741915565783870079031,163.617537227415994038893
0.287500000000000033306691,-0.0803738878027096259604178,0.71016186931622593547786,0.883332464509090753423948,0.0230222974779077486917611,0.0964728835165257758710311,0.00525608946154132797290437,-0.00687440657663491994089355,0.0167271948899175293412611,0.0174660930408659410828509,0.999683772790050162448949,0.0613393590137993327537913,-0.0988741154905991292967116,10.310000208424895618009,-0.145180618785018450411783,-0.017975950272198379376043,1.15878448413164392150065,5.85985447785417257193785,-0.646269745442077936381509,0.474888349177995217065273,1135.18964072497738015954,1159.17466342897228059883,1146.36764578028896721662,1136.67599386005008454958,1160.65489326143779180711,840.856446801589754613815,-16.4739115471549517621952,527.042342280361367556907,163.614384999694664202252
0.289999999999999980015986,-0.403632241061636143353297,0.749265498803244445191751,1.02280611521162678734242,0.0230254370879826135432022,0.0986170699290759150690278,0.00823503044684602801550621,-0.00689934004449551871451796,0.0168793613109142308370547,0.0174805951932875715260085,0.999680714121628954949017,0.0600030546494112748678873,-0.100865838034637930742399,10.3236285077972311796657,-0.144573166922491835872933,-0.0178966426601962769193932,1.16012496979042856182218,5.85959546160418032201278,-0.646272264916469607598515,0.477797857488579225115899,1137.6617741312145426491,1160.80455375784595162258,1146.29406511320166828227,1137.682915609764677356,870.346616924607360488153,511.317450504298676605686,-35.5836964606172827529917,332.954389447107814703486,163.611942882724264336503
0.292499999999999982236432,-0.704494616583627664141432,0.788982459422691073669398,1.07904284408454897992158,0.0221626138259991244117142,0.100244606294234150922762,0.011231002267705172611989,-0.00693877050303801784503221,0.0170515806110235167147859,0.0174917935200767059311655,0.999677221303134411201086,0.0582712865371307342510221,-0.102106988557602057499096,10.3361723178392121980096,-0.144021736281537998669577,-0.0178851641046541415258631,1.1614851421329948077954,5.85934107852329599808172,-0.646275927142713424444764,0.48071587738869903105865,1139.54137380960037262412,1161.73125068149374783388,1146.18972729798588261474,1138.34076580728560657008,650.852324601691520911118,233.443595722110131873706,-37.6552912570332054542632,246.174656835091582252062,163.609693799628473698249
0.294999999999999984456878,-1.00264474061982178376695,0.861054164677403366390251,1.05765054917188461303112,0.0194830472592717705848653,0.101652076922505621436876,0.0145469537361996130442332,-0.00699276975000364450080204,0.017248740055907457735529,0.017501386122730281519333,0.999673177257202727474805,0.0560955315879357874209177,-0.102508573220957022176236,10.3475812849302233331628,-0.143537393278996394663238,-0.017933495480514274889039,1.16285736333467415448695,5.85909036834923568903832,-0.646281821820950397317063,0.483642429021621078621962,1140.91603575422300309583,1161.97177173645650327671,1146.10578865691650207737,1138.91378889394013640413,352.209398032891499497055,-44.2051204061499021236159,-10.3212297588925050462194,213.161315315028133454689,163.607218202085562097636
0.297499999999999986677324,-1.16954226960091678400033,0.95167281056335006894642,0.975913053039635158825149,0.0158928035596908844018227,0.102814375937337401656357,0.0169155842132354926332649,-0.00705827430088255998452684,0.0174754827592103652300626,0.0175114229968713862317653,0.999668487472437528040814,0.0534256471991462200676892,-0.101942493628308789022086,10.3578192014868886161594,-0.143129454240732506553613,-0.018024690544460701679963,1.16423542378750566328449,5.85884178501371177816281,-0.646290562042988514512842,0.486575934999011472381625,1141.30242079976483182691,1161.5102250794629981101,1146.1381211491914200451,1139.40657238386074823211,21.0923734857715139412448,-284.061495588275420232094,50.546566686307372151532,244.814595837669685352012,163.605340306677277339986
0.29999999999999998889777,-1.22701909104167850017575,1.07126994305936595885953,0.841030379802894856311468,0.01174810486623307885512,0.104644803480532982975504,0.0190478554882641953893696,-0.00712650505854298208646691,0.0177260489794646911021481,0.0175247692532106286167348,0.999663261007981529537858,0.0504198758983418204859817,-0.10019526285477625693332,10.3668611654930558074739,-0.14278167827348664520315,-0.0181275664958372093038541,1.1656181648532473182911,5.85859409883941673058416,-0.646302130194023383147339,0.489513228047870563308663,1141.02149762165186075435,1160.55146425851512503868,1146.35852149034803915129,1140.13786187312848596775,-185.978354607095582196052,-426.643758503859828579152,129.403626740895447255753,353.589501602391123924463,163.60365207966131606554
0.302499999999999991118216,-1.18934469034143019960936,1.2026977258328532816023,0.671270885991743671006304,0.00786405242354016285888374,0.107276786467808679659264,0.021030494456116544110813,-0.00719094837383591010265826,0.0179932360961881643302007,0.0175416207933450779554718,0.999657666122019561427692,0.0472552333047755179773475,-0.0971308550188086927690279,10.3746922072774179213184,-0.142473446354469401864407,-0.0182162246565097489525709,1.16700682235677111187044,5.85834723688408054442789,-0.646315972852717801622191,0.492450574430161824857066,1140.37252902672935306327,1159.37700628694369697769,1146.78513928289589784981,1141.17451989187270555703,-290.734812023037818562443,-471.186161875266009246843,226.351174930459620782131,491.668536842370940576075,163.60211833975438366906
0.304999999999999993338662,-1.04860263309778178886233,1.32871542554168664551639,0.471587967851438139010867,0.00468296569796932890539232,0.110728413675504525071069,0.0227085065247830640566828,-0.00724486495297865622233768,0.0182734688164134032040131,0.0175590639161170292137371,0.999651868186347436484596,0.0440219356965821928540095,-0.0926387285034897811630827,10.3813059715891871093163,-0.142191733687805521579861,-0.018264549883807233709998,1.16840344321944167305105,5.85810041750261945026068,-0.646332274303346721033847,0.495386245037786610012631,1139.56782356153667024046,1158.19553344913879300293,1147.49027736500033824996,1142.59620455734034294437,-316.423225386824640281702,-463.889677544465996561485,369.856856153819194332755,689.444360515607854722475,163.600766351261938780226
0.307499999999999995559108,-0.78970060741017644723172,1.45241292105502561859964,0.218004030369299772740277,0.001758115425863628414338,0.115281059589705636714285,0.0240951282925163379200484,-0.00728308880807433580567567,0.0185535138352898067160002,0.0175742085292371931493083,0.999646195298261264206019,0.040998006503538297895517,-0.0866777850708517483280247,10.386701688189884151825,-0.141900525578680242189122,-0.0182506207099467770982315,1.16981393605265671098437,5.85785340732056969414998,-0.646351196986282405809732,0.498320371482578183819356,1138.79041289979522844078,1157.05755789922136500536,1148.63442356366499552678,1144.62174169445074767282,-211.573632772888032604897,-339.673613275044488091226,454.298947401320731387386,762.504172504940697763232,163.599346756766379940018
0.309999999999999997779554,-0.52547831798173438855315,1.52343344106187927877727,0.0148104313621174737969355,0.000109647316088579453111779,0.119013056524223434506915,0.024525907048536330773425,-0.00730615191661583476129271,0.0188222108408490212960729,0.017586608294073619723763,0.99964085771626820520197,0.0384046548940712439978995,-0.0793581126972897621385528,10.3908845289189741833979,-0.141568755146390168331294,-0.018165746004771356897356,1.17124376169974531158857,5.85760642706612166819014,-0.646372535412410909039238,0.501254460026705705999461,1138.50995539767222908267,1156.49716538276356914139,1149.76177210200694389641,1146.40872541986504984379,-10.664711491881453397923,-123.469611756718109063513,456.254079121162760657171,690.974050348995092463156,163.598326365451242736526
0.3125,-0.244851582351877872234525,1.55598322258192967026957,-0.152509279069086955971102,-0.000749885455495150326371556,0.122617800402173154905583,0.0240795204063130111049595,-0.00731413081780875242582374,0.0190657409852405430872313,0.0175965206825607171914339,0.999636114860645186297461,0.0365072219245475559912251,-0.070811960360671916125952,10.3938654633078293443305,-0.141159332513009827536621,-0.0180011329497840391611341,1.17269880637348800078712,5.85735966154516418669118,-0.646395681302784796962158,0.504188898290840792348888,1138.73708934233582112938,1156.44020984043777389161,1150.91569395927081131958,1148.0766119461957259773,208.639204916835097947114,93.5357440432652822437376,469.279815501567611590872,666.983600473531055286003,163.597466210601737657271
0.315000000000000002220446,0.0713835259941006661232876,1.54588362733768436285686,-0.281421481416315732992928,-0.00094408986320799537835663,0.126898353634619709406905,0.0226549011926455365339983,-0.00730839268176511694385944,0.0192686337301480221928518,0.0176055438307695273636444,0.999632230875612703968613,0.035595040007149691962951,-0.0612265040921056852285531,10.3956620973029743026927,-0.140631913572973749060324,-0.0177521743701160826522933,1.17418441542169205149548,5.85711344524088595164812,-0.646420070963412918274571,0.507124182316347815735469,1139.55315142225640556717,1156.96484410297989597893,1152.10817117951478394389,1149.74364342223270796239,361.243295070971385030134,281.181669719353294567554,375.023586036422443612537,542.042154223963279946474,163.596609307623936047094
0.317500000000000004440892,0.289507470770825503514345,1.49163601230950715326173,-0.31327637293143045793542,-0.000385941633254375908446132,0.130405844033109091784084,0.0210903824823045205061334,-0.00728902726651523610174044,0.0194251695465764984138701,0.0176175334030963283427074,0.999629253792000627143466,0.0357473744731476583691432,-0.0507823718934435619498657,10.3963009645833270866433,-0.139969916584591652641834,-0.0174120364373143501901531,1.17570177606077974630239,5.85686852864877049995584,-0.646445560299329424758241,0.510061246261251821643157,1140.54330581769067975983,1157.84611818903454150131,1152.79081188945292524295,1150.78682271731554465077,412.738231193315755263029,423.239099105648676868441,185.165492221858414723101,347.570269005973102593998,163.596034379908559230898
0.320000000000000006661338,0.428387249022882332649687,1.38188327423465429077964,-0.260715410804013281165226,0.00106018676524953980519483,0.133985042407209820058966,0.0195080549637371286619825,-0.00726235818245935232234656,0.0195433829853496644768374,0.0176333896774155951536756,0.999626966728472843293218,0.036748876979127709230255,-0.0398005221476158826954261,10.3958200981847408428393,-0.139190550423570730265155,-0.016990698235617815448073,1.17724614618874956484262,5.85662563053496043607993,-0.646471762505637315143758,0.51300100868616549387724,1141.61684257822298604879,1159.0810395985081413528,1153.03399864062407687015,1151.48149476726257489645,440.930461794959740018385,593.72702401915319114778,1.50859625005068531677921,243.73856289962509436009,163.59559611058026007413
0.322500000000000008881784,0.47403611491152286561146,1.17720530944394830008548,-0.111621424444349248705777,0.0039711583625236853561935,0.138082660928316280912753,0.017859486128263095394697,-0.00723163535875374213768296,0.0196334594472069544346393,0.0176535829090847910805007,0.999625141074733547519315,0.0383374853309778884646875,-0.028548299384633518682719,10.3942704740327620527296,-0.138317503009332709584811,-0.0164932100499159753348444,1.17881030303663147940085,5.85638509026833276038815,-0.646497538960498219218209,0.515944780787487622397691,1142.74795812666548044945,1160.81475330913031029922,1152.79835487070317867619,1152.00551553181367125944,366.657952904551734718552,654.31773279615242699947,-162.092817308257366448743,158.875776703143714030375,163.595219733099270342791
0.32500000000000001110223,0.40318115871728404941976,0.943040664744260515028884,0.0630813105996758938243119,0.00701746573299028269382616,0.141030276194718778848269,0.0169548711235531605889815,-0.00719596150454136513491266,0.0197064010009001637502291,0.0176782229167200891084555,0.999623569664384592492468,0.0402357472913733305031059,-0.0172114163924264595983971,10.3917179308605085452655,-0.137377880089775777916472,-0.015917308330798029397668,1.18038489474763785835876,5.85614744336596526608218,-0.646521285001507961531786,0.518893272413780581864273,1143.45013234274574642768,1162.35262826248890632996,1152.22353455408278932737,1152.27587365077829417714,227.747905382784466610246,611.36040080054897316586,-281.70893952542405713757,94.6135785042314694237575,163.595024934818269457537
0.327500000000000013322676,0.237349518569340750540064,0.645759785688023613126063,0.250385777611940807396707,0.00930607044566945929009449,0.143354785585775801326491,0.0171065177807070700755077,-0.00715662057884292567011553,0.0197697704067757301649166,0.0177090738208126076413951,0.999622067533454838894613,0.0422405085712365124805956,-0.00602180346725482429359744,10.3882451489671066013898,-0.136392477274169782175406,-0.0152680607025744551757951,1.18195946883669944504902,5.85591370962585600068451,-0.64654174619754312125508,0.521848482593229689996406,1143.88669765357940377726,1163.87155531313305800722,1151.38981017307605725364,1152.47858342433482903289,142.206987394683778802573,594.004246134317668293079,-352.434553984994295205979,81.9515049721757549150425,163.594947076405190955484
0.330000000000000015543122,0.0286223883220853396458505,0.303542890666097520124822,0.411332569547447235436266,0.00982689083812119702765475,0.144999978640776155947023,0.0186008932038642278705698,-0.00711562330285113453509638,0.0198314100195092803124997,0.0177470178567747764730722,0.999620454357003529466397,0.0441482419339620790754708,0.00478125811862632754678515,10.3839531546628425218159,-0.135384345948269424475541,-0.0145546881410327788586301,1.18352183762307117120827,5.85568503169475906844355,-0.646557923308979876075853,0.524813715240249001325878,1144.16116727971916589013,1165.3226494931604975136,1150.46136178415781614603,1152.68563117563917330699,92.9180797277694239255652,561.436460677759441750823,-366.102075301659738215676,92.6066625580459970024094,163.594961742272261062681
0.332500000000000017763568,-0.175869172024330250314605,-0.076909873164284103808086,0.499827152009321040715406,0.00821890929505584427738896,0.145545442105413536104663,0.0212855725494498736194426,-0.00707452853496577920705546,0.0199027808176240432469495,0.0177907916861253199980464,0.999618518503194497526465,0.0456878030918702326967917,0.014983023292360495015707,10.3789616022545381213149,-0.134386419294882597519347,-0.0137875695431063528123561,1.18505794153635202192731,5.85546305209767670163501,-0.646568899418372144971556,0.527789730378789068154788,1144.35128805221825132321,1166.67873761652185748972,1149.55929979656775685726,1152.94161673712505944422,91.2399543654372848777712,580.876511225323497455975,-360.476250852570615279546,128.883130350777605599433,163.595083018305018640604
0.335000000000000019984014,-0.358191740695013582929107,-0.549727162571849059524709,0.493287958309200247342119,0.00529791143347141130909295,0.144630214793330436062746,0.024438837664326761717204,-0.00703642872726905309332945,0.0199910879274243710734815,0.0178394570083845252495003,0.999616114998078675313309,0.0466851892828291370474147,0.0243527207834919046103295,10.3734071035314467934541,-0.133422570849508925761029,-0.0129822858146095461429059,1.18655492217785640818306,5.85524877346051564330764,-0.6465740490354592306943,0.530775494127081470807639,1144.61736705154635274084,1168.22703204928711784305,1148.65898052989496136433,1153.33004682739306190342,116.068481477486685093936,561.714876417681352904765,-283.559539108227681936114,156.662669364368269953047,163.595345924754781208321
0.33750000000000002220446,-0.437751348674007390027185,-0.934865763820415196505564,0.393932314603611610781542,0.00301404391794931171902339,0.142607239276863584365174,0.026377028017201809700909,-0.0070073241735135356755837,0.0200971312386321390719424,0.017889738500751151129009,0.999613244316243876319561,0.0471068904838383151201242,0.0326195267928608284568881,10.3674406562619836336125,-0.132501849045311287378368,-0.0121630529134541323643681,1.18800263397831207257127,5.85504291635692819539827,-0.646573046479226976046562,0.533769085632352258130595,1144.93163045960568524606,1169.48731199861026652798,1148.14150210102661731071,1153.72493008394690150453,145.533717028047107078237,503.977704160706252878299,-146.384214477438803214682,170.888327209422499208813,163.595658923804307960381
0.340000000000000024424907,-0.444914989390119031131832,-1.28676008268668984335648,0.216330128105611696476274,0.00137948894983491959602417,0.139584197835315226843278,0.0274372713154497280263477,-0.00698710453692535492925542,0.0202197339100450568238898,0.0179376862003359401065428,0.999609998321010717603485,0.0469709808208005896723591,0.0396630275933287923528781,10.3612221621705113960843,-0.131627805331933300792002,-0.0113400964432677324456034,1.1893935243538598101054,5.85484515647161085638572,-0.646565608975707362127139,0.536768739196777144861983,1145.34503563668658898678,1170.74692057009065138118,1147.92705945750776663772,1154.18448846344017511001,187.585609792313164234656,553.161728584063439484453,-16.4592191769770437304032,209.365295106863214869009,163.596065199072825180338
0.342500000000000026645353,-0.393283102706807663473398,-1.64939232223595633186619,-0.0521028059942438767637718,0.000199383355605766646873045,0.134917464295801370344208,0.0277995779660794306575866,-0.00697631723747514469191611,0.0203545090697485678288281,0.0179846942265577472430671,0.999606430560591174838692,0.0463706830160215965896953,0.0453706970387933311572581,10.3549161865766077283979,-0.130795057335954867383521,-0.0105238558188284168914972,1.19072329194369253002606,5.85465404786440579698592,-0.646552224406634179487696,0.539772479266446669754487,1145.86955850856725191989,1172.25312064153058599913,1148.059206005141732021,1154.77175655948121857364,176.131960398697458458628,544.714798171480197197525,117.059471480069888116304,210.139083258991178126962,163.596656266441129901068
0.345000000000000028865799,-0.321060700938860410502684,-1.89146418278259531575713,-0.293176056226245818070453,-0.000269107722943743698368335,0.130322631942850097885866,0.0274976055560047505377241,-0.0069750725399347329042099,0.0205038798562181337481469,0.0180346808215793678875638,0.999602413850011251028604,0.0452641443827206391148366,0.0496662763541766000274791,10.3486865521380426713449,-0.130012371583443253619805,-0.00972199066185361338021664,1.19198860704740905447352,5.85446716812981637900748,-0.646534719968819504565261,0.542780315630263188175775,1146.22569543868007713172,1173.4704945609480546409,1148.51235681490811657568,1155.2351838797351319954,98.0640281173690766536311,466.357171392246129926207,255.289204720747648025281,161.296482560419320861911,163.597232344617140142873
0.347500000000000031086245,-0.239913379230172973954893,-2.06519508679202701273425,-0.51667165353221200518874,-0.000408722679654279614190615,0.125364068889104868231854,0.0265705289900737412489562,-0.00698319934346523264745432,0.0206709368404567224442037,0.018092663610823123132576,0.999597792803110118953214,0.0435985264206633638117694,0.0525046898278631463119481,10.342688929034446587707,-0.12928769078585097829226,-0.00893991391888810868482373,1.19318892223532113661122,5.85428208257928606172982,-0.646515175075696890694132,0.545792463853446929711311,1146.35987864915409772948,1174.58490649849181863829,1149.335652028745471398,1155.57823897228331588849,-18.3779158867764458307192,449.891242519515401454555,446.337276974281451202842,101.261677165393763289103,163.597892270769762035343
0.350000000000000033306691,-0.147289261325894815790605,-2.19420203058751361879786,-0.721874761767127059997051,-0.0003998152289481604311841,0.119187776087801594604443,0.0244421367253108839934228,-0.00700217409627326009546877,0.0208532953934263860784615,0.0181605223829334333496277,0.999592571162632781422985,0.0414315611571054731587793,0.0538310968490140068221095,10.3370637060412526864184,-0.128613520179021750822201,-0.00818641664731165411006408,1.19432817338406471741052,5.8540968751481532450498,-0.646495492753640377259217,0.548808463071808194655432,1146.13380585924619481375,1175.7199507735456336377,1150.74404319977952582121,1155.74149226556210123817,-158.170755044695198421323,370.273053634313498605479,579.494794936096241144696,7.93335977682553572520874,163.598778376848031257396
0.352499999999999980015986,-0.0780167161553223104109023,-2.2370586895877928590437,-0.810842079532312465239841,-0.000349486978960745835968288,0.113853491989947042117848,0.0217599418467333514948248,-0.0070342824436987680392086,0.0210517467923905937654538,0.0182398569065107159226091,0.999586690224554930139789,0.0387509626595499701018355,0.0535984835942255599672279,10.3319297931188938122204,-0.127987863294747927778161,-0.00747081047998373899005076,1.19541270461263549051978,5.85390973904165878849426,-0.646476596054150309811348,0.551826893032413612338871,1145.56902487393062983756,1176.43627176666336708877,1152.23312600342592304514,1155.61790577116744316299,-304.395481583518119350629,223.820756803208951168926,643.067560988317609371734,-104.276549789075190233234,163.599593661618911255573
0.354999999999999982236432,-0.0149711788249363951519566,-2.21553312268329971601588,-0.789074835726965240212394,-0.000324877933651914027786411,0.108392843541282493657896,0.018414084213602403827803,-0.00707697686235655987196935,0.0212642866645201822350941,0.0183268796310405712723934,0.999580285155601822033589,0.0355958558695368409985349,0.0518828700738256515245794,10.3273764160900842767887,-0.127400347869910612885747,-0.00679104225659065904863176,1.19645290245067004164525,5.85371952100908643501498,-0.646458267287575272241895,0.554844961760998733879546,1144.61182845132861984894,1176.83905455756166702486,1153.95938100472108089889,1155.22010951661673061608,-438.330196168225995734247,98.4102713248375096100062,708.109288178092583621037,-194.835203520278639643948,163.600487213161898125691
0.357499999999999984456878,0.0474294526401573199314576,-2.14384108012959151423615,-0.670311064866175088106104,-0.000337705303386064039760511,0.102959094554232910567748,0.0149633236222430545531159,-0.0071178420576962914134711,0.0214787824424553901170309,0.0184124709212382213496806,0.999573863989654420869613,0.0322087350785014159271213,0.0489822998263950704078695,10.3234564548272977901888,-0.126815253725277660157289,-0.00612222137915499967086852,1.19746478398224454053889,5.85352684076250628919524,-0.646439780832819166356273,0.557860446716419433599299,1143.37737389308949786937,1176.92832312328755506314,1155.77367244431638937385,1154.64372975356604911212,-537.99294510063145935419,-48.2823631832161055399411,711.464126708869343929109,-249.818474027096954159788,163.601444858248868285955
0.359999999999999986677324,0.115150118599732120827639,-2.01841240180322500918919,-0.451943205753302712501807,-0.000374331372341793293650331,0.097617731841185523267157,0.0121921542915655635452854,-0.00714986894575998527950889,0.0216866326734938413833831,0.0184922757406570971439042,0.999567732317542700926083,0.0287509684550993661888985,0.0450994483875124946292701,10.3201881170796490039265,-0.12620563975162457648338,-0.00545082100272991330880412,1.19846552931442817957475,5.85333248884558088320773,-0.646419838318075923311312,0.560870248236869262115079,1141.92186372582546027843,1176.59764274164558628399,1157.51670163826543102914,1153.97101714648124470841,-652.400884989992277951387,-242.465479651172927333391,697.525388658231690897082,-277.721484050698336432106,163.602479197384241160762
0.36249999999999998889777,0.207406475332104156539259,-1.8207500452378224675698,-0.127231738077226680383447,-0.000364168572898612014077102,0.0914373770897844995175774,0.0109438189003617028505211,-0.00717355487941967462361958,0.0218815394879304132846887,0.0185646768013607021963196,0.999562046508631119046129,0.0253273539719056396679608,0.0402976430873132202004072,10.317553494411964010169,-0.125551230049066486760267,-0.00478042614672881480825106,1.19947275152077459381417,5.85313794959945887796948,-0.646398158506720221794239,0.563873130491920115936466,1140.11536946813953363744,1175.71599572503168928961,1159.26129938760755067051,1153.25512233331255629309,-641.024269622811857516353,-394.944847119267819834931,543.347258231187424826203,-217.006158656022108743855,163.603808786630764871006
0.364999999999999991118216,0.292644234547795256684566,-1.63447012584643958099662,0.144722752443639940400644,-0.000209220196448130934694862,0.0867757420255554218213589,0.0119431983519042075186922,-0.0071865460769427146059396,0.0220614105136651764138556,0.0186274818189182782279811,0.999556907206072486893333,0.0219513508925839630203658,0.034715692764859154562096,10.315496472782854198158,-0.124843080703022080157893,-0.00410751471090241900702145,1.20050285561778924403598,5.85294415003868717661817,-0.646375469880156039437225,0.566869530859160919433748,1138.71674237771139814868,1174.62291850604924547952,1160.23343792942137042701,1152.88598635320113316993,-502.769877158697909180773,-491.746943526004088198533,251.469939907292200587108,-73.7911192266891902136194,163.604990568483657398247
0.367499999999999993338662,0.378821640644757706706258,-1.45605386820413840176514,0.363106789398247475908477,0.000264887079824972207411221,0.0832092606476634993883934,0.0141956408712967177554454,-0.00718668147159057506961899,0.0222236913093187132828277,0.0186799919056753610524524,0.999552401646183086292297,0.0186433550166548757387464,0.0285009247653429803603942,10.3139257877414109998426,-0.124072868388280799223367,-0.00342860988176561017753974,1.20157075017333125899199,5.85275194911449148094107,-0.646352048440381188321169,0.569861172640577673398354,1137.6015200823460418178,1173.25726100740166657488,1160.51864908714401281031,1152.88616673717910998676,-395.46063561547236986371,-633.435181399908628918638,-56.1799174543920756264015,93.2456064221695726246253,163.606249513930890771007
0.369999999999999995559108,0.466293421983395406371642,-1.29038907696373694733438,0.526999183034661422553313,0.0014200288749359750613277,0.080420773752732280237332,0.0170583751143559142482431,-0.00717462267595237162404187,0.0223623417352643086286612,0.0187228574184255015799838,0.999548652630580347633327,0.0154947184311738130058078,0.0217527016043654597421408,10.312720141742463653145,-0.123225925870575653275907,-0.00274691500788913113562106,1.20268929067805729893337,5.85256279536539825159025,-0.646328072310640933118009,0.572850150899162913198381,1136.73943919963403459406,1171.45574259904969949275,1159.95253834214940980019,1153.35221438531198145938,-225.21290856902831478692,-663.112565125038031510485,-357.770759226468385350017,235.559929892633391546042,163.607850621885063446825
0.372499999999999997779554,0.510756267977620082021417,-1.21399586291137584481703,0.575950584455841352315986,0.00298550799253794124990535,0.0788867054104898240973753,0.0191376937322427428944671,-0.00715589288487291676210678,0.0224729262396280646263413,0.0187576511590105896032377,0.999545696119711002403108,0.0125647667253517038299382,0.0144814668164300469621608,10.3117351309781355439554,-0.122293587813755877391486,-0.00207728314669802793801523,1.20386701797885597997606,5.85237842739711844330941,-0.64630388739979949264125,0.575839342004192511481619,1136.47545553950089924911,1169.94169818177647357516,1158.72979529101166917826,1154.06396638664227793925,-11.9156886692962764584536,-579.373721547335094328446,-620.700387154237773756904,316.909236230230533237773,163.609261327660448159804
0.375,0.510691763558912659171085,-1.20690723102014341172605,0.54439441807804700435014,0.00511940862840396665456311,0.07733695241504656703313,0.0208004208965550524412791,-0.00713518540032706451853306,0.0225593938333950964902908,0.0187875381306802299863357,0.999543355012891265864994,0.00974637427985914142625212,0.00672729150421634558565387,10.3108099473221503927789,-0.121289097643008117466401,-0.00143230023533335616703344,1.20510599101822912793125,5.85220083658251333247335,-0.646278972279539343226418,0.578831545196761498850435,1136.67986075628755315847,1168.55887399131302117894,1156.84903640637821808923,1154.93676056646313554666,179.04085076088432515462,-549.002998128116360021522,-925.152145773653614924115,366.83833665397253298579,163.610752875472030609671
0.377500000000000002220446,0.455659669321479054993063,-1.25563052225094473612899,0.437151396903064037857689,0.00775070150810121434592492,0.0743419300859796960967429,0.0223629419492017665616057,-0.00712119747180009737136386,0.0226297425855870280864135,0.018813692981132345422024,0.999541369181087713258194,0.0068550873044022388180796,-0.00154075978551100611912972,10.3097763497314307556962,-0.120237085031436319315645,-0.000835033131172056505842072,1.20640270316901010438926,5.85203134004304370563432,-0.64625218901986192232556,0.581830533996368859384063,1137.37065979330532172753,1167.19668319113588950131,1154.1040345621433971246,1155.89815806991214230948,303.090006677348071661982,-433.436110190995862012642,-1035.69083789843625709182,299.260003617882546222972,163.612637892739485323546
0.380000000000000004440892,0.375285213511615201031901,-1.31491915513607970922294,0.310362469331508072922787,0.0092409496501589111217001,0.0706556387913982036907967,0.0232519720151551957665337,-0.00711997430384794533636539,0.0226926420280632382131536,0.0188384955479195224936628,0.999539460076051433645716,0.00370457490243478529401422,-0.0102915985915793678495689,10.3084660765384352743013,-0.119164488117545694367827,-0.00030259433166861075814591,1.20774932115966415757669,5.85186993007721856230319,-0.646221714351213338822788,0.584839012813623937425689,1138.19531078967429493787,1166.39169344035803987936,1151.6705822168860322563,1156.43306058455254969886,343.860497446393935661035,-240.576624590903293210431,-937.017937739346166381438,125.384997957871632934257,163.614289237261374410082
