t,ang acc x,ang acc y,ang acc z,ang vel x,ang vel y,ang vel z,quat x,quat y,quat z,quat w,acc x,acc y,acc z,vel x,vel y,vel z,pos x,pos y,pos z,mot 1,mot 2,mot 3,mot 4,dmot 1,dmot 2,dmot 3,dmot 4,vbat
22.9050000000000011368684,-0.0794565925492273228414319,0.187007812098637121733802,0.9025718400197251245487,0.0535024306702248653166976,0.0314525311746741975671426,-0.137491619762832834039656,-0.0252578422317245310235734,0.00969018021247172560428407,0.99306178906252340343741,0.114438398272077204720354,-0.13816103131979323714873,-0.0685030178604161127386973,9.78798724626425986627964,-0.0636561989797082422581909,0.0380353019623808977223156,0.00820948213450528076207124,3.57842603234032496928307,4.93713039309548751276679,2.01257848770015401740352,1140.27952914624211189221,1130.12984943195078813005,1126.58110995824313249614,1142.55914604996610250964,334.248615078307125259016,264.897258354274470093515,-272.066281735632855998119,47.4319035823649528538226,148.909998986227549266914
22.9074999999999988631316,-0.286362088375908041548712,0.155185946003109559443445,0.703923703950186108180276,0.0524751876192136104681829,0.032384960577094175360191,-0.134851840555911817176593,-0.0253034782867902208192135,0.00972458144735597641850067,0.993039159193066955921836,0.114621551784467895496178,-0.137096549279715484992437,-0.065351862023079729246966,9.78756049896296076440194,-0.062799792197301113061414,0.0377138783219914605626677,0.00815940772322991565712602,3.57855991362976144642971,4.93700700600512121241081,2.01260866691288597962739,1141.06518060008761494828,1130.88123120541331445565,1126.39702467622942094749,1142.70137142362273152685,286.293571491262468953209,334.799818118811572276172,62.3486137170072112212438,62.1068831444641418215724,148.912080498842755105215
22.9100000000000001421085,-0.460315068033184005003022,0.110242406440819465385239,0.476764384574314359355185,0.0510030460409888128370248,0.0329657857224527894857147,-0.133576414826176992356466,-0.0253537184320075485721713,0.00975901260961731416287979,0.993016655355161925733398,0.114802296232278958076911,-0.136169482147425080498238,-0.0622153531775623686028709,9.78730636958480282316941,-0.0619268485825506323494416,0.0374087638227153587711094,0.00810554603530605835559619,3.57869107111564321854758,4.93688254468395371077349,2.01263689664982647897773,1141.71099700369813945144,1131.803848522544512889,1126.89285302682810652186,1142.86968046568836143706,215.836289317647782581844,420.358970412338351252401,316.339123090958366901759,68.9744328877270191924254,148.91414245898198487339
22.9125000000000014210855,-0.627339968813871218245026,0.0496570588456077335881567,0.235819890025919354226147,0.0490518415543238564535677,0.0328545541449228248320757,-0.133454047786919299811714,-0.0254056530774781318127165,0.00979611512411135247624383,0.992994624657003277512501,0.114978037937609314789178,-0.135384593855033485976236,-0.0590842961381818077004624,9.78724357420734492052361,-0.0610374880245048018201359,0.0371169709762405250486061,0.0080504656551893660071384,3.57882012203289434637554,4.93675687432368093254809,2.01266314107272314970487,1142.14436204667640595289,1132.98302605747608140518,1127.97872029168502194807,1143.04624358806154305057,86.3247829676937641352197,430.61542985310023823331,430.295292603563325428695,52.2350862429097375638776,148.916587593436190672946
22.9149999999999991473487,-0.735347223355795054366979,-0.000366878126922348668514928,0.102601261319921574499681,0.0474121546639072674600435,0.0323871554770905831222017,-0.134513605823865844968168,-0.025456094088258857111029,0.00983440515064339451645203,0.992972988704607040233441,0.115150277915424953389945,-0.134728226324047406503581,-0.0560209504007552136495285,9.78738723966816337451746,-0.0601323960499502291332519,0.0368347452956120924305594,0.00799673027351445464550039,3.57894766633128780242146,4.9366296227521750950018,2.01268810397052533289752,1142.1426209185365223675,1133.956925671809585765,1129.04432948984549511806,1143.13085589690285814868,-79.9988305400961507984903,377.976036742013718594535,403.342693595357786762179,12.7741434647330560636647,148.918596002117851639923
22.9175000000000004263256,-0.81813042101757349477964,-0.0496640475756409405239111,0.0701320356740715300514211,0.0458779973676314498098883,0.0320160249742098348968433,-0.136225823332797812970085,-0.0255027018486803265517882,0.00987138760638900207566859,0.992951652124793193721075,0.115320575429819299762002,-0.134196061353136109062234,-0.0531010870887091493419696,9.78774847046322804544616,-0.0592126440838517814624353,0.0365585147874554483582443,0.00794627999552514723002883,3.57907392265281698584545,4.93650098456454156092832,2.01271300942220410234995,1141.74436789397600477969,1134.87290624118577397894,1129.99543375966140956734,1143.11011430538519562106,-254.125685603418844493717,383.824030979562053289555,341.432530882555454354588,-36.7875653864569400752771,148.920568427337514094688
22.9200000000000017053026,-0.893410116136818421850307,-0.116395836750930181668906,0.1475909798355913848944,0.0438881673853766945958554,0.0318746901972757831766891,-0.137868027547559640622055,-0.0255472877493539939075529,0.00990081214282728834519265,0.992930387954054416432825,0.115491030989782250681941,-0.133849447548299083088352,-0.0504746033631883889158942,9.78833371272938990159673,-0.0582799579898103589647995,0.0362851283255588435983086,0.00790023176946424814104386,3.57919871321537774733201,4.93637241648526536863528,2.0127385333531928601758,1140.87199249051877814054,1135.8760458267083777173,1130.75149214425914578896,1142.94691806997047933692,-366.479088187707191082154,348.64794478924181930779,191.107647291520891030814,-78.2817987205972940500942,148.922887851315749685455
22.9224999999999994315658,-0.93473948167604736791958,-0.186070102324987191044769,0.284419643385973197613481,0.0417078561950880513653495,0.0319199611635338081905289,-0.138326779507462221951997,-0.0255919778948908403781726,0.00991894975189285335592793,0.992909010377299505734072,0.115663112464928247158369,-0.133753595068160202607999,-0.0482353690981487323585775,9.78914593034239288726894,-0.0573367292248828097633861,0.0360123596119681088634223,0.0078588397686606380199148,3.57932112825431447689084,4.93624568126791984923329,2.01276544788616229553213,1139.91197245303783347481,1136.61614596513163633063,1130.95097199611882388126,1142.71870531178228702629,-401.243232632384888347588,272.004994309927042195341,-15.1117251338321754161598,-94.9394025933732024213896,148.924777473830317831016
22.9250000000000007105427,-0.948992247865501514780817,-0.275632713927011996357663,0.445432980064717265467067,0.0389695030053951035897697,0.0317826773661370118317926,-0.137482475469445947213742,-0.0256330819208796939490114,0.009928675484063849421279,0.992887300181356846628944,0.115839281442434632873884,-0.13386615225030562559283,-0.0463282007631838493866283,9.79018645473040471927106,-0.0563860803715770034227894,0.0357388392650072120315663,0.00782198788473972665691303,3.57944050171476346733357,4.93612198359883791454195,2.01279435967207120938838,1138.8657763273572527396,1137.2360707982577423536,1130.67593351858999994874,1142.47222105700370775594,-407.215596918304925111443,224.16600217991245358462,-178.382857090991507220679,-84.1115147628467525464657,148.926618615917647048263
22.9275000000000019895197,-0.939931895798783556550404,-0.380558021960027303975949,0.581638597820931191328953,0.0362992750176464457068093,0.0312202784121105407499908,-0.13548297484495328002474,-0.0256657126821454861786975,0.00993113066211019981932573,0.992864827785178705177316,0.116024216178787969999675,-0.134107081648834336462528,-0.0447219183649932155999451,9.7914542299583136042429,-0.0554319209787527689137221,0.0354636005588833472246257,0.00778967609675879253672282,3.57955599882805630684857,4.93600187784757515885303,2.01282494286724533694155,1137.8758944684452671936,1137.73697597603177200654,1130.05905771066341003461,1142.29814773796783811122,-355.205583494105383124406,165.28023301351473151044,-303.910167019618256745161,-29.2012667689108518231933,148.928417420640499813089
22.9299999999999997157829,-0.908341570266907760711206,-0.497966187091359979710603,0.639521528524739535370713,0.0341327109555043528565932,0.0301382322695518609090293,-0.132332462077910995024155,-0.0256853494911138645340198,0.0099322849868836837056163,0.992841525497037968861491,0.116218991729929374545627,-0.134403946454228706564038,-0.0432871896146721640841193,9.79294490284981833383426,-0.0544783127313855364270978,0.035186591676366008041299,0.0077616274038927110523467,3.57966733827795646760705,4.93588502434660814088829,2.01285619772479762445982,1137.08974840988707910583,1138.06247196332515159156,1129.15638268349221107201,1142.32621472315918254026,-275.354306660629163161502,92.4561753398577081952681,-422.087785562318742904608,81.6615400182107435966827,148.930163261624670667516
22.9325000000000009947598,-0.85481993773230580124789,-0.644083686967338753248669,0.581193011173900986321428,0.0319308173292447289304263,0.0282829522740813375791813,-0.12824021373942715018579,-0.0256924466491906255960487,0.00993533732949907627540753,0.992817984384167573352897,0.116418173644924724530192,-0.134764417784816792345026,-0.04195621484020273239679,9.79464989200667446311854,-0.0535290146768620522799154,0.0349085299531964321495536,0.00773771166983279728296408,3.57977435680828959263522,4.93577142745682451163702,2.01288716422954117035715,1136.49912293514239536307,1138.19925685273096860328,1127.94861878285223610874,1142.70645543805881061417,-151.511125410327764484464,0.807847977739744926850562,-432.035610505221939092735,202.798672008970584101917,148.932195417862175190749
22.9349999999999987210231,-0.802717620378170071404611,-0.764998446318119085240994,0.42452646336348470734734,0.0302823849016331837769034,0.0263118251498619844241933,-0.125613890041924053386779,-0.0256953667185167156095105,0.0099414898500151463456298,0.99279483877664165270005,0.116614371902401647851377,-0.135335089453587131824719,-0.0407143308127905362292509,9.79655530118314388232648,-0.052587495397431682775391,0.0346301288721424516126035,0.00771771890800578355684713,3.57987759652459969217375,4.93566024851751627977592,2.01291708186795847979056,1136.33219278283559106058,1138.06651120321384951239,1126.99620463096653111279,1143.34020808320383366663,-5.10420293258095281174747,-108.44028689304988688491,-335.184017178174428863713,308.548972794794735818869,148.933835918575198320468
22.9375,-0.744378717255932853547051,-0.882977099517082475443885,0.181830262955764015986304,0.0287134041765075738450452,0.0241370998873066747170135,-0.124459166695505954458589,-0.0257002474980544369509428,0.00995304748199840952360695,0.992772212055535563379749,0.116804952153609448162186,-0.13621173792178925543439,-0.0395160559683410961273609,9.79864477553649848573514,-0.0516569107366310273365961,0.03435129706152068029823,0.00770208255020750787861461,3.57997828524103001157641,4.93555055353585547806006,2.01294582767528007494207,1136.47360192047949567495,1137.65705541826582702924,1126.27269869696169735107,1144.2492003020324773388,112.936617862975680282034,-239.507182665024885181992,-234.66449121653386100661,428.586807640439417355083,148.935421279335287181311
22.9400000000000012789769,-0.662665528831877681525953,-1.02402409330591859237813,-0.159015244440106395806822,0.0267743311086067296844515,0.0216394535274658517121082,-0.124577939588508795898392,-0.0257055600386788922484538,0.00997056233860652701972427,0.992750067668504043716382,0.116990480218951364843605,-0.137328319792840825019908,-0.0383291250934805205474731,9.80090144454240785876209,-0.0507397071033096822012531,0.034071223698424905890203,0.00769246223551791480366191,3.58007685760094762628114,4.93544169129989462874164,2.0129725954678199251191,1136.89687587215075836866,1136.86897528988811245654,1125.82288217488326154125,1145.48314212140712697874,177.617524445476050232173,-327.916019099322284091613,-82.0167448033934647355636,439.155710599103315416869,148.937259884959473765775
22.9424999999999990052402,-0.579221705055876334711229,-1.14327724536892616491457,-0.445873539242335803489681,0.0251194652604004864393517,0.0196339862062354895966276,-0.125516115588107296519027,-0.0257056471213722680102531,0.00999776872167751178011041,0.992728312733144324653267,0.117172642490115580526933,-0.138538933382128692795021,-0.0370475142681490551832546,9.80330645406556833165723,-0.0498374796337934522494351,0.0337887067135400828710168,0.00769074549276627713462196,3.58017372802322197955505,4.93533247190866575238033,2.01299749211185075026265,1137.36168954270669928519,1136.01747532276954189001,1125.8626149729448115977,1146.44497885502755707421,186.258177596019550037454,-361.540609539705712904833,104.750604371131814218643,321.719798548356607170717,148.938738694047486887939
22.9450000000000002842171,-0.474126164213900469501795,-1.26057128064786527765762,-0.693195049803944751687368,0.0234328358563079749976588,0.0174508649036025885459278,-0.127278947334528047541369,-0.0256949604653343086080319,0.0100351978662217358739817,0.992706853885885753818741,0.117353389424043913491502,-0.139687585531077740341743,-0.0356263951283560392768734,9.80583845854849123213626,-0.0489510230695354639496308,0.0335022488177264265996058,0.00769887570470568875780071,3.58026907482177403352352,4.9352226649836623550982,2.01302060620128075996149,1137.8281667601306708093,1135.06127224218994342664,1126.34663519673881637573,1147.09174111414858998614,186.511113974434096007826,-418.238354861354991953704,303.294977999011621250247,164.627893946005684711054,148.940161752938706740679
22.947500000000001563194,-0.32285292960727834943313,-1.38159485436807694114236,-0.901844801993560540864792,0.021461539348153795686569,0.0142353692446060050430523,-0.130451841961978759476537,-0.0256695755759117835714811,0.0100828817513518124993066,0.992685731750588495891918,0.117533240713868752935767,-0.140646019204552996662017,-0.0340342934585085854504172,9.8084733184153378715564,-0.0480803449732293136653638,0.0332104807428849901906887,0.00771824659806257060840062,3.58036277017796011890027,4.93511262833861241716704,2.01304339395149733960011,1138.29424511257934682362,1133.9262835484616971371,1127.37908986294064561662,1147.26811832475800656539,148.274613884752795911481,-396.182096713697944778687,436.629628687156127853086,-51.7214698492455795530987,148.94180434705052107347
22.9499999999999992894573,-0.183775718101837126638998,-1.44503658498524067965718,-0.979145253813512694840426,0.0202491632023864033540494,0.0106414001445578471072295,-0.133884573496662245828404,-0.0256253217823956304377564,0.0101440827330699697567118,0.992665061763857159427005,0.11771187162080888610749,-0.141287881451291841283791,-0.0321771357945156571966905,9.81118488276435662953645,-0.0472247906167076111905168,0.0329123843638192831173583,0.00774945113077954873120889,3.58045472415148058331624,4.93500258311331663207966,2.01306735054093888237503,1138.56953982955428728019,1133.08036175862184791185,1128.52978334017416273127,1146.83313376490241353167,85.7214226750954821909545,-301.958694942746717515547,494.661119333712292700511,-284.399660700102856480953,148.943118349141968792537
22.9525000000000005684342,-0.051363728323235928463486,-1.44266233184934078437323,-0.944694000547852796856318,0.0201052745982175443129059,0.00602059989919131750141235,-0.137593718243330553896442,-0.0255593100310543899778004,0.0102191006598144878275702,0.992644598075069106712931,0.117891987669052233922429,-0.141505894345429483749399,-0.0300230027903811633183118,9.81394573407848369583917,-0.0463834150400039904593719,0.0326070008502009484052664,0.00779267507651894546921723,3.58054467341042137462637,4.93489288910366319385048,2.01309210746559807958533,1138.72285222595473896945,1132.41649007374826396699,1129.85239545960871510033,1145.84612002125777507899,43.8839352497100776417938,-227.990950238901632474153,537.905217784325373031606,-456.476714156445495973458,148.944374559302616489731
22.9550000000000018474111,0.0569666225730426356577141,-1.37372240946637003133901,-0.825125154181683639897926,0.0208139203976005666973936,0.00113297387935871129126253,-0.140942139126353671585434,-0.0254771236151027126448643,0.0103036260815011146418918,0.992624379201373585601687,0.118072440088232491484099,-0.141350575218548490941117,-0.0276536752566438198686072,9.81672569744736200902935,-0.0455547017588340472094011,0.0322941930003027427575901,0.00784736326760279191694369,3.5806325751181895533648,4.93478338646069936146432,2.01311734513710005600728,1138.78895950580294993415,1131.94040700742675653601,1131.2193094290971657756,1144.55075019411901848798,9.47098382607880218131413,-138.781015988779785175211,537.564801308296978277212,-538.909640980334984305955,148.945582053920929865853
22.9574999999999995736744,0.119961693363869859041415,-1.23027855946774988815662,-0.631826081404682438069642,0.0217798660059511789421904,-0.00323129808750364328970295,-0.143304552662683881703032,-0.0253896176625276470684156,0.0103895314566517706772464,0.992604623652217910034778,0.118249749126975028934439,-0.140971253754689718196147,-0.0252432428386294427369307,9.81949360438879459422878,-0.0447366562132221756709072,0.0319746402714407920719886,0.00791256134222525532584402,3.58071904012378583459508,4.93467470621100012806437,2.01314239810512241035667,1138.77020714508512355678,1131.72258499380450302851,1132.54021946614966509514,1143.1515718163566361909,-25.277452638607002199933,-27.456244024284394811275,552.97313036378091055667,-567.131913882871231180616,148.946729767831783419751
22.9600000000000008526513,0.13636521027073725265133,-1.00623335420977877419091,-0.369182447387005452377196,0.0227555454734537088157253,-0.00689806075156293441175137,-0.144496151077327411593743,-0.0253074138731505804411626,0.0104700980815711323923534,0.992584935695855374859775,0.118425532310694997528699,-0.140521788728332819307099,-0.0229436349053886920468237,9.82221920682110294364975,-0.0439272580122886044384778,0.0316493703641292922768002,0.00798700825555615986917068,3.58080488318261469515846,4.93456707482917256157862,2.0131673968510508387908,1138.66257224260994007636,1131.80312578730536188232,1133.98417508091552008409,1141.71509062470522621879,-54.4433958135590501115075,93.587111658459761542872,499.96332804805092564493,-444.067415626386889471178,148.948036731075944771874
22.9625000000000021316282,0.104451042264227925149278,-0.812974905245213874671606,-0.167580580850504534673462,0.0233756021661506128983543,-0.0081739739221387067158453,-0.144114689790705796657022,-0.0252392520478940951544899,0.0105420109588236048103749,0.992565018576557434037966,0.118600697840945679129021,-0.140134586063920874021704,-0.0208441355061291661021627,9.8248739178511090841539,-0.0431241838428289073203992,0.031320363717236551770462,0.00806911549008657719150861,3.58089024350262619122987,4.93446078681445943203698,2.01319324636153895724533,1138.49799016601718903985,1132.19052055209704121808,1135.04003610639119870029,1140.93123473822356572782,-84.0273367047014971831231,227.758688994890519552428,393.415442549336205502186,-202.885180455127169807383,148.949066612706474188599
22.9649999999999998578915,0.036519173432310314542093,-0.652313145856785014942147,-0.024507345140208261491388,0.0237490662257154663827841,-0.00823093301528154269730564,-0.14295670653395706195532,-0.0251880119188683075648338,0.0106015859069980514922671,0.992544527334132564710956,0.118777850498006445900678,-0.139834772955117370152323,-0.01903618528720443792146,9.82743284313239762184367,-0.0423250705825738079979281,0.0309902496217761384833533,0.00815758170812832562879269,3.58097463248492964282832,4.93435636554462764280515,2.01322013303823998953135,1138.24243555908651615027,1132.94191923227958795906,1135.95125229366180974466,1140.70066472242979216389,-135.002337042696609614723,412.813370136146033928526,378.694245173285537475749,17.3284914754765750899423,148.950034403532470150822
22.9675000000000011368684,-0.0679184163130505252903291,-0.516045636878641689193614,0.0577159843051422982718179,0.0237783941246454584572678,-0.00849792775374010045386086,-0.141519613668532523442778,-0.0251506239459320414530996,0.0106481539537059636396643,0.992523384625162763406081,0.118958362480852883336091,-0.139546865576408607445558,-0.0175481134629711307826305,9.82987446148594479211624,-0.0415274730900798486055159,0.0306625307142944156235664,0.00825122978436918126654565,3.58105759778853371955165,4.93425446321353611267568,2.01324781659790019716638,1137.82297848080384028435,1134.25458740277736069402,1136.93350733225724980002,1141.01787719560093137261,-170.907536537640567075869,538.185589560059952418669,351.861959136455880070571,187.665977145971794470825,148.951123562557143031881
22.9699999999999988631316,-0.158534475192942087007353,-0.443493956269492006772026,0.0534181301124296917248735,0.0233192357908648013886665,-0.0094990081747569812126164,-0.140610247899156215467542,-0.0251215444018533969050555,0.0106819406160441107006553,0.992502216975859719028108,0.119138172914193013474105,-0.139157952025509068505471,-0.0163953407270717721466724,9.8321796722659584588655,-0.0407287284775808208769909,0.0303416932480855515430473,0.00834898922349551139698853,3.58113881318929339059309,4.93415645186999007876238,2.01327578064387502365662,1137.38789787639848327672,1135.63284718007935225614,1137.71056208934373898956,1141.63899460815946440562,-186.565200166697479744471,582.317186628622380339948,310.014426235163966794062,278.056069139903058839991,148.951970916909971265341
22.9725000000000001421085,-0.235627997141127143443384,-0.395364827683810926561847,-0.00840274807057889844275067,0.0223207987579604194561256,-0.0112292164326600035079151,-0.140169768070462913422958,-0.0250969463581171940702585,0.0107052532884355875580917,0.992481517755829822924341,0.1193137869353389501903,-0.138601857746491696765645,-0.0155653725247673069276289,9.83433002652240340069056,-0.0399263814579894418810291,0.0300323873467103000245437,0.0084495701682978860413975,3.58121871820060144742115,4.93406293396872719370094,2.01330427291379443488495,1136.89015247997053847939,1137.16617333591989336128,1138.48357946343276125845,1142.40815754130017012358,-225.892714565655239766784,662.6479238220574643492,336.728732188849392059637,326.649487679120511529618,148.952755766889254118723
22.9750000000000014210855,-0.300111891048452705810234,-0.350906247144405103455256,-0.115919850381883987600062,0.0209525046538764636583352,-0.0133030367937671950562262,-0.140258337483349648788788,-0.0250773545959711956221394,0.0107179958966908059347922,0.992461542714388356145605,0.119482989031586855910305,-0.137899757434372050024507,-0.0151103024437778329924775,9.83630709868492303371568,-0.0391182260527037639619152,0.0297388367924176881540443,0.00855167688428492417385129,3.58129842688009025764018,4.9339740545310508679222,2.01333420009182706422735,1136.25843430356962926453,1138.94608679919133464864,1139.39420575028884741187,1143.27224204655590256152,-232.762214814284476460671,602.675147747033292944252,321.890024481372563514014,287.103907092034944525949,148.953625653722610877594
22.9774999999999991473487,-0.328679086466179215531014,-0.32531067687827902590314,-0.205901738600091643860424,0.0201638313340937770645755,-0.0142848112897834902956795,-0.140874332399964635742506,-0.0250650020087799414725271,0.0107227260616893620842616,0.992442204291029916873867,0.119645821593920370640163,-0.137119817471230642791369,-0.0150398619514182374512501,9.83809211519915116639368,-0.0383023572836138567754283,0.029464344105975544263476,0.00865400979652810632691828,3.58137791071869360237656,4.93388932949412595263539,2.01336569543274235272179,1135.72634140589934759191,1140.17954907465446012793,1140.09302958583930376335,1143.84367707676005920803,-210.407032009876303391138,397.940185295135108844988,252.995863144456365034785,193.213837612295037615695,148.954291020218420271704
22.9800000000000004263256,-0.33353663907227060203553,-0.320678106783573724225533,-0.26519337143734555972685,0.01979012739510918605923,-0.0143099196959891369201889,-0.142043323488999645443087,-0.0250581812337723128236711,0.010726452475498141764243,0.992423345059754491437332,0.119803323925672680627663,-0.136270338440028337956278,-0.0152706948561077693327093,9.83966686351154606882119,-0.0374771088323798615138394,0.0292109373371239565420066,0.00875574511042895992085633,3.58145655888399971900071,4.93380722436844632028397,2.0133980119618457571562,1135.20639914352045707346,1140.93578772566661427845,1140.6591850660108775628,1144.23831123461718561884,-203.449565468495677578176,201.643947797798830379179,197.155342992790878042797,135.685937791707772248628,148.954895263153105133824
22.9825000000000017053026,-0.318488535660387039882835,-0.337391257372297859173926,-0.280860465394743574751857,0.019460688978856350433988,-0.0140007092538174619106295,-0.14357152565509137542854,-0.0250526546114197418146929,0.0107334642431870363327162,0.992404707111105843786447,0.119958135162408996432504,-0.135309290980396956793896,-0.0157665991959582071912926,9.84101355833129254335745,-0.0366412205840432811387863,0.0289788178027041917750317,0.00885704441330471131665902,3.58153370168231877102016,4.93372639319864791929149,2.01342969426055518056273,1134.70909357855634880252,1141.18776881364397013385,1141.0788063008037624968,1144.52210676571894509834,-187.636410468931927653102,-26.2782740491782078606775,133.51409879535751201729,98.6309317515602543835485,148.955449465990710677943
22.9849999999999994315658,-0.272739913075494444516522,-0.371165330003353499677132,-0.233177731250233277737749,0.0188146287153095545519044,-0.0143120925739045386920756,-0.145211236558185935452414,-0.0250419313994734819839305,0.0107475245106076408574403,0.992385909301175650476523,0.120114428952707991138382,-0.134153624695169837455211,-0.0164930519908459416456026,9.84211381896434289728859,-0.0357939071290540311576223,0.0287662578000008918588382,0.00895885038108672725198911,3.5816085663847574416252,4.93364554141445488255613,2.01345980341412289504888,1134.26821709117598402372,1140.80439635542074938712,1141.3267555599875322514,1144.73146589337488876481,-167.165735995319266748993,-293.580384744577031597146,84.7634067580370782479804,82.5344477323761083198406,148.955944280102016819001
22.9875000000000007105427,-0.169306590152297764539924,-0.405117351159268834770444,-0.107619048755699844854838,0.0174082110298582580509841,-0.0159061788523412947493618,-0.146876500920719327281105,-0.0250240521843255979417275,0.0107696464403181021984857,0.992366557343733357576809,0.12027577830803773406565,-0.132805371108699110660467,-0.0174738123542704237856071,9.8429463737662388211902,-0.0349348725085170258575218,0.0285697549004770810776588,0.00906241217407342813938698,3.58168102940680554979735,4.93356336964816755141783,2.01348849030440257834584,1133.87326489857991873578,1139.71986688992137715104,1141.50262333459386354662,1144.93477900438074357226,-108.36573357791080240986,-467.896104942007525551162,62.0770257936010949606498,62.682092160061749552824,148.956470843667403869404
22.9900000000000019895197,-0.0372497022767539279208826,-0.40798393385836123625765,0.0363110781671696636330182,0.0160587882634949837001859,-0.0177152756349139225977574,-0.14766531678393488014045,-0.0249990482240931288782093,0.010799560984637118082885,0.992346274422856722274844,0.120445314789056470705653,-0.131304034576926076383074,-0.0187532108753488552244093,9.8434874626403701114441,-0.0340642824859800699699441,0.0283843082896796140845996,0.00916913395286197280276141,3.58175143308353804982858,4.93347889904619041345768,2.01351636067666550644617,1133.72638842328615282895,1138.46491583070951492118,1141.6371406889556965325,1145.04487635417535784654,-2.82678107751109397582923,-522.28804545089974453731,72.3244156325252589567754,17.5250763240945452992037,148.956854842351191337002
22.9924999999999997157829,0.134508072224884284162627,-0.371215636398997794742627,0.186210703132799748615867,0.0154675284775814270155081,-0.0193871465227722673818622,-0.147359791293676406498392,-0.0249683995967532913751175,0.0108375348170638395595144,0.992324947152244729586812,0.12062365102105997161086,-0.12971902101752341707197,-0.020357164774547548136141,9.84371086795237282274229,-0.0331826909341436590561436,0.0282040077431990852951937,0.00928030024295744930540319,3.58181932027919636141178,4.93339170720097985878283,2.01354354439915539387584,1133.85913099319236607698,1137.1084266626673979772,1141.86424541275641786342,1145.02240438600119887269,139.320069745854624443382,-558.491734058745464608364,134.770095518596889405671,-60.9598431801381011041485,148.957183573733942694162
22.9950000000000009947598,0.358561195531484910858921,-0.282503952999390905986843,0.325859676576953083415589,0.0160248329684749765688956,-0.0208607532966380224137559,-0.145664070596398659285242,-0.0249348144601907913131544,0.0108808081128054824626705,0.992302540478355421527112,0.12081076846919291956084,-0.128135403013032889152356,-0.0223599926802562354311021,9.8435888673976030815993,-0.0322912048314954944205901,0.0280223324809219138942229,0.00939717121909653015088271,3.58188374660438846319721,4.93330261050992024962625,2.01357022936301399695935,1134.42298877201528739533,1135.67245716041634295834,1142.31099116654854697117,1144.74007713827472798584,279.186293212079419845395,-458.03233127480797293174,190.997431278757886730091,-156.833015604647073359956,148.957516259114385093199
22.9974999999999987210231,0.533997100637642940768046,-0.180699196024628250256683,0.380186719468454725756601,0.0172716183405661853622615,-0.0215322187855075952711559,-0.143682080802009615183579,-0.0249011389416508195637778,0.0109268171143030723424516,0.992279647584712209962277,0.121001425438776469278856,-0.126639351221032203653749,-0.0248185698048205005683542,9.84309285910301134947531,-0.0313911818071229073434658,0.0278330100068745062147357,0.0095207259405769590482338,3.58194421053387168640825,4.93321249438661091346603,2.01359660286052033484339,1135.25506245925248549611,1134.81826500629381371255,1142.81923256915001729794,1144.23823930797811954108,403.528822869100849857205,-243.475769706086111909826,215.454168016182961764571,-256.976853248221402736817,148.957743726645247761553
23,0.667276896667322594325356,-0.0655924050187542129197737,0.352420128096428530994899,0.0191416001921210499059356,-0.0216847725528522654314667,-0.141866101025379692801565,-0.0248688626099272322433897,0.0109695735598697424045822,0.992256950739790921645067,0.121190228437787220205912,-0.125278992041556402892155,-0.0278381298347629285716565,9.84219523185886657756782,-0.0304843386253321121936999,0.0276300181102785528952648,0.00965186156161917940821127,3.58200045461974347915657,4.93312176283170522594901,2.0136216701880118584711,1136.44063288636039033008,1134.45507831188615455176,1143.3882620066292474803,1143.45519287203387648333,585.129099260048747055407,-36.2218301850404031938524,234.606973291436617046202,-392.303870210143315944151,148.957922018721120593909
23.0025000000000012789769,0.749841531312397169273254,0.0699948006342185347072871,0.225509275901197514535568,0.0221278416853156675858649,-0.021407682191649988340254,-0.140268764799565931467029,-0.024839425302503374826113,0.0110070379227294630475331,0.992234525106071352240633,0.12137641374725392784395,-0.124106373951774387465186,-0.0314306211167055815636218,9.84086934126902335151499,-0.0295728255257923719478974,0.0274077947922473016961753,0.0097906948733620224184504,3.5820531538014970251993,4.93303065990535927198835,2.01364572388186990892223,1138.1807079555542259186,1134.6371558553685190418,1143.99226743560780050757,1142.2767199569263993908,670.451979689593486000376,164.501666289594140835106,185.649790274183601468394,-449.908336914312201315624,148.958082721888274591038
23.0049999999999990052402,0.741833714915616670992904,0.170322914327052821192865,0.0537158720977106499128162,0.0248781878150291686779827,-0.0209479363782357486112318,-0.139498888249658503646344,-0.0248151968957577573338114,0.0110399378813908159019386,0.992212213373339646516058,0.121560688082662071707318,-0.123193482050850691700283,-0.0355418648452236612955701,9.83909093930532385741117,-0.0286588575008697374335576,0.0271617235647582666580035,0.00993642282174756960588802,3.58210299270150889228148,4.93293992951829540771769,2.01367018258096441840621,1139.79289278480769098678,1135.27758664333396154689,1144.31651095799998074654,1141.20565118746276311867,648.54752691407327347406,338.10851313726192302056,72.2607010634108632984862,-416.970751015415942219988,148.958175390788454706126
23.0075000000000002842171,0.654050699994824902283597,0.248405533902033959225975,-0.163738076530988319046145,0.0271691536941356948098303,-0.0203273667399009004552735,-0.139345334741022008895328,-0.0247956029005002853704553,0.0110685795206358680159431,0.992189567419335616271781,0.121746780524811373802585,-0.122548445339061798375901,-0.0401059934889675950842047,9.836841334831092353852,-0.0277445715725171820897899,0.0268882074327951234304912,0.0100876429145602148490513,3.58214957615355000797308,4.93285043100477960109629,2.01369558996925590577121,1141.42344559012394711317,1136.32769842105449242808,1144.35357094092478291714,1140.19186620184973435244,631.813785932758605667914,465.357295363299499513232,-39.1477882051076235825349,-376.625869764382628090971,148.958229551932674894488
23.010000000000001563194,0.510267459840477499710687,0.303149192262048117196827,-0.397423115294362416793916,0.0287678763018163370646096,-0.0195355266797451639082528,-0.13976311740265093264135,-0.0247810147200510852427691,0.0110941809329898836283812,0.992166089987996491217359,0.121938552380772335936854,-0.122194944354864734603616,-0.0450314511007689349808558,9.83410776130030050978803,-0.0268318108569495575310704,0.0265849608819246699398242,0.0102421210220062473827962,3.58219305952127031744681,4.93276260124134857676381,2.01372183614150701558287,1142.95196171447310007352,1137.60437312015164934564,1144.12077201697434247762,1139.32252183863988648227,562.845831435946024612349,533.167081740627168073843,-154.305959701090387170552,-299.56528057138302756357,148.958255434178425957725
23.0124999999999992894573,0.317388265396681246155453,0.325827573392859282108702,-0.620603863354635798543768,0.0294985113099822289506324,-0.0184548004409835104955295,-0.141011129729366802010304,-0.0247741813244634553892176,0.0111129327416381318283101,0.992141680940266779131775,0.122136597763208176736782,-0.122186468145785001593318,-0.0503235792005135434967755,9.83088494600699114300824,-0.0259218217323368346760581,0.026251062398152610194435,0.0103971862952150408826446,3.58223452516372553589008,4.93267669797690810895574,2.0137486182182091631887,1144.23767474730311732856,1138.99353382975709791936,1143.58204114241948445851,1138.69403979899311707413,491.477699532977112539811,597.096525853503976577485,-291.469790711665837079636,-221.881190294833260168161,148.958252164750234669555
23.0150000000000005684342,0.0518404534692262219941483,0.315715325562166748696313,-0.835805911880327379037681,0.0295339991970525184150631,-0.0168104973679486895121737,-0.143652627781251096550363,-0.0247786271759071509424022,0.0111211930756050601104556,0.992116458700455727814926,0.122339567219138176112914,-0.122587719191010011132725,-0.0559815764714709576677087,9.82717636446949072137613,-0.02501522960001090201132,0.0258869105960011051947856,0.0105495688427844069856576,3.58227493008553876663314,4.93259317745045855474473,2.01377571887713546772147,1145.40935021213749678282,1140.5898557494185752148,1142.66342306341630319366,1138.213115887165940876,365.827812176025190638029,548.549307372506063984474,-365.847711330065237689269,-144.87195493367698873044,148.958221601700216751851
23.0175000000000018474111,-0.186007167159578518100815,0.282543006404536278797224,-0.945089146406100977237941,0.0290469994584243024204895,-0.0153298584792626989975473,-0.146797536568031988801764,-0.024796109231036339570764,0.0111201936585983013339174,0.992090819879677732195944,0.122543763009612269310189,-0.123436898152675403328438,-0.0619031908098404276552529,9.82299583223854533287067,-0.0241120213130690090597152,0.0254941981189775422611543,0.0106952792399665885109128,3.58231488746545245760444,4.93251261513544303483059,2.01380343489986435301375,1146.06681380818417892442,1141.73628036662103113486,1141.75280258576822234318,1137.96968002432436151139,204.581425101782542697038,397.843226568681529897731,-374.044548361945828673925,-91.9732214599845292468672,148.958179481718076431207
23.0199999999999995736744,-0.433425797776979981890122,0.242617826181026674525754,-0.962887127474504556090551,0.0282791199235937068534597,-0.0142956452817118752351977,-0.150436934788152398834171,-0.0248241024703832503794931,0.0111101630725227475127159,0.992064794828898643963555,0.122749406817965409088877,-0.124682133886481874562868,-0.0679944018272516936818306,9.81836946696768109177356,-0.0232119439620155389170097,0.025075249121878341596048,0.0108300818820638595357808,3.58235455243003864111984,4.93243556709960806472282,2.01383260990796708611583,1146.43225733764620599686,1142.5790718822615872341,1140.79320032160694609047,1137.75324977986610974767,105.692874076906377922569,285.157511427644180912466,-412.307134068069160548475,-122.649425996157177110035,148.958126758017556312552
23.0225000000000008526513,-0.736353022014769820202673,0.221020410517394461091811,-0.881704814201007880392069,0.0270407089707665193589747,-0.0140651958287616330595116,-0.154236357413422620066257,-0.0248608627657925865261923,0.0110921427926338415220764,0.992038044298137022813933,0.122959489098573612753107,-0.126284982306907545002161,-0.0741484451353314755195356,9.81333435803103881767129,-0.0223147258823656914616951,0.0246328155382442431919898,0.0109493032032912038231665,3.5823939539533680154193,4.93236208323433711342432,2.01386493817118106264275,1146.59527817856860565371,1143.16206792375896839076,1139.6912669154282866657,1137.35643289434369762603,19.4592565158373460576513,138.977623235106705124053,-382.910089050605733973498,-186.87273571562843699212,148.958058690528304168765
23.0250000000000021316282,-0.987605184368924082782826,0.250198176342609823752383,-0.747195793865838453484685,0.025534938713535942217403,-0.0146058288276164627284004,-0.15644050986964078142627,-0.0249045840536884846572185,0.0110660309766045933388412,0.992010592886512609922534,0.123174175364161850310118,-0.128200325612457755042328,-0.0802847231147958695363087,9.80793860552100582594903,-0.0214199677903935264966506,0.0241699493848710790511181,0.0110483055118890845236468,3.5824329040715294780739,4.93229201248743631680327,2.01390100931881210755137,1146.52955362022544250067,1143.2739599984374763153,1138.87864987635293800849,1136.81888610128748950956,-68.2279968757620025598953,-26.8594553063447847307543,-291.806096383437591157417,-266.176523542397490018629,148.958003188732732269273
23.0274999999999998578915,-1.22277083540564079910951,0.346315962695348700250975,-0.575457100841482049879971,0.023459267110910741321872,-0.015280948757610181981681,-0.157766727773581860727603,-0.0249471851412106683520964,0.0110358737035121667879878,0.99198248047414083750084,0.123394383012881345140777,-0.130267806725217150098928,-0.0862312792083900631068261,9.80224244276702982858751,-0.0205273817416587699147268,0.0236896421074207740031792,0.0111229015957580792961501,3.58247087152162979606373,4.93222500236579985966046,2.01394044910894809419233,1146.25413819418986349774,1143.02777064722727118351,1138.23223643351138889557,1136.02555027663197506627,-148.949019589629273241371,-146.151311652267366980595,-226.218267002468110149493,-353.246256028048492225935,148.957954919542885363626
23.0300000000000011368684,-1.42662302042603816865096,0.496048966021556070327136,-0.397291496299669588676551,0.020783801245666855966876,-0.0155905353370895029957444,-0.158516128979827947143022,-0.0249799816384125641932634,0.0110052939459453127252209,0.991953998044713070036948,0.123619176955270221318628,-0.132311931056732057232495,-0.0918289480827880616464753,9.79631531967066493393759,-0.0196369386882721819187481,0.0231945357807362868840517,0.0111698807462117227079501,3.58250776267632087268566,4.93216052354607281671406,2.01398161448195356371116,1145.78480852227744435368,1142.54320344017628485744,1137.74755854134082255769,1135.05265482114759834076,-239.911145967109831644848,-231.10168962530275393874,-153.773909379909696326649,-411.154730764055727831874,148.95791690636656312563
23.0324999999999988631316,-1.56324387386838958846624,0.687943031792937031987378,-0.235878310832281362641183,0.0169241443315274915637492,-0.0149416035619458070771159,-0.15860321874512406381541,-0.0249987656528277667200566,0.0109797548708755968865924,0.991925637412910066181837,0.123844949441429597047915,-0.134246493845692593804841,-0.0969003359562786714676008,9.79023235455881923883226,-0.0187490785871100226755992,0.0226867821999625941808976,0.0111870946197166407087842,3.58254322068742503404337,4.932097536522920044888,2.01402229378947117410803,1145.05458246435455293977,1141.87226219910098734545,1137.46336688661199332273,1133.96977662281210541551,-382.709968554248632699455,-310.985011684504570439458,-82.1223718658693258021231,-466.118154401057779523398,148.957896173891271018874
23.0350000000000001421085,-1.61070389624378917936554,0.918475942574830894749027,-0.0823329215462355046284415,0.010674998159782702472631,-0.0126927834420769436452048,-0.158166245662217819223372,-0.0250015266802823023228886,0.0109652840063144234317161,0.991897745935519603577291,0.124068779590249242406053,-0.13602617822513674017415,-0.101268933518990661424297,9.78407279706103949479257,-0.0178648994912539299528831,0.0221678172775571745434231,0.0111737310558667184839932,3.58257590031795958296357,4.93203512115024267359331,2.01406084942290863892822,1143.87125867950658175687,1140.98827838175407123344,1137.33694668201155764109,1132.72206404914277300122,-478.133036532955031816527,-320.92511101370246251463,-14.9647077728255517570233,-423.899745737400337475265,148.957897317036099593679
23.0375000000000014210855,-1.53687082615295333987149,1.06973139585933174622312,0.00679665541566115694038785,0.00484973921925754489214988,-0.00981341534570280039917467,-0.157664617561314529536887,-0.0249882809110127876439655,0.0109657841186717956022401,0.991870390022573156230123,0.124289800740913489174311,-0.137636113251206393393034,-0.104810981776454995029191,9.77791754551729042077568,-0.0169861721004694009307112,0.0216383772615996276822425,0.0111302964370012143213717,3.58260409656156086910528,4.931972143818865284004,2.01409646743173231797641,1142.66391728168855479453,1140.2676366440316542139,1137.38854334774782728346,1131.85027789412401943991,-509.609458211627043056069,-273.23830379492369502259,48.7967743138239455902294,-291.737693400194814330462,148.957924117048463585888
23.0399999999999991473487,-1.35486370854933158014433,1.13389177784555772454667,0.0604330664667514297350159,7.9338198863390684868746e-05,-0.00611213309042857571434793,-0.157293820906633907696914,-0.0249639267160295143244131,0.0109802021710302538659576,0.991843323523854181189563,0.124509115469990730429295,-0.139140227786324344183555,-0.107517540430353331082358,9.77184555139098875997661,-0.0161151776185612209679743,0.0210987594509444570389789,0.0110583377530307676306354,3.58262784222977215264905,4.93190872264413027181718,2.01412960268184892953514,1141.32321138844895358488,1139.62208686277972446987,1137.58093055358062883897,1131.26337558214208911522,-586.331626986455603400827,-263.711310798960482770781,117.389411942918442832706,-177.76659906288739421143,148.957982112262044438467
23.0425000000000004263256,-1.05764300847951675521585,1.07532469189115564844883,0.098580669637676254790648,-0.00317239025862362140906203,-0.000849912696768055121732122,-0.15705608913721313957268,-0.0249371651415335286727792,0.0110034879240182587728514,0.991816447212785168296989,0.124726258041788232167058,-0.140663479108663502792353,-0.109474043014100644310993,9.76593187331252465810394,-0.0152542122194948108482304,0.0205493857317989615796083,0.0109600837301347345947855,3.58264761866582048810415,4.93184605129445241544772,2.01416112090270171819384,1139.732259146756859991,1138.94908009003711413243,1137.97549040746230275545,1130.96144489880975925189,-551.454321174050846821046,-233.345937196435215810197,176.960516988083753631145,-37.3189422201712730498002,148.958091578308398084118
23.0450000000000017053026,-0.786003702199271181427775,0.907940264633601223920323,0.121371474181228511390884,-0.00400753573171170728722812,0.003478209759089202855048,-0.157206122158244976372288,-0.0249141362400666400989113,0.0110350208640064527398916,0.991790269697031767748285,0.124936045406976517502251,-0.142290427192283353008406,-0.110682353512003645024109,9.76024837612337670122997,-0.0144050270011348915955018,0.0199914271323712484929036,0.0108379768506002248373843,3.58266407845636969398129,4.93178483584576099474361,2.01419166579119490734229,1138.56593978257728849712,1138.45535717679695153493,1138.46573313852150022285,1131.07678087104113728856,-402.626324815981263327558,-191.139884381702188420604,238.757325789267468962862,129.227325586023908954303,148.958217886271910401774
23.0474999999999994315658,-0.525849418742337704202328,0.64149746143886976490478,0.146714335831143433130919,-0.00367472019042702942315248,0.00655787011072136386685694,-0.157633247823923017261194,-0.0248957053484619474092998,0.0110755275720422329682746,0.991765073464093815935883,0.125136037990041415479681,-0.14400455956609886642994,-0.111113335884123157204506,9.75486318641556415798277,-0.0135688239537690661512537,0.0194266897612186198451845,0.01069472682051249984303,3.5826780816607040058841,4.93172580018625961173484,2.01422190010640633772709,1137.71912752267735413625,1137.99338066812879333156,1139.16927703640840263688,1131.60758152673975018843,-278.244010145100105546589,-203.257453175087420049749,365.805074690733817988075,337.404695888857361296687,148.958381743811287378776
23.0500000000000007105427,-0.23507037621589310649739,0.268404190914468654405312,0.181733055374540986015575,-0.00354208873874613684035184,0.00788272798097507977621579,-0.157668850933341375686325,-0.0248770376063022768953203,0.0111233201111664379429067,0.991740827607797137410728,0.125327639339565644061025,-0.145672037976363244471401,-0.11077908594836208266976,9.74983955732904306046294,-0.0127460936258558116263018,0.0188575798310529792189971,0.0105333957805947581870543,3.58269008690234169733912,4.93166978478981121725155,2.01425102704650926810359,1137.17471973185206479684,1137.43906991092171665514,1140.29475851197480551491,1132.76380435048508843465,-121.197938622873905956112,-204.028279951249004398051,456.867356386685969482642,512.776638882461725188477,148.958621776476945797185
23.0525000000000019895197,0.00391783394122350702576396,-0.0335612210463340984722969,0.207698619264205713852434,-0.00454439727615295243484672,0.00698909197870839233451834,-0.156900007288165749264053,-0.0248594565183323443213759,0.011174359406375540884615,0.991717846591556262403344,0.125508491900772040095191,-0.147274671942017265635627,-0.109762291434783415544629,9.7452307452782314101114,-0.0119364618715138131460618,0.0182872058536637654979629,0.0103570698409621089752797,3.58270078600333796714494,4.93161672494109470932244,2.0142782861252217507797,1137.11313782956267459667,1136.97323926837202634488,1141.45361381834300118499,1134.17146472115337019204,36.40322633160209164771,-180.959323177457548581515,493.011930359132634293928,648.567685446543578109413,148.958857117483574938888
23.0549999999999997157829,0.259584598598099902666547,-0.272780826703834466950838,0.220905155618429854813556,-0.00582816803635579413350731,0.00450132060523420092501556,-0.155628004163027161554922,-0.0248470017400473641711045,0.011220957582191548596029,0.991696238932425533363357,0.125677651163801945566334,-0.148839963966408472817449,-0.108232346725543771004396,9.74108062298383536870006,-0.0111387761257957865201895,0.0177190617597023057638861,0.0101688640499426399821381,3.58271177235562454654882,4.93156674513490589362164,2.01430406665645644892493,1137.35673586351003905293,1136.53427329503460896376,1142.75981816376997812768,1136.0066427777171611524,119.374827535353787766326,-162.442655374966790304825,524.042350548247327424178,789.971611752773924308713,148.959127025047024517335
23.0575000000000009947598,0.530271991101022521775121,-0.440116585536242499454573,0.222836975648199736577126,-0.00613615100227945034494503,0.00157517098468687812874711,-0.154521309126614575513159,-0.024837670839813440204491,0.0112598024802886120115941,0.991675998626114885148297,0.125835878578035104125021,-0.15029270885979362226692,-0.106268778771887256739959,9.73742698476933199458472,-0.0103510485419093262865475,0.0171570075571613259168835,0.00997161453959307178540605,3.58272365886992005812317,4.93152012859118471510556,2.01432952666340270297951,1137.71001196723932480381,1136.16102599149735397077,1144.07382557108371656795,1138.12132277991645423754,122.74001932680843651724,-122.28399295966187310114,489.063410342902898264583,881.663668547064730773855,148.959423237807499162955
23.0599999999999987210231,0.799365483290439771124625,-0.528221971799259226720835,0.220279486308909866476569,-0.00479122569063580514003853,-0.000872658992100778380107684,-0.15388217866155134982975,-0.0248286568775977524448084,0.011292289241264219165628,0.99165715078733329690408,0.125983429589477086141258,-0.151558945512843989966711,-0.103867876705438288986727,9.73429958775921377878149,-0.00957074170575365409940893,0.0166050219228731296694512,0.0097677170522811156139209,3.5827365478600632364703,4.93147678155553848000636,2.01435480195174942963376,1137.97043596014395916427,1135.92285333023642124317,1145.20513521548400603933,1140.41496112045160771231,34.0717065064449826650161,-64.8921550411743623953953,399.607716624893726020673,995.745145941798796229705,148.959747475797712468193
23.0625,1.08181543348047526365008,-0.583740324811251931613754,0.2298290652255866595155,-0.00119225644045422305219994,-0.00266743805987784340927327,-0.153766435518252725378474,-0.0248143053525403944892247,0.0113232907328163160537438,0.991639131349334235210335,0.126125435342757996615148,-0.152523112342069000479938,-0.100960097856897287882383,9.73172093536843263450464,-0.00879521637022275155903817,0.0160667698399131683717478,0.00955924355776511733284728,3.58275008761945334967436,4.93143603435752009289672,2.01437953438543404516281,1137.88037049977151582425,1135.83656521629154667608,1146.07186415420778757834,1143.10004850962445743789,-134.05831669231210412363,0.636306164869567592035082,197.875797222731023339293,928.219125449984744591347,148.960163362022996125233
23.0650000000000012789769,1.25869158200465158792269,-0.628493610290379201011035,0.259041728654727965164284,0.00277314732909120925663515,-0.00315563875540678670864048,-0.15401298908291619071953,-0.0247932984688535723583058,0.0113520221306714855918907,0.991621669538154448808598,0.126264352663140677623943,-0.153146665929576986098226,-0.0976041691275995604293314,9.72970357005497099578406,-0.00802189623277711066906548,0.015545298515776746761663,0.00934818996684692177234766,3.58276320235662071311822,4.93139778923503424579167,2.01440357501435496345721,1137.30014437668205573573,1135.92603486106077070872,1146.19451420159816734667,1145.05605674770390578487,-355.100646022927037392947,58.8269522657927765862951,-107.521038540447548825796,672.8746717425995029771,148.960527630838896584464
23.0674999999999990052402,1.36160549823766907628908,-0.713074067243976150720641,0.312589879933017233959447,0.0064412588423191328990125,-0.00302815237423044534420535,-0.1539173353999294946437,-0.024766098705859183881639,0.0113750143204032049676355,0.991604713354891531551516,0.126400808681949333722727,-0.153425808313367439961183,-0.0939217396711084645533063,9.72825161256172599166803,-0.00724846710876595346634277,0.0150428908881787750523307,0.0091364022775805922571557,3.58277517298016778823921,4.931361950839271202085,2.01442679238078881098772,1136.10486726965723391913,1136.13069997762045204581,1145.5342589615056567709,1146.46442186833678533731,-652.720977446545248312759,97.1624432969485951616662,-481.320265167692298291513,449.052437808539480101899,148.960904081888429573155
23.0700000000000002842171,1.40219855736804555057518,-0.880436941900553993178846,0.392895286837438462157479,0.0104698039635543749259483,-0.0033697985665027412223449,-0.153129485199654247207235,-0.0247335114924527553481592,0.011392626042590024704193,0.991587882400747133715413,0.126537600289737650616217,-0.153378723492315516274687,-0.0899659213672162616504124,9.7273619307744336737187,-0.00647308156980994520851569,0.0145609953462356757347695,0.0089253690595837657101308,3.58278592503219606157927,4.93132761821623777365176,2.01444932047932701024706,1134.03653948944997864601,1136.41184707754541705071,1143.78791287576018476102,1147.30131893674615639611,-829.306689272410494595533,94.8185141731270704212875,-784.687507040106197564455,149.52086529562248529146,148.961361900668180169305
23.072500000000001563194,1.37280066506450704189035,-1.06577773098910633109426,0.459023287034761251490522,0.0140299677218049725219151,-0.00476539727328495910790851,-0.152193124626871734150768,-0.0246964329302678947675176,0.0114094751149485321151111,0.991570811125737194835494,0.126677008796232004605997,-0.153042061390287975619628,-0.085711001308796067044149,9.72702460996017315153495,-0.00569431929940683936863799,0.0141002208594221446757988,0.0087162301710245627256457,3.58279532640078812733009,4.93129410324073447213777,2.01447187660587889723729,1131.95833382329306004976,1136.60479254848632990615,1141.61082142630311864195,1147.21202619481528017786,-844.474795803111874192837,57.7360675579826718717413,-978.593347791833480187051,-191.398569230970565513417,148.961742090271627603215
23.0749999999999992894573,1.28701552240022154549592,-1.26708205170973808861845,0.505522566535171691270989,0.0175048820213557221325829,-0.00767577389327932409213151,-0.150911236974740015082119,-0.024653796770110945890675,0.0114296345205444384307558,0.991553206899447703293049,0.126821171524076042880225,-0.152418833835947786781162,-0.0811382330684028985068323,9.72722413031761234947226,-0.00491120452405046509225528,0.013660296231565203367575,0.00850999170598685551747398,3.58280245385304496608114,4.93126129629486964489615,2.01449433133355260139297,1129.81416551043525942077,1136.70052741533527296269,1138.89494613680199108785,1146.344326090591493994,-882.581302030478695996862,19.2287705896016696272,-1247.15911385417052770208,-518.310817648274110069906,148.962112625866097914695
23.0775000000000005684342,1.13516831742739787713958,-1.48213103832231407608333,0.517575883966637118049903,0.0207305109352906441477771,-0.0125158130711743031948657,-0.148692284892888132441513,-0.0246099739543592481438861,0.0114531075079293710033967,0.991534955166651688074353,0.1269701161878152573248,-0.15161218177438606780072,-0.0763206500857579045460355,9.7279372655557896365508,-0.00412327289737542124203884,0.0132401374608644463448659,0.00830765048557895700864773,3.58280686019951710719056,4.93122916194027549607881,2.01451652458556118574506,1127.5454273131415448006,1136.70093640143431912293,1135.37502585703350632684,1144.62047210657442519732,-733.7401625394134043745,-11.1854030345454784622916,-1273.08078074723562167492,-694.162235361599869065685,148.962535759719258976475
23.0800000000000018474111,0.980350112738991641414543,-1.61264645332524625409576,0.481221127276757476565194,0.022709127071106283146662,-0.0169682234401781033283907,-0.146733675656956635835471,-0.0245655790769476918555814,0.0114792894351986429074541,0.991516197903997698048784,0.127122641264666130789251,-0.150655473825491048600611,-0.0713319702040498410111624,9.72913702810688185707022,-0.00333035612532186402548473,0.0128380760803162175670566,0.00811022777720751472663174,3.5828083044462881723291,4.93119750047983451679556,2.01453859053244554999651,1126.14546469773631542921,1136.64460040016251696215,1132.52954223306255698844,1142.87351491378171886026,-421.366133452094970834878,-19.3978717478369091509194,-1048.3893123523823760479,-688.325656041479874147626,148.962862784787944292475
23.0824999999999995736744,0.804604783641555409978707,-1.67393328080003533919751,0.396529868147437680736545,0.0245336619007810660675339,-0.0213791149418859419140126,-0.145221880910201162073747,-0.0245159249200937595647432,0.0115094060830590490251968,0.991497024980769747770637,0.127278816384249399140671,-0.149487279607391942981565,-0.0661940802730168337264516,9.73079355040323434877791,-0.002532492679465044027598,0.0124520711735779544132585,0.00791874999563550556469504,3.58280642217198108667731,4.93116598317328680423088,2.01456035317691695141207,1125.43859664588148916664,1136.60394704269515386841,1130.13307929527263695491,1141.17884382636771078978,-157.979256454322751324071,-2.86607430607603141936579,-839.816934995118344886578,-615.01643718264358540182,148.963154576626834568742
23.0850000000000008526513,0.612326430384099396064812,-1.67198905610403003585418,0.27950899604497125849889,0.026475957117056986983572,-0.0257079470286970257486558,-0.14399264091729835346456,-0.0244557622215935029086342,0.0115432661360428939073541,0.991477509613239771368853,0.127439087669897810339847,-0.148034269391710437968612,-0.0609506270131970617764949,9.73287281383778690724284,-0.00172981107051994615481094,0.0120798822165840182008001,0.00773435330144112056366401,3.58280182240214450928306,4.93113484749025587916549,2.01458120177646105020131,1125.35556841546485884464,1136.63027002863213965611,1128.33045755808780086227,1139.79843272786911256844,109.519664088419077074832,33.130704708656928403343,-544.806128222802271920955,-430.169938125171029241756,148.963411121008078907835
23.0875000000000021316282,0.400753115995942876814695,-1.59313785873232438561331,0.139690126149839832780941,0.028321514466173574459118,-0.0299440447617476818154003,-0.143094050031245367815558,-0.0243838199896740867589351,0.0115770454412737200389216,0.991457578184733678838825,0.127604612261135397233147,-0.146292675910151714901986,-0.0557205209878885582286401,9.73533566716931808571189,-0.000922448260641300400719533,0.0117192554728665042362845,0.00755832800083785193157038,3.58279455499712939925416,4.93110411192194675322753,2.01460070176356298432552,1125.98619496632386471902,1136.76960056623852324265,1127.40904865415723179467,1139.02799413574075515498,414.522435732161000032647,83.2510271426765200430964,-191.902594592776921444965,-178.963186161753725400558,148.963618413834410603158
23.0899999999999998578915,0.134514503846430794054001,-1.41555251016292427124199,-0.0256683346271798992765945,0.029609331824719854059369,-0.0350557605924071008507426,-0.142887465795021928460784,-0.0243044260764095007565366,0.0116076632820047761368576,0.991437186091335687088133,0.127775181062193099457147,-0.144370273982526775569113,-0.0506177131250676662355126,9.73813764120971114834902,-0.000110408320225582464390278,0.0113681894497930421200627,0.00739196620830939211954647,3.58278531799993560369444,4.93107396794534746931049,2.01461912269289555865726,1127.4281805941252514458,1137.04652516434543940704,1127.37094458512410710682,1138.90361679706052200345,614.576283528535441291751,108.542280963023358708597,147.223382192243860799863,69.2034704894150678455844,148.963802203852196726075
23.0925000000000011368684,-0.0826697482922282428363658,-1.20990556398690340955682,-0.137320397976993996413952,0.0295820499774454119534806,-0.0391747362971353110805417,-0.143607271803701919132834,-0.0242211461143786201122285,0.0116340615398287626491847,0.991416423564125071088426,0.127949511354375794480731,-0.142366164249624282955864,-0.0457108402015160703024677,9.74123157147799467736604,0.000706582954129170181557795,0.0110250991522909524283902,0.0072364572347175101438288,3.58277485640187265403256,4.93104505896345735038722,2.01463649532325961288848,1129.05907638396593029029,1137.31231197105353203369,1128.14516556511830458476,1139.37401148818776164262,703.015057174710591425537,94.7342516878240701316827,433.087277647468681607279,253.777808599857507942943,148.963895874837248811673
23.0949999999999988631316,-0.274425111529960297218622,-0.971604282390042262029795,-0.197286859399492420230615,0.0286191750813030477973431,-0.0423003762029669702626755,-0.145046294357106253514189,-0.0241390721626010551492669,0.0116556653906347371801866,0.991395548413227523099067,0.128124707338786780752571,-0.1404106766602766231955,-0.0410591115980002141494509,9.74456740641696583793419,0.00152902517356688486850624,0.0106888340440619272059264,0.00709284974373934271052455,3.58276353955400228556982,4.9310177988333778742458,2.01465300029481264587616,1130.94325587999810522888,1137.52019642278446553973,1129.53638097336101964174,1140.17250584005955715838,841.609607328049719399132,56.8906310045917464890408,683.186940395989495300455,344.958695596938412109012,148.963922004458027004148
23.0975000000000001421085,-0.457761606201823878503632,-0.694983403493852458510105,-0.197426204853118569815251,0.0268734444873655747842989,-0.0440234286829005033725437,-0.146731894883983526867155,-0.0240644263638085526002541,0.0116710515311587055553577,0.991374945874671453793781,0.128296766708386245081641,-0.138653716016610084604821,-0.0367375682863353980600607,9.74809307569145033767199,0.00235753910338332758195312,0.0103586117295868095772304,0.00696201961569768105336786,3.58275179121110420865648,4.93099233337728382053911,2.01466909985327591314785,1133.26712442060534158372,1137.59676512607643417141,1131.56110026709757221397,1141.09880496617211065313,831.308888981113682348223,-11.2490217504215905819365,743.705905456937784947513,276.52875842872566636288,148.963869299553380187717
23.1000000000000014210855,-0.566566466004275182122285,-0.506543386945199736182133,-0.142679957020571013259769,0.0253526272165531564584118,-0.0438375281810637271173725,-0.147102662092467251220285,-0.0240008445519894336728228,0.0116793095462086136265834,0.991354859641456642727064,0.12846323046431309955473,-0.137195304821991825861005,-0.0328016865088145981310674,9.75175621866609532162329,0.00319270740315197396747005,0.0100339556729600737350339,0.00684457741259352631102431,3.58273982037877658513025,4.93096844705214465420795,2.01468448712047187854068,1135.09980032490580015292,1137.46395131403232880984,1133.25491050064761111571,1141.55514963220389290655,681.934067488054211025883,-97.6864890064656492540962,613.949294516564123114222,68.0169468733901112500462,148.963751462451483575933
23.1024999999999991473487,-0.631185959747435854083619,-0.384357165803415612437277,-0.0442387345445681839928298,0.0239952154518832533325323,-0.0428829207720081706511905,-0.145978048820394001872103,-0.0239471038759116114369441,0.0116862148968056040604369,0.991335725020998648204795,0.128620444272019490705716,-0.136056554070287827329366,-0.0291631947972188290685303,9.75550475653950854848517,0.00403495385563692153529924,0.00971466198356842926264765,0.00674069132710865357577257,3.58272738512529453913658,4.93094578297618113538192,2.01469972721814905014526,1136.67679475804493449687,1137.10833268104420312739,1134.63084673967978233122,1141.43888970053899356571,616.254532655497996529448,-201.580643120718463023877,476.085651797988361977332,-200.474292251732407521558,148.963552875400068842282
23.1050000000000004263256,-0.661749858189774275984973,-0.302619609270730283157036,0.123532719803749940767901,0.0223637794238274768832131,-0.0425077422947813879372525,-0.144571856107078844377867,-0.0238986523858196638070428,0.0116949569029142375758967,0.991317731197082552263566,0.128767504731529230932452,-0.135184575931555694960906,-0.0257730250628129611834005,9.75928789511556793456748,0.00488424369348772462878783,0.00940062856931409701610747,0.00665025103655668935187517,3.58271392722512871387153,4.93092407609328020612338,2.01471518155441797759408,1138.18107298818267736351,1136.45604809842893700988,1135.63533875963707941992,1140.55277817094543024723,485.526639179058179252024,-267.434196473459053322586,240.705002175504517936133,-432.998899446380562494596,148.963217285186431126931
23.1075000000000017053026,-0.649124214218881889770785,-0.258094181054581428558237,0.321392496732977372975171,0.0207068157227742605241971,-0.0434833338123306045730487,-0.144833052520166677412661,-0.0238535620345225428395874,0.0117064187735718260724438,0.991300604517865058262771,0.128906800101082658072116,-0.134567359438031219909249,-0.0226313109042512311530615,9.76305494863308886976938,0.00573983048081741151213997,0.00909187142219561317268983,0.00657295954386759914006566,3.58269885473771099171358,4.93090311453855800749579,2.01473120578336217789683,1139.10442795394146742183,1135.77116169867622375023,1135.83437175055792067724,1139.27389520330598315923,311.275345724305282146815,-290.768677756808415324485,-47.8385865013119300215294,-577.761093038385638465115,148.962854177857764170767
23.1099999999999994315658,-0.597386408839909011092573,-0.194966778731949424985359,0.602237429744308938595054,0.0185461987953092280467793,-0.0454614226582718897184954,-0.146605920387840954477454,-0.0238123771180234200528503,0.0117170179813815937552857,0.991283832538578990600797,0.129042494485444581009403,-0.134224637276301794752698,-0.0198296528975780567138898,9.76675641559816121173299,0.00660020118003177159310413,0.00878854564839004481768825,0.00650848337350420653307781,3.58268155811667909915741,4.93088348840328816180545,2.01474791985703616248315,1139.73744971680389426183,1135.00220470964518426626,1135.39614582713056734065,1137.66397270575407674187,218.620857172752778296854,-313.317894105983725694387,-257.854432870914365594217,-654.643246161816250605625,148.962402199265568469855
23.1125000000000007105427,-0.517927529600969216438955,-0.0943361095276594036063145,0.947549882640821627965977,0.0162099413878348946882468,-0.0474983355349752958685094,-0.148416729645381550994898,-0.0237719633531259279257686,0.011725281183564655387852,0.991266761445570243616032,0.129180318910428165724014,-0.134104427113336199806071,-0.0174087230138115361954831,9.77034570879652619623812,0.0074631513388806790601504,0.00849108532715470154528248,0.00645638642404377204042643,3.58266152540313154162277,4.93086567595904057270673,2.01476474851756970352312,1140.19753223980501388723,1134.20457222814661690791,1134.54509958620360521309,1136.00067897249755333178,161.247841811709179182799,-317.949502440588844365266,-395.733275644740729148907,-628.101110008125715467031,148.961875276388440170194
23.1150000000000019895197,-0.423281832444896477518625,0.0547768114920574103465789,1.3167086281544324588566,0.014358958580486559653,-0.0487591490999031984543421,-0.14789731744625886356026,-0.0237291745305835757862134,0.0117309935774178534378942,0.991248997891757688272207,0.129323892753059721538733,-0.134151429277460487732299,-0.0153846411146893596866292,9.77377859124927006462258,0.00832589830497484396920616,0.00820011854610011754751486,0.00641629463381965161467013,3.58263815158682463746231,4.93085013461068299989165,2.01478116051351285875626,1140.54368892586285255675,1133.41245719744142661511,1133.41747944890585131361,1134.52346715571184176952,148.531157729105416365201,-336.216460882654757824639,-494.603735252356443652388,-563.609860639892986000632,148.961257003414374366912
23.1174999999999997157829,-0.3320847585290389591961,0.26627264351566132249971,1.66317041090927908442154,0.0137311042096462439937588,-0.0486674188712103994447489,-0.141920065062729278126952,-0.0236825044984252351676357,0.0117346874329982957946283,0.991230611239980130555693,0.129472912491861907868795,-0.134337433325409649764737,-0.0137632682541683620813799,9.77701324549246564288296,0.00918528569498642914747943,0.00791633679678344082120134,0.00638796493057507998314382,3.58261096214412333438304,4.93083716727905052579217,2.01479625326708067234449,1140.94018802845039317617,1132.5234899237336776423,1132.07208090994231497461,1133.18262966929864887788,154.199500289163296429251,-303.955365695234377199085,-447.196464203077823640342,-409.805046290502673400624,148.960408856476078653941
23.1200000000000009947598,-0.306441992438472088355894,0.441715912651710673753058,1.77546388106310559784617,0.0145038432839159885795466,-0.047060179294036053043726,-0.133140364842654485011408,-0.0236325341309433847869492,0.0117351750880534538845623,0.99121171065339042094422,0.129626541385220422908375,-0.134663475783220853987387,-0.0125883423357551066379401,9.78001104529616149818594,0.010038017137640466505677,0.00764038499556843938437245,0.00637125899801659241472596,3.58257996936665890075346,4.93082742319537192798862,2.01480971839591971317418,1141.31468642730851570377,1131.89268036896555713611,1131.18149712789090699516,1132.47444192425973596983,164.959044353177972652702,-209.015202386850177163069,-268.939843175857106416515,-211.67276739510845118275,148.959613450414536828248
23.1224999999999987210231,-0.355006810111470005875134,0.586991288334113736624431,1.64123483231704359042169,0.0153409681143741524755875,-0.0446441836521928939185422,-0.124207784474922797168794,-0.0235821285300521418792918,0.0117302852177240037739869,0.991192237929524821993255,0.129784897199347909468869,-0.135165850607664561611188,-0.0119269906832642630378771,9.78273699574702249037728,0.0108809782838195021059668,0.00737272278987284070128627,0.00636598072619565854418644,3.58254597077067016286378,4.93082087762695486787834,2.01482159975177665955925,1141.76498325021611890406,1131.47841391179963466129,1130.72738169406329689082,1132.12426583232331722684,211.129581912151650158194,-103.766729459469118523884,-79.2120098186999967992961,-106.962470492884122563737,148.95872615335474620224
23.125,-0.491718090301883681281225,0.712636703986586295123118,1.22105867459638139926881,0.015145165042805365518408,-0.0422527300930992111283047,-0.116931350059197983193293,-0.023534969206727627405451,0.0117176319749640704681592,0.991172264739883179807123,0.129946977658394219323768,-0.135890526637444553070821,-0.0118506820992639524958712,9.7851607043272643693399,0.0117115941133324862749587,0.00711336687189178997620109,0.00637164902293640283970078,3.58250967849132218034924,4.93081678759324493199756,2.01483232657432864698421,1142.37033433686906391813,1131.37384672166831478535,1130.78543707879748581036,1131.93962957179542172526,223.052562758879986404281,44.3831756315148879821209,117.94511264673352002319,-56.9064117734505927614919,148.957555483586645550531
23.1275000000000012789769,-0.648450873224142188000485,0.777917331765207831217879,0.72621345424256877887359,0.0136793239337711629993732,-0.0407167284001875295906814,-0.114242551910182302266072,-0.02349264729303807489047,0.011698297355486891521692,0.991151864546971461678027,0.130111830086718033294702,-0.136847170654388117227995,-0.0123551807337446278856063,9.78725739382228177021261,0.0125280418572491936829438,0.00686175632401923949604816,0.00638722177180959648640224,3.58247114360708218683271,4.93081424894160402772059,2.01484315521762713530052,1142.8802460640110894019,1131.70032978995732264593,1131.31710725729726618738,1131.83973377345591870835,189.107352879947370638547,223.115760729477926815889,290.697566324582624019968,-53.0652097770704216372906,148.956492044204310332134
23.1299999999999990052402,-0.816921367694113054191973,0.805334859925707968741904,0.190206252339742643009401,0.0111739100524941726427786,-0.0389749422611488510748146,-0.114479567241822885459435,-0.0234538676470343356028625,0.0116741607771998125858692,0.991131033543588224610232,0.130279542607621229288739,-0.137988238925763340159136,-0.0134090007158877699833255,9.78900923068361983325758,0.0133293617151621617694657,0.00661664219523195890754197,0.00641104094065901054799728,3.58243044102943652973181,4.93081253181574830080081,2.01485504835990525407396,1143.31587110126861261961,1132.48942552531548244588,1132.23892491042010988167,1131.67430352291012241039,155.116076443968211151514,437.217252656724326698168,456.200546596255492204364,-92.4677450047695259627289,148.95533801592199552033
23.1325000000000002842171,-1.00373176521053641963022,0.794236416616343032792713,-0.384217345017906941606611,0.00795752593698313866188432,-0.0364866898372538800421339,-0.117167007067233069905754,-0.0234183958946644239784707,0.0116486202836831396340012,0.991109992793210214934163,0.130448163601988437187984,-0.139289206692808087417745,-0.0149487749983139434073465,9.79040459945596630575437,0.0141155012155552237601563,0.00637601901154117266246057,0.00644102202956027634211944,3.58238797907026684796961,4.93081104303812356448589,2.01486867388158685798771,1143.65582644623077612778,1133.88641605324050942727,1133.5981099902780897537,1131.37739504843216309382,82.2262343726868039084366,559.883774557633955737401,509.267103411878963470372,-110.36267184948694364266,148.953849411532758040266
23.135000000000001563194,-1.13437978647339154925078,0.748221953575723630613936,-0.743820501259332633736676,0.00542434308761715212182652,-0.0342561623254355948620109,-0.120677204894343123586786,-0.0233842512905337272799411,0.0116235092183296275653026,0.991089083707484275187483,0.130615281808979272204496,-0.140687726750563513178349,-0.0169306702942790820998198,9.79143992809263785659368,0.0148873194687422025911383,0.00613721664994192929454275,0.00647480749766535419731373,3.58234453625122384323731,4.9308096157200003162302,2.0148834203787648888806,1143.7270022731322569598,1135.28884439810508411028,1134.78526042748080726597,1131.12249016366240539355,-24.7278664609943099605971,568.314325698497100347595,453.842270963649980330956,-70.0541546531124623697906,148.952523288033518156226
23.1374999999999992894573,-1.22890701841152449880212,0.668411823223739154364864,-0.941531169106700316362435,0.00259307041487676862706602,-0.0323534961040078325456015,-0.124818358452770838962209,-0.0233491228272890843919996,0.0115984682735194681579838,0.991068391101742385274065,0.130780690850994113505479,-0.142110824992728201898728,-0.0193449728767493348002837,9.79211958694295070415592,0.0156464312415242993992148,0.00589710119360725270459822,0.0065100008610363231317808,3.58230079671733125934452,4.93080806521634773531559,2.0148986176569847472706,1143.53218711392582918052,1136.72798768173242933699,1135.86732134509588831861,1131.02712427516667048621,-124.228835207465792223047,551.316090635073692283186,399.304827128105330302787,16.7186969450118851909792,148.951109511773779559007
23.1400000000000005684342,-1.2860134920282195736263,0.567702271517262158084804,-1.00346383768602698260963,-0.000683997734621788629726102,-0.0309380328550069062798489,-0.128967345719372461498864,-0.0233126396115586678736697,0.0115763622678593004755587,0.991047796589718088533516,0.130945087179313773839695,-0.143534245495018419891409,-0.0221163711206942420472998,9.7924544266662891800479,0.0163949782322596673833637,0.00565224947074929786466901,0.0065443192452436915046432,3.58225725691070362444179,4.93080563771055047084246,2.01491429650744491297587,1143.10585809709505156206,1138.04542485127990403271,1136.78178456312093658198,1131.20608364838744819281,-223.484115524819827669489,472.462049756117494325736,318.530424243109166582144,164.870385214096359050018,148.94962418358264244489
23.1425000000000018474111,-1.29126639926458741669535,0.451487722150955783639859,-0.929569249847392198304874,-0.00426647368686462486603306,-0.0300806016016743511809484,-0.132421314830900582748541,-0.0232739259211782699432458,0.0115578449829212698274361,0.99102700197074811150344,0.131110813249403351798961,-0.144921964402853931108694,-0.0252029464598697294785978,9.79246315504696163145582,0.0171353632175517550662036,0.00539910293974970711267103,0.00657563086991173884054973,3.58221336571546133953348,4.93080175859600355892098,2.01493041835728137201045,1142.41476653630115833948,1139.0902979305142252997,1137.45997346631224900193,1131.85147620123757405963,-355.342536462310590650304,387.404737538131257679197,249.684778930126981322246,407.793023620378505711415,148.948054431880677839217
23.1449999999999995736744,-1.2368700203623224087579,0.302187175596032031599236,-0.74772046107012590798746,-0.00839946689217360882573349,-0.0295086882812890631544445,-0.134895567642581787337619,-0.0232293387744887495915957,0.0115448567389990069953498,0.99100570483437044888575,0.131280624883468338692794,-0.146191919705565331888408,-0.0285227817698245483812869,9.79217225605924923570456,0.0178699757802849960863778,0.00513425352235921846066891,0.00660188970402736732823179,3.58216855597246430775726,4.9307963156734357923483,2.01494645570652730626193,1141.32914541478385217488,1139.98244853897017492272,1138.03020845777132308285,1133.24504876648893514357,-429.728517299185114097781,276.864766101071438697545,180.145577892644183748416,609.404627322767964869854,148.94607625553115326511
23.1475000000000008526513,-1.14700992880646945870637,0.170023168474181557430214,-0.573448621485611487180734,-0.0113313544753050419316986,-0.0292649537601340908876679,-0.135402780731121552548757,-0.023174843109776230298813,0.011537652186196430473264,0.990983941485437780372081,0.131454936435419889040332,-0.147255038637507162935236,-0.0320186620278672395834008,9.79161502226743429844191,0.0186009474297735601100445,0.00485463792233797961778174,0.00662123785633222158159006,3.58212189474637598962659,4.93079035198466453238098,2.01496207800069004889565,1140.2661239498056602315,1140.47462176101930708683,1138.36070135577529072179,1134.89849933785080793314,-442.239274441227507850272,169.329325768062290080707,119.376026207449143612394,738.947161828841103670129,148.944351857769930802533
23.1500000000000021316282,-1.02245715993670871490906,0.0239798081120723184656018,-0.432155325211762697534823,-0.0138849641423273179735576,-0.0291453413890351842319149,-0.13481054871299225084158,-0.0231124165165652248332684,0.0115358109600714343195849,0.990961773187874150892185,0.131632956642076803799313,-0.148142089462153847545522,-0.0356556879156490202920082,9.79082844191530021760173,0.019329928072571524871881,0.00455786779375393601154709,0.00663220869000132745574305,3.58207319073970831269094,4.93078524838897180870845,2.01497732350830727199309,1139.11794904257658345159,1140.82909516781091951998,1138.62708858880887419218,1136.9397845756350307056,-507.324927758246303710621,154.104055147976140460742,120.319134124271215569024,940.544263079987786113634,148.942552648470524445656
23.1524999999999998578915,-0.846986421729636451694034,-0.178639939932923486054506,-0.336199752601951562525073,-0.0166256704737473733068942,-0.0291300067567268200496855,-0.133899898199594441505766,-0.0230429186629327910351694,0.0115398774783046498271233,0.990938984476322670680304,0.131816088419432680955978,-0.148868735031308763172575,-0.0393719229827815819788839,9.78985451906616432893316,0.0200581400514775916310573,0.00424255149811165500894905,0.00663341879724749661911831,3.58202306497549560759808,4.93078170172239804713854,2.01499254758011847599164,1137.72949931101493348251,1141.24514203675903445401,1138.96229702639652714424,1139.60122065324981122103,-501.342755365212440210598,165.046660672065712560652,134.493133504728945126772,969.753417434605694325001,148.940312546752068101341
23.1550000000000011368684,-0.689704840161492693795253,-0.377915065811050554511752,-0.319205205515718404285508,-0.0183996050220725897161866,-0.0293082621573568409545363,-0.13351921386585766104993,-0.0229684164933444782963345,0.0115457976671023854892129,0.990915278168321145280117,0.132006537290890346714178,-0.149465817656672661506434,-0.043193986385942219341505,9.78873899075391840085558,0.020786392634781745286654,0.00390819935378478987980655,0.00662365358115346754275254,3.5819715523002360058058,4.93077999208389705643185,2.01500758163517623700045,1136.61123526575102005154,1141.65432847117108394741,1139.29955425633238519367,1141.78855166280709454441,-433.309658422053701087862,178.97046813708507784213,151.671043514473410596111,818.174730346644537348766,148.938382764682074821394
23.1574999999999988631316,-0.53345669262526473897168,-0.612403974708834120121992,-0.345874046307693139290507,-0.0195723358381834286467971,-0.0298983428627313321812586,-0.133789650078197486227083,-0.0228888892860802592443825,0.0115505636850855679387262,0.990891004653301377125274,0.132201910389961485581267,-0.149929901207229876458626,-0.0471210559274260198936446,9.78753065481818396165181,0.0215151638739810927014595,0.00355500335373061266547312,0.00660170380387153053758365,3.58191834709309420148315,4.93078032017235123873888,2.01502261312967334561108,1135.5629510189050961344,1142.13999437744428178121,1139.72065224396874327795,1143.69209430498221991002,-444.605874698160960178939,216.746577809178603502005,202.467977677264826752435,720.768708241355511745496,148.936393593755099118425
23.1600000000000001421085,-0.358057349614316733354968,-0.927487398423592956930861,-0.385519557357255460150469,-0.0204872056903292326657251,-0.0314321379603383355139101,-0.135120991788582472947766,-0.0228035851076692913652622,0.0115503226858710526803176,0.990866573161566455141269,0.132399583749900989770865,-0.15024352236511356872839,-0.0511659492913834473837298,9.78627979383035651039791,0.0222445663928520498409114,0.00318387821787429305467332,0.00656642333883792565091264,3.58186354613938151558727,4.93078312308753829995567,2.01503766844607001829104,1134.38820589226065749244,1142.73806136021676138625,1140.31189414471850795962,1145.39239520401315530762,-419.493539595727327196073,203.295008396694953489714,224.243511919643310648098,499.389466979818337222241,148.933945765895487056696
23.1625000000000014210855,-0.225959720840791411511361,-1.20485806192372435496907,-0.391724538719090631389008,-0.0210353841338904272439958,-0.0336458411354189634856482,-0.136937415077555246778473,-0.0227121794749414254721565,0.0115433097299183912154419,0.990842193625715572657953,0.132598188579653331053976,-0.150404263717180686210639,-0.0553023481148733481171931,9.78503609547643016242091,0.0229743661178498023711647,0.00279642115234834910328376,0.00651680951578106990723649,3.58180737057700060432808,4.93078932224110211279822,2.01505338242546860882953,1133.46548332092538657889,1143.15646941942827652383,1140.84186980356753338128,1146.18904163988258915197,-361.861437942233521880553,126.398357396126499452294,205.668185306280975055415,176.879776013755588337517,148.931861500724977531718
23.1649999999999991473487,-0.109419535001709339328002,-1.47474139648078783615404,-0.340047153161594062353856,-0.0215386832943073661117417,-0.0369354250255674865233146,-0.138947761610710651680733,-0.0226152021541383869973618,0.0115302891662533817107583,0.990818209288802154155462,0.132795003139113410028926,-0.150433765054241330716422,-0.0594587765130019582637821,9.78384696693373534515104,0.023704045051298111568272,0.00239456917424887665013511,0.00645213934194924492587786,3.58175002752453064402971,4.9307991719215680248567,2.01507077309533988440648,1132.5788987025498499861,1143.37005314719726811745,1141.34023507124970819859,1146.27679408408175731893,-351.466672795301633414056,37.9493058519149641938384,180.833104185821468945505,-75.3914325157588649517493,148.92973930224857781468
23.1675000000000004263256,-0.00604802932761055057203636,-1.71970695851634336470681,-0.230474155140981101785869,-0.0220373899563799900691574,-0.0409840745024615052405359,-0.140665040987311723563735,-0.0225171043861781966510804,0.0115072394255251626848935,0.990794655496909482117474,0.132989350315884324871263,-0.150416942288726374066243,-0.0636689560320091996192815,9.78275522116109819137364,0.0244328018866249337126551,0.00198036900870418499515102,0.00637233870103152966191118,3.58169094665284992728971,4.93081204062432654211534,2.01509024336319209069757,1131.70814995694922799885,1143.34621594868781357945,1141.74603532449646081659,1145.81208447730386978947,-345.528572568451295410341,-70.0958627634559690022797,125.418003019767141381635,-290.691375185575907380553,148.927592251470514383982
23.1700000000000017053026,0.0775246339470512801916868,-1.91450751897131121737061,-0.0554049814080222607914905,-0.0223814914828193226026265,-0.0456424992156264086595741,-0.141613427934899588356288,-0.0224230952134792972663124,0.0114697463875140584499412,0.990771633508330085149396,0.133179976170690606007696,-0.150451693114944051732351,-0.0679791956422685639260806,9.78179800865283688438012,0.0251596599408690953236789,0.00155564724392150003154378,0.00627816543425951771595361,3.58163036835065806684497,4.93082751925708429041606,2.01511145505999422766763,1130.85125583970670959388,1143.01957383337980900251,1141.96732508634886471555,1144.82333720815313427011,-369.912171007109407128155,-198.782273144655363239508,46.0089873085599379010091,-501.254471131878403866722,148.925423847921223341473
23.1724999999999994315658,0.142049981016209192485888,-2.06999095440197766748724,0.209324357756371537409024,-0.0221766339377861970705297,-0.0516680767351667472042642,-0.141743639175244545702625,-0.0223321389404985658211356,0.0114178553741609827704151,0.990749576798838238467226,0.13336381976230154977614,-0.150525532914143167495524,-0.0723364430595487967190493,9.78100734346649325345879,0.0258836052913152779575423,0.00112181448158400840636739,0.00617119118467077034523305,3.581568162015174028312,4.93084496220252255227479,2.01513229762293111235749,1129.85858910191404902434,1142.35230458296473443625,1141.97608026103921474714,1143.30581212164497628692,-350.113549409958579872182,-269.578850729984878853429,-34.5319572801668570605216,-565.964927688968373331591,148.922809017036968270986
23.1750000000000007105427,0.152780220898461743805896,-2.12348612877538123200338,0.453797162242715546032201,-0.0212104971233120671858519,-0.0571483875069476177088745,-0.141157240215007112604795,-0.0222411331250992397312594,0.0113541200795197073231124,0.99072881737860929440842,0.133538715686584708031148,-0.150590855688096270093013,-0.0766367499490275966289587,9.78040721615325736593149,0.0266035711260483656581677,0.000679861846070708205486133,0.0060541297349035660610439,3.58150405694011064738902,4.93086373361448959684594,2.01515052079558776298995,1129.10068809265726486046,1141.67167957973015290918,1141.79466529994806478499,1141.99351256970885515329,-273.545569095446012397588,-270.12272697092890894055,-91.6612768466606553374731,-484.519333087634947787592,148.920628668655893989126
23.1775000000000019895197,0.107385695245111573159491,-2.09136726881864998262017,0.693476098903722082411605,-0.0195096669309461796804062,-0.0630389439814691560082238,-0.139869542411547309601616,-0.0221508952881529566636409,0.011284673790529373138547,0.990709342732745357196222,0.133704093163710013847378,-0.150683485048401455408396,-0.0807200341329507992105263,9.78001015495536307753355,0.0273184281795897897227032,0.000230397126682920010088892,0.00593100845500899465784217,3.58143812481227019617336,4.93088352449329914151122,2.01516509006991384467256,1128.49086125643611921987,1141.00169094810939895979,1141.51777387680567699135,1140.88321545620556207723,-213.795536247650289851663,-267.047852343201554958796,-109.388180464451508555612,-399.898447710199889115756,148.918458719271200152434
23.1799999999999997157829,-0.00422551056170020200575266,-1.96038203946629763230192,0.938411972092400792355704,-0.0177212840315364751619942,-0.0697693001356091413445171,-0.137365595014654229277795,-0.0220626560498525213505072,0.0112125537650885533785816,0.990690761226059812827316,0.133862386522657500487199,-0.150836808253720089378902,-0.084490190948957821781562,9.77981775371958583775722,0.0280271194702809180177017,-0.000226277294479409243335363,0.00580656685386625199402078,3.58137034781905905234112,4.93090447428741551760822,2.01517606458402820379661,1128.0317104114192261477,1140.33644031801441087737,1141.2477243976259160263,1139.99402033115825361165,-111.565076677401890492547,-211.885265706492958770468,-63.5219815391009419158763,-237.013029191168101306175,148.915880730970627610077
23.1825000000000009947598,-0.119726973312308013208671,-1.79050184621447150412621,1.08008879767223509027474,-0.0176382239248959911404047,-0.0744383546274460655700622,-0.134413308539234166438803,-0.0219769572472880633795533,0.0111408618437902357661828,0.990672483556384264602457,0.134017611422680232857729,-0.151068982423286368721449,-0.0878510595072653915904581,9.77982057282274297449476,0.0287287497613289144471338,-0.000690106380236173177523951,0.0056857347031231061929013,3.58130070766238040036455,4.93092618570831842106372,2.01518461689220673704881,1127.93303587304922075418,1139.94226461957714491291,1141.20016396911023548455,1139.69815031024995732878,22.9981068945153594995645,-126.370775235161673322182,38.120724286689743109946,-27.4371515522998379310593,148.913763656729344120322
23.1849999999999987210231,-0.215249940638483350241472,-1.58492052717070808220967,1.13074311809601768530342,-0.019125805759578940606902,-0.077844742512587467020424,-0.130790214288031336753448,-0.0218897715095906914006818,0.0110747091637776549216676,0.99065404160776093789309,0.134173473049753771979553,-0.151313458240224074646818,-0.0906588371721096658584216,9.77999984426894819478093,0.0294226884879874028833058,-0.00116124472180918628452795,0.00557302389510162116126324,3.58122920679159095769251,4.93094786145963137613535,2.01519141498956022573452,1128.14670094589178006572,1139.70458644183872820577,1141.43832801905932683439,1139.85683457339678170683,155.434009981567214708775,-82.8573364425830050095101,174.35791242832070224722,151.290748061440439187209,148.911689566350418090224
23.1875,-0.265471454757001734670041,-1.32438897632572816220886,1.07207114912815559826242,-0.0214001382299969615530255,-0.0813009030663406212502409,-0.12633535623894889821095,-0.0217949697559904551069643,0.0110176070655758177874173,0.990635010607981203456518,0.134333839564975271452241,-0.151457643321364021637976,-0.0927987367859789552548833,9.78032755280017696009054,0.0301085784095666553206172,-0.00163986641817649800995094,0.0054723346015655141214018,3.58115605022324690054347,4.93096898155212670644687,2.01519652753942413170307,1128.71020592295690221363,1139.52797793736431231082,1142.07195353125166548125,1140.45460405055700903176,243.307754940327072290529,-60.3981600809365986037847,279.043832430664281218924,259.35902004285173916287,148.909261409471071146982
23.1900000000000012789769,-0.240235849185117450454996,-1.10741197474384067689357,0.927655738570145271815193,-0.0230965562362450693711935,-0.0841469034345623950743587,-0.123158285330001907031949,-0.0216867604029338766069568,0.0109674911809358958253435,0.990615358338142515393088,0.134500085822072179553288,-0.151380716365544731871751,-0.0942692426538500466426385,9.78076698900082242005283,0.0307863046517308711069738,-0.0021260787453890087582431,0.00538680797771608991381109,3.58108106240478374360237,4.9309898999397967500613,2.01519994043123640281578,1129.36323972059403786261,1139.40259564143389070523,1142.83354718121336190961,1141.15362967361170376535,281.655684828603284586279,-58.2277583587372049578335,328.561270521024084700912,282.41314513430711485853,148.907295867423357549342
23.1924999999999990052402,-0.14948497260766047123326,-0.898824944489931776381297,0.704296903979689248309626,-0.0242185108583356373257445,-0.0866227651506903395528525,-0.120958539409982065992999,-0.0215661660148014182325493,0.0109220592918282070199476,0.990595324094257434488497,0.1346704963716796044082,-0.151093849288027659572009,-0.0950965131923216522302766,9.78127243305264215678108,0.0314559056298047978739163,-0.00261962984703019647128586,0.0053190532676047801510788,3.5810041761413691219218,4.9310118581871726917143,2.0152018112689535911386,1130.1184843470996383985,1139.23683914557068419526,1143.7147598838564590551,1141.86666977622826379957,309.813321553445121026016,-74.6977992270479660419369,351.37004480022994812316,259.366046396559568165685,148.905398245444871463405
23.1950000000000002842171,-0.0187849309812909252836999,-0.703409732042440616339718,0.437422527519778281401841,-0.0245965979189519505510031,-0.0884987759072141111360565,-0.119559009624224735213183,-0.0214412365229114387776832,0.0108828474010890293571796,0.990575128608605859348302,0.134842028554429838038686,-0.150755247482935283986905,-0.0952568287249922901471777,9.78179170601518599426072,0.0321175991044664391194097,-0.00311957654552715750798098,0.00527105717743881017206542,3.58092612062502224645755,4.93103537302352279425577,2.01520262129124017036474,1130.91230632836095537641,1139.02910664529872519779,1144.5903974052141620632,1142.45045990559424353705,321.367121652810283194412,-83.8176089012930418675751,327.262162453158396147046,176.576833634454203547648,148.903562100291765091242
23.197500000000001563194,0.13656011941838730461285,-0.531736657152307334861518,0.146796519284967508234274,-0.0240154936791172300691866,-0.0896716817592544540582722,-0.118978344093781940316035,-0.021315683535369368828416,0.0108540575096073652755502,0.990554644170685838489021,0.135014668443975888179054,-0.15044625625892871223499,-0.0946700978974101547969155,9.7822732238059479925596,0.0327719524430586939267585,-0.00362393477435917410120481,0.00524334231936364816850649,3.58084702686734290821846,4.93106065973860197004797,2.01520318508892959386003,1131.72531995536451177031,1138.81775110106400461518,1145.35107069612308805517,1142.74955394440098643827,358.303868995952484510781,-73.7476216189098749964614,289.695855688445021769439,50.8344957308610148061234,148.901805516474865953569
23.1999999999999992894573,0.324474352727749437708127,-0.359916024623217867262071,-0.193300968707178694172555,-0.0227013705775930274555208,-0.0905304777659114989774025,-0.119096332793582254661047,-0.0211924490118396077753538,0.010836873829170892008511,0.990533966149426681191414,0.135187138936365719432686,-0.150226789461584075979772,-0.0933208280410084412004323,9.78266755794146902758257,0.0334198121531021075103496,-0.00413001134515368888838749,0.0052350256204937708690017,3.58076742573778572520382,4.93108843575667599168355,2.0152043966806698627181,1132.70382567334036139073,1138.66036853720424915082,1146.03887668365609897592,1142.70463238424849805597,355.462870562430680365651,-29.5772129605270208685397,209.078829620053284088499,-79.4304655241988939451403,148.899795592115026465763
23.2025000000000005684342,0.469536593680416391993759,-0.245836459244870103590941,-0.444061103388520062029698,-0.0214217544651745701866918,-0.0910196167916852566515118,-0.119883072068266247067747,-0.0210719465397085845004277,0.0108270558929450949614548,0.990513376994009875353697,0.135357628203404134481502,-0.150094837555040661047911,-0.0913009335203298633132363,9.7829309910865287491788,0.0340622661789272904164783,-0.00463448086012058224625321,0.00524367924293383472905683,3.5806880892560069007402,4.93111976725178013936102,2.01520652041204417770359,1133.50263430817631160608,1138.66986503626139892731,1146.3964648442231464287,1142.35240161678007098089,307.776483452859679346147,34.498065265216240504742,100.592035391940427757618,-186.331784264889563473844,148.898205950812325681909
23.2050000000000018474111,0.594985130616196844499655,-0.15788312560967451836369,-0.63142155344609895983865,-0.020013070339784611029188,-0.0914861316059369100717191,-0.121506534623433554154204,-0.0209528199641054631296999,0.0108226918057173788351166,0.990493195300626294574897,0.13552416172564499263764,-0.150021644910407925266327,-0.0886619342572543267522178,9.78302802420858164111905,0.0347005128928520242825861,-0.00513353713574116882201182,0.00526561696741478964256533,3.58060924003312930352649,4.93115524919292624872469,2.01521008348400076926055,1134.24270809060544706881,1138.83285886353041860275,1146.54183686061605840223,1141.77297346292357360653,297.290883016662576210365,87.3624099242707501389305,27.1496404605895236272772,-276.450098550786151463399,148.896708345216580937631
23.2074999999999995736744,0.7191418724683336094472,-0.0753592452022819325740954,-0.752840967892541623740499,-0.0180083885746283138551416,-0.0920926039294089476827665,-0.124552442807950872194489,-0.0208345978222271577262603,0.0108224156523346343866665,0.990473690972688114442235,0.135684947528445370990013,-0.149998263083071292633974,-0.0854567303598984945312012,9.78293267024606549853161,0.0353356883147026012981229,-0.00562326110880028307709155,0.0052962441794662086860801,3.58053099551687337154249,4.93119467542338529852941,2.0152161686408867069531,1134.98908872325932861713,1139.10667708588266577863,1146.53221304652606704622,1140.97015112402641534572,237.461369031190713485557,87.2163578440623297183265,-21.0737547226514010390019,-292.615949911454663379118,148.895020614531063074537
23.2100000000000008526513,0.799543734106679671036488,-0.0222105648294727460456688,-0.754232120860870325351755,-0.0159700307176604515413398,-0.0925176767098778579656582,-0.127898807280071497016749,-0.0207139916021789466382685,0.0108224969396255032982879,0.990454745840693928649046,0.135841652426180431456615,-0.149955108408215798121432,-0.0817857749142237577810732,9.78263155226155411980926,0.0359687850376993883960708,-0.00609981498989068098709465,0.00533005569384647354125306,3.58045251794586816274091,4.93123735474392876909633,2.01522532593345449214439,1135.43001493576116445183,1139.26894065275064349407,1146.43646808700282235804,1140.30989371336659132794,125.504763795360673839241,15.4847413234540809412465,-38.6906676986002224793992,-249.861927855326428016269,148.893706819116829365157
23.2125000000000021316282,0.857530679414262753113007,0.0144667277235462007900502,-0.655999743292793091598014,-0.0136827652506379959795879,-0.0925385828098303497846189,-0.131363445148328816802774,-0.0205916272603965701259998,0.0108180264201573807930634,0.990436295347139727951458,0.135995047411461594810689,-0.149896046998801157901227,-0.0777916705820341780608373,9.78212255087285420529497,0.0366004071158035210187265,-0.00656006953649082482499244,0.00536153816086661159229232,3.58037289758304977382863,4.93128223590641834306325,2.01523783886416252286722,1135.61661254223645300954,1139.18410079249997579609,1146.33875970803296695522,1139.7208414847491440014,15.3511754298536811091935,-126.097538153296753193899,-22.6759563291170351817527,-245.180759885628162919602,148.892490134445239391425
23.2149999999999998578915,0.908494506344926011642826,0.0357803551411951109573195,-0.462275896446740108824969,-0.0113067200011393448333408,-0.0921376906696353553671841,-0.134025009553040752585673,-0.0204689993121169484802113,0.0108059575667637207396776,0.990418086632567806759653,0.13614699798948914910568,-0.14984646985107913375046,-0.0735910201412062481285403,9.78141617753272996083069,0.0372307666908556905704941,-0.00700160864396016675154089,0.00538552030581096290162701,3.58029153285448309418371,4.93132811323495179323118,2.01525259719669058711133,1135.50677081291041758959,1138.6384529619842851389,1146.32308830535725974187,1139.08398991393869437161,-94.4875441585015067857967,-281.482987177707002501847,24.5409556408097770940913,-231.702465863145960156544,148.891142445915619418884
23.2175000000000011368684,0.942056505334574523224944,0.0337969847751790550272055,-0.285067920502495186774183,-0.0098649263639652099572297,-0.0919234598702745042686502,-0.134275872216156999527925,-0.0203423210740361001813703,0.0107887114318299930787459,0.990399773775206271331228,0.13630040558588060739531,-0.149743136070614346611052,-0.069186954479108331295123,9.78053709875650589822271,0.0378597616207808768118426,-0.00742268864617138830058751,0.00539724871806258887918517,3.58020814700919665085621,4.9313745152121288839453,2.01526838760839277497894,1135.14417482144403948041,1137.77668585661172073742,1146.46146448623699143354,1138.56232915543364470068,-190.245623457023270930222,-414.097503689427469453221,96.9288626239824253616462,-220.002008249182949839451,148.89011235367198082713
23.2199999999999988631316,0.966998550461134920297468,0.0137808151753202549200106,-0.14974902428809297449952,-0.00817488978458256326797837,-0.0919492426394883655138557,-0.132910541708581519948495,-0.0202087725313255528458711,0.0107714092857975184819308,0.99038119042695571536683,0.136456508350347643920841,-0.149547763835959524048036,-0.0645382152440710510354904,9.77952062874118155377801,0.0384869305147299625713408,-0.00782234621788863160318783,0.00539303914680402084191879,3.58012297328880979563337,4.93142173478483858417576,2.01528432998325301994669,1134.55554269562549052353,1136.5679654435375596222,1146.80773261847707544803,1137.98397987269299846957,-258.244576057183166994946,-513.165795483712145141908,173.389444580687211328041,-246.031791828367033758695,148.889177378308517063488
23.2225000000000001421085,0.976724922845959020456519,-0.0189569321846517722940373,-0.077756913929030793686259,-0.00562066402703213178343455,-0.0918597540349301855400199,-0.131054616106810878362054,-0.0200737031251594678915584,0.0107556426601923792174542,0.990362373398649631361934,0.136614107934772299746129,-0.149369343915027430469422,-0.0596977413976984699894857,9.77840872110797576510777,0.0391114294673214554776131,-0.00820039451860182268261301,0.00537078370110250814806196,3.58003639686729302482604,4.93147012999921408038517,2.01530052496270828399361,1133.85295194115838057769,1135.21085687919367046561,1147.32841170914025497041,1137.3321701962920542428,-285.316120409597260731971,-533.027066609247526685067,240.390212127490286775355,-275.316386162780986524012,148.888320068009846863788
23.2250000000000014210855,0.955923768957644304222754,-0.0641224101451710326582401,-0.0867296364419996163031001,-0.00231383789739348375361083,-0.091624739610569383430061,-0.129782466726888034980192,-0.0199411671546488970807598,0.0107430766852616293993705,0.990343335174180494639984,0.136772365747330620910915,-0.149289203114850221876253,-0.0547159566536382369061897,9.77725115900787145051254,0.0397322073725291519119551,-0.00855708747935248967286803,0.00532940428208475858867788,3.57994821391044704128603,4.93151927878988960429751,2.01531651521017796113711,1133.12896209357677435037,1133.90283011048995831516,1148.00968367911514178559,1136.60739794187838924699,-291.942817459734101248614,-506.512348273018517375021,313.40045920462085859981,-321.271081218237895882339,148.887554976091877279032
23.2274999999999991473487,0.893024335854476936091828,-0.124493529714904793692654,-0.162985632163658744619994,0.00152906083777808524115649,-0.0915520113303065624643651,-0.129914598273091264069024,-0.0198086701683169649768068,0.0107367923306717402004429,0.990323917528593389292269,0.136932534464840133248131,-0.1492621951354168308157,-0.0495991785229403098211876,9.77610488024036250465088,0.0403481267520576780682973,-0.00889287402619436465056602,0.00526848403345369590417002,3.57985781260706437123531,4.93156837357490029916107,2.01533139020809670682866,1132.39323785386000054132,1132.67829513782908179564,1148.89541400516304747725,1135.72581479020118422341,-228.052038710029478352226,-361.90218792196827735097,315.709291209913374132157,-311.25251191653484283961,148.886741686527614092483
23.2300000000000004263256,0.821128410894197302560826,-0.169616906962226310362496,-0.249156026085667781089228,0.00399340527637451897513543,-0.0918346891188861480515016,-0.13120843851214494812929,-0.0196722274375500869036948,0.0107388843507945936500692,0.990304105476922824635722,0.137095140528944642310805,-0.149208468996514631577099,-0.044368480978370337941552,9.77502978567564717593541,0.0409579347004452795633078,-0.00920847695921351953873835,0.00518847936889243500913071,3.5797651415785560757854,4.93161723128747730982013,2.01534425912190995333617,1131.98870190002685376385,1132.09331917088047703146,1149.58823013516439459636,1135.05113538229602454521,-105.316563061924867383823,-133.338524322039120306727,246.191964368664713447288,-243.428863228166903809324,148.88615003607870335145
23.2325000000000017053026,0.755267294879712336452826,-0.194123611502675263995599,-0.326166366083516123808295,0.00526660479838206990743643,-0.0924598992678739017847533,-0.132818457705222797704536,-0.0195283989109927315352966,0.0107483889921515338855551,0.990284262444390273039119,0.137258148562366261158374,-0.149047356872787639670008,-0.0391041111891159698377152,9.77408578668708294401313,0.0415603021551993537241465,-0.00950484929475018183731017,0.00509060574526051193983145,3.57967072768670346860631,4.93166697441620982544919,2.01535500085026964001145,1131.86665503855010683765,1132.0116025162185451336,1150.12637382700700072746,1134.50867047405972698471,9.53246485173811919366926,59.4999841939743561169962,186.072714073989772032292,-202.792600537390512727143,148.885646302871862189932
23.2349999999999994315658,0.711794158219516415186945,-0.183291254992216989805343,-0.388124888604296225391721,0.0061664179853565224964651,-0.0933587081732483448082149,-0.134367045993868006181771,-0.0193803522997856685072815,0.0107629086059329130697915,0.990264730038846185955492,0.137418851905972999594141,-0.148818869612041604355568,-0.0339290370244134595334451,9.77332834794734850447639,0.0421538872055700758467722,-0.00978287215532986677291039,0.00497711032288740851808884,3.57957471420856876420657,4.93171891900778902595448,2.01536453754020516981882,1132.03636422428553487407,1132.39081909185028962384,1150.51859370553415828908,1134.03717237960927377571,102.100202440144428805979,187.580616319420215631908,99.009105756360128225424,-148.886019622962123776233,148.885141869334745479136
23.2375000000000007105427,0.714842801647596282066388,-0.132119725050750896899743,-0.409360240974657063617315,0.00711169620050629714552715,-0.0941385314129085243317618,-0.135313796162235239206595,-0.019237078516760045682199,0.0107820211481305036627099,0.990245732051240556970129,0.137574415720967735410341,-0.148677806496014197623623,-0.0289398042559510376703358,9.77280634916454005178821,0.0427374500581769387053122,-0.0100433173866446671940178,0.00485115271311407480342437,3.5794773526246554951058,4.93177381768577394183239,2.01537398371540277253189,1132.37715605075072744512,1132.94950559781545962323,1150.62141935578870288737,1133.76424037594506444293,153.884778574468725764746,229.709628236760892150414,0.463565554309515626130178,-101.312458990599239427866,148.884803767372176253048
23.2400000000000019895197,0.755469506616210040306214,-0.0326606969049364204149555,-0.396646773058260571076516,0.0084203887809044287993121,-0.0948364476494700514574987,-0.136076203608582774196023,-0.019107993750471032740057,0.010802788636051104814717,0.990227168366670018606612,0.137724486080390201570012,-0.148777423967577315799815,-0.0242779110167130190989226,9.77256260908624163619152,0.0433100703966187161597645,-0.0102868471385911593868334,0.00471619184307907161890494,3.57937908148580108402825,4.93183141196040253362298,2.01538319945236743535588,1132.80578811715827214357,1133.53936723303468170343,1150.52091153330570705293,1133.53061008465601844364,180.856684427216862331989,221.19528258963180178398,-76.9926921358245124338282,-118.69976533732912571395,148.88454963033342437484
23.2424999999999997157829,0.831325390076820935902902,0.13834821951981726706471,-0.337401293500771248812242,0.0103596038528838661763043,-0.0950923599214004572344194,-0.137148773570188786674606,-0.0189995760583667600007729,0.0108216883723356825652839,0.990208817067843027892593,0.137870056568409060648861,-0.149210360949497466975799,-0.0200823704780360712263132,9.77263329660280000155126,0.0438712138779392829546211,-0.0105143276142230929215415,0.00457578014810582859445143,3.57928039801999142710542,4.93189058003363722804124,2.01539201548972579658425,1133.28143947288663184736,1134.05548201076339864812,1150.2364558951096569217,1133.17074154925853690656,154.250087766680508138961,134.971951797733282774061,-119.814297204653669837171,-160.318657409093304977432,148.884339432525337088009
23.2450000000000009947598,0.900089844455754573004924,0.314998031345680551407185,-0.246582300394154213529774,0.0125856232755060196831787,-0.0946458905171255054922241,-0.13823536783241360814678,-0.018910806853223473267267,0.010836990198816195615783,0.990190422882079368527286,0.13801325808431560981937,-0.149927653090606960439857,-0.0164303278707265687508254,9.77304789057469669444345,0.0444207374854481695791719,-0.0107270037507369644935729,0.00443324257250391883661278,3.5791811350494584509363,4.93195032658246734769136,2.01539974083690109907252,1133.57703855599152120703,1134.21422699202321382472,1149.92184004728255786176,1132.72901679761071136454,94.0331533502290426440595,-2.9147488918630530818632,-130.919799129040825391712,-213.543650621019622803942,148.884240925553285705973
23.2474999999999987210231,0.953421603274240414549467,0.513132660805116214142174,-0.110233927649770829804154,0.0152268226183032914788917,-0.0936911574432773841536459,-0.13923164270659660335383,-0.0188315978955458304677784,0.010851199413860613054994,0.990171680273803866967341,0.138157486288861153234109,-0.150715749943156951395906,-0.01328440972934116781623,9.77382843189652028570436,0.0449588153268519336025477,-0.0109265236354705690124955,0.00429153178638524892413164,3.57908081065060734715644,4.93201030009981256085894,2.01540602231136523059263,1133.75160523963768355316,1134.04090826630408628262,1149.58185689946458296617,1132.10302329615365124482,57.2953970263938856533059,-119.838237667159972943409,-136.635999897889519161254,-276.472598500013646116713,148.884218461199822058916
23.25,0.981745586958966298674056,0.717891223235202158292623,0.0599350784481195650310603,0.017771127631815309549923,-0.0923874623490311269735642,-0.139922326256892604057214,-0.0187547132744278512161973,0.0108672748667780604686639,0.990152353001571561286198,0.138305211501654562455954,-0.151418128252136130473815,-0.0105972069241107302861593,9.77498553995011931760928,0.0454857314848137808671602,-0.0111151204817570622290779,0.00415396553036123661328816,3.57897908292538646790604,4.93207063830506164947565,2.01541028552023693265483,1133.86351554112343364977,1133.61503580368753318908,1149.23866004779324612173,1131.3466538051109182561,47.282933897098160969108,-213.326230540387768996879,-140.207377019006457885553,-318.748349682865125487297,148.884255851573897189155
23.2525000000000012789769,0.970080677043616002031001,0.915676515726572493036883,0.25714127648845153117918,0.0200677148037218255893777,-0.0905972907918686509720629,-0.140059141902412337410411,-0.0186820339375316640806446,0.010886605801418203220976,0.99013245965512775015327,0.138455936647658650606729,-0.15205207118306823810272,-0.00836672230268287187016085,9.77651663901005285595147,0.0460017858472675580938649,-0.0112957381024625710258524,0.00402451777151702824036894,3.57887592639730289789668,4.93213130442204850112375,2.01541247252166755288272,1133.98801990912329529237,1132.97427711360160174081,1148.88082001436919199477,1130.50928154773851019854,82.9753582437371335345233,-296.328517403812668362661,-169.344083609700675197018,-362.868457095491407926602,148.884360849779682212102
23.2549999999999990052402,0.898903572701404307565554,1.12264300325495591792446,0.496302651494054614111917,0.0226959761210117350049842,-0.087582421098650317659029,-0.13936830498148747303766,-0.0186167090657646180917872,0.0109111953700724295668323,0.99011190206247812195528,0.138609774862629570035821,-0.152663318235273792744522,-0.0065722882120400824557116,9.77840880715151250512918,0.0465074659179860877555868,-0.0114716060357340412373395,0.00390699258806562980256283,3.57877152719033242433966,4.93219195567962831461273,2.01541315549950805774415,1134.27839233234203675238,1132.13339321666876458039,1148.39193962974491114437,1129.53231151963382217218,143.799765360637564981516,-288.859800603143582975463,-196.063757681206766392279,-338.203647871727298479527,148.884558223277991828581
23.2575000000000002842171,0.783408284997022641427122,1.25284388030870541541617,0.670692382318141766539554,0.024879202636248570756905,-0.0841196280655832212547196,-0.137930920611628954342009,-0.0185582110269827682547117,0.0109408654271231694371513,0.990090486915029432957169,0.138768186726483444548563,-0.153223600361197809238689,-0.00521505357163048327562294,9.78064184298981942333739,0.0470035312349543488164016,-0.0116460738517329600444361,0.00380427359545554635844589,3.57866523318473772619086,4.93225239215049793273238,2.01541315334832038530521,1134.70701873592634001398,1131.52997811058617116942,1147.90050122596335313574,1128.81826330838021021918,214.253284164469249617468,-182.422604536302401356807,-217.983374102029642926937,-254.539993570694434765755,148.88477660303234983985
23.260000000000001563194,0.600389795633484935066804,1.32501196221020678400748,0.784938072294059985267722,0.0270569084814952613704531,-0.0799488089511522087571294,-0.135516016137974371069674,-0.018502946407067646233946,0.0109747052501368638766088,0.990068461985614711728942,0.138929951267728390984502,-0.1536473734768868948386,-0.00429172395516190519071387,9.7831890865664554723935,0.0474909550130021354541476,-0.0118228278965475525064122,0.00371828472157611231510566,3.57855692335469699472128,4.93231262185946395248948,2.01541246315386546328341,1135.34965875316493111313,1131.22128019398678588914,1147.3020227592342052958,1128.25961155177969885699,317.48100604383529343977,-30.4704111338711882694952,-283.556254142478792346083,-210.228780024222942302004,148.885043840587741215131
23.2624999999999992894573,0.299554301239840115034241,1.3462314426505999076511,0.820551763539237088984635,0.0295369284665403138145923,-0.0752144656274874867651903,-0.131780180444521971550031,-0.0184470554214224979894254,0.0110095551126219524246119,0.990046188665273940721079,0.139093250351810859832824,-0.153842584359524969794819,-0.00383190576175204689057807,9.78601821895643730897518,0.0479710344424972082166825,-0.0120055265095889551058006,0.00365011067295456688441835,3.57844698645914194301554,4.93237255481124581280028,2.01541157817010319064366,1136.29442376614520071598,1131.37762605491684553272,1146.48271995525124111737,1127.76711940825930469146,353.566872982516827050858,160.574990299378555391741,-308.265643361498803187715,-157.627407154618111917443,148.885413327398168803484
23.2650000000000005684342,-0.0103524986029797181480427,1.32365108942099873878817,0.755399117441236778169866,0.0310149470801991573865042,-0.0720074277390186229252933,-0.128650296041862621798657,-0.018388769530231378890317,0.0110424190457768661710602,0.990023792111940026394734,0.139257659910562686667035,-0.153763557013334051237763,-0.00385855270758847512801992,9.78909168185439604314979,0.048445486230758907919558,-0.0121974048809000475829256,0.00360027202315309517374753,3.57833609441041877730072,4.93243222735205577578199,2.01541064024767457851794,1137.11749311807716367184,1132.02415514548351893609,1145.7606945424270179501,1127.47147451600676504313,304.547352770194891036226,364.081142596155757473753,-282.266926371941053730552,-104.871456483025227157668,148.885757046941904491177
23.2675000000000018474111,-0.354380504630257553433381,1.28272777339499666204858,0.599844751848791490900226,0.0309161820333708758923308,-0.0695044032342333473195595,-0.126397179443020313271973,-0.0183264121767846913102495,0.0110717745714321354894016,0.990001455102682781372891,0.139422217241740142856798,-0.153376504263364243918488,-0.0043583049889575620206017,9.79236884509177230029309,0.0489164063917165228834172,-0.012401279942916294818378,0.00356860527673782306282146,3.57822496180185778413829,4.93249156987926618000984,2.01540981925827233922632,1137.81716052999695421022,1133.1980317678985556995,1145.07138532339081393729,1127.24276212584391032578,245.148482214429918712995,608.92874018348561548919,-278.185280430908164817083,-92.5631938584685940440977,148.886133067581340583274
23.2699999999999995736744,-0.759939315416670257974374,1.23361755938582429159567,0.337742618522003046344082,0.0284540426423132430944207,-0.0668752338148350666813258,-0.124777016325574696686829,-0.018258134380020187709226,0.0110941088030430817790162,0.98997894026181731952363,0.1395891231560736356343,-0.152645152841863973591785,-0.00534925749547514317594477,9.79580838198491576918059,0.049386268592086127182661,-0.0126190555983930908362511,0.00355412531285454087737197,3.57811394152620154684996,4.93255104959206658321591,2.01540883325265207659527,1138.34323552914906940714,1135.06879884640034106269,1144.36976814027275395347,1127.00865854671451415925,123.731915368286593093217,726.332170949543865390297,-226.233854803558187995804,-77.2971437094992381844349,148.886617139915927054972
23.2725000000000008526513,-1.06047232545014669113925,1.19827567145207836141196,0.0836899836358691584514702,0.0251788723653595808427141,-0.0646835821558656154373068,-0.124139923744724309240262,-0.0181858983594004111616904,0.0111068324663327819279424,0.989955795153240392103555,0.139761528821909480901908,-0.151616167306576621331971,-0.00683701056242333460311045,9.79936795666937854321077,0.0498576760220749218288638,-0.01285181164084212360188,0.00355552301397170410560133,3.57800297541295098113778,4.93261091026475195775447,2.01540813517679406885463,1138.43582010683826410968,1136.8296926226455525466,1143.94021604937324809725,1126.85627640729649101559,-42.0268622531478825976592,692.48074740140555149992,-133.538026238079396534886,-39.3904688781984475554054,148.887045391225200319241
23.2750000000000021316282,-1.30054168096206734794862,1.1627762259683547263478,-0.172356222207079912145389,0.0215357481729836000572398,-0.062039109870841394056562,-0.124427433228694456213148,-0.0181124773076173396779698,0.0111063991259994897936592,0.989932174303389866842906,0.139938246610636529698724,-0.150355926580487631039063,-0.00884483355845544494400201,9.80300694206196432389788,0.0503330708536568888211704,-0.0131002983888561467390454,0.00357084985882128239098598,3.57789168218623432338177,4.93267171799082415617477,2.01540854841169725375494,1138.13310121788322248904,1138.53120258340914006112,1143.70207800908201534185,1126.81170620232342116651,-183.177143199182012267556,629.614392200881184180616,-64.0002858880179701372981,16.3917272210743121263476,148.887497348242447969824
23.2774999999999998578915,-1.48668905834110720576291,1.11682259538515182839546,-0.404097981056506017072394,0.017813384425912490854893,-0.0588807146034509634735521,-0.125464337645009971211607,-0.0180400936965644520526553,0.0110910870395923930736837,0.989908348714686692204623,0.140117189806219705205947,-0.148931110598558735791386,-0.0113576332662879697643632,9.80668748488293040566077,0.0508146824847014177972682,-0.013364591524868397326431,0.00359761205479707879897888,3.57778009838841670742227,4.93273426680690540990781,2.01541090464167726992173,1137.5199343908425362315,1139.97776458364933205303,1143.6202146199332219112,1126.93823504340184626926,-308.810100635416858949611,474.945806018607868281833,-0.439234764826411328009215,115.005697998981446517064,148.887968073285804848638
23.2800000000000011368684,-1.61249517434647415825566,1.04780232905140424648494,-0.57910049798661134001776,0.0141809533436848093923555,-0.0556791771455328945994445,-0.127026027446097034001582,-0.0179716247007719910622203,0.0110596879543951604613072,0.989884322968464847036785,0.140298036703613543396685,-0.14742758495645558181053,-0.0143523069363011429588894,9.81037500921082461502465,0.0513044869252008081672578,-0.0136439123532250995707304,0.00363306738634385732039656,3.57766899404244709259615,4.93279918353507973449723,2.01541561232773780432126,1136.58905071470644543297,1140.90593161350170703372,1143.69988183525788372208,1127.38673469231821400172,-463.548066157956213828584,253.905472627962382148326,62.2829841109829658307717,295.981102074451655425946,148.888461044072670347305
23.2824999999999988631316,-1.70239586821679345085556,0.935430004645926294060132,-0.695360616735865688653462,0.00996890742976471247449588,-0.0525995795462998114166986,-0.129365379907354444144474,-0.0179097059064353518464952,0.0110133826555363790317132,0.98986033205780943333707,0.140478682704758967014769,-0.145937306412924350240701,-0.0177604252680163693378645,9.8140385007894401780959,0.0518039914087809055809331,-0.0139371591127724469422189,0.00367454059087914900599836,3.57755781949190199142663,4.93286597639106005885878,2.01542262736482680196559,1135.20219406005321616249,1141.24729194678889143688,1143.93162954048807478102,1128.41814055377381009748,-536.515476815445595093479,-8.90531377804286172761294,99.5276907267650727817454,467.690857204026826821064,148.889077798223638637864
