t,ang acc x,ang acc y,ang acc z,ang vel x,ang vel y,ang vel z,quat x,quat y,quat z,quat w,acc x,acc y,acc z,vel x,vel y,vel z,pos x,pos y,pos z,mot 1,mot 2,mot 3,mot 4,dmot 1,dmot 2,dmot 3,dmot 4,vbat
0.0025000000000000000520417,3.55244560309195378522418,-10.353147858347060861206,-1.53285706823834400047701,0.0181421092921373872108859,0.388416902385406936915047,-0.061535387983213243878744,0.000167539029867094606523342,-0.0187183829261418493983271,0.0188869876763939938124626,0.999646143061273972918457,0.284863441920515714222972,0.358871408730619401161732,12.2791591407986313555512,-0.0593624169896214970432169,-0.0100695165923981571481916,0.407868068033404362893179,-1.90331208871746992983276,1.86167705812975414758625,0.123405163578476348429369,1174.53131577136286978202,1255.61813188143719344225,1190.35385145385589567013,1209.36156456114258617163,3017.66212372886002412997,2087.77649843959807185456,-1018.00542086311907041818,867.079391406332433689386,161.092352792582886422679
0.00500000000000000010408341,1.61510543738453238304942,-9.50606995031793111650131,-0.277668833738796305699026,0.0275643780216730353849197,0.362021980318555924860391,-0.0694395928163898806806387,5.39734626139779205241179e-05,-0.0184758822275786771527351,0.0187648899715946448907289,0.999652754774837837281609,0.276368933484091860997012,0.3384666339581852700924,12.338420740773011985425,-0.0599409407249981221466051,-0.00928120798998700521909022,0.413950791966647246855615,-1.90349736424338322748895,1.86164012649888466199855,0.12447536361373469360192,1182.07547108068501984235,1260.83757312753618862189,1187.80883790169809799409,1211.52926303965841725585,2582.00873566675045367447,1654.65508662205161272141,-988.894344113987358468876,840.641787709501045355864,161.155031502748016691839
0.00749999999999999972244424,0.0895163026436244235739537,-8.87177327327699849490728,0.952606927094429067892634,0.029463310631206728745779,0.340091145182591925166804,-0.07062101664373880705039,-6.51052029885760018051641e-05,-0.0182304809530742205347931,0.018643487101268559763545,0.999659395771766212668297,0.267738292430879820660294,0.317840114699832920752698,12.3976734567836910372307,-0.0605272457328402888054875,-0.00850291782047624643270378,0.420066736206207713699712,-1.90368538972393142039152,1.861605131928667722363,0.125543838093869430938554,1187.44135944969661977666,1263.89140731454745036899,1185.40937973328595944622,1213.56477349969009082997,1934.53362835662119323388,897.092065521019321749918,-904.184284248913172632456,753.654208360876509686932,161.206815691092629094783
0.0100000000000000002081668,-1.17943966753707929484563,-8.24039410047726228469855,2.12730685038854350210613,0.0234433398011595524323969,0.318305939318691444306353,-0.0636841812786306249449808,-0.000184156803385177356797639,-0.0179770181059080123853189,0.0185309058482391701694336,0.999665999890845702324782,0.258839048338298849394334,0.297089046585615246254264,12.456875783819977954181,-0.0611249906628677577846709,-0.00773166754912579193975697,0.426242239624679164489152,-1.90387682594301455019092,1.86157119371097978799412,0.12661235459493144772658,1191.74813922246812580852,1265.32303345514128523064,1183.28791648045353213092,1215.29753408146279980429,1557.06338125978595599008,304.687316633271564114693,-732.12941952983771898289,583.123565156711151757918,161.258085461896882861765
0.0125000000000000006938894,-2.14076890632828797933485,-7.5650900901465680803426,3.07629173008794687405043,0.0129494070772918287715036,0.297016024868093975186412,-0.050940956334514196635066,-0.000305951126290620809000664,-0.0177179332364123046095195,0.0184290094066972033604035,0.999672471161353604074407,0.249716344380126575863699,0.276100565525198737848456,12.5159419248342658192996,-0.0617316568503723933636351,-0.00697343960601840267415907,0.432508255307706479531049,-1.90407179996867026439133,1.8615389700045466003786,0.127682495584881094963237,1195.22667635599555069348,1265.41484389771380847378,1181.74873263563677028287,1216.4803913254736471572,1232.76903534397229122987,-231.095450071006808911989,-425.314952445432993499708,310.00077091543977303445,161.308894892176056146127
0.0149999999999999994448885,-2.70134087084950058610389,-6.80942646295992481952908,3.61024341425606465350029,0.00139624461568348297302311,0.276986552878598912830199,-0.0356648997001097062264918,-0.000426389209747050348595088,-0.0174553950054753444220967,0.0183403736998187169571217,0.99967870435012617935655,0.240413107140061116373531,0.254938235235487919982944,12.5747234490212296265099,-0.0623452370110057219054767,-0.00622943141609569317473927,0.438897418081117374200062,-1.90426899564347618110105,1.8615101443948653958671,0.128755374243113646093306,1197.9119843991879861278,1264.16755620478625132819,1181.16134171822636744764,1216.84753793603999838524,1073.12873415753506378678,-733.065501311102593717806,-27.5218840447905606083623,-9.64663255813320397180632,161.359112296616075354905
0.0175000000000000016653345,-2.99203873565814237878158,-5.82672989644950689580583,3.72418092104045062029627,-0.00981901274900276108126285,0.256384168999788386589245,-0.018805011530171188149918,-0.000542827320642351603650899,-0.0171900817380703715975265,0.0182626774327519052210089,0.999684712947372489111331,0.230933689781552625719385,0.233641159336418713365902,12.6330095087340019688327,-0.0629656735187409388743163,-0.0055037221963595561735616,0.445441621320642411330226,-1.90446792900991423991286,1.86148396242445968162826,0.129832869303204784250383,1200.59232002678322714928,1261.74951639115829493676,1181.6111232154128174443,1216.43215816268298112846,948.551412928418130832142,-928.807326021433027563035,330.65867047439490988836,-250.163728395727900988277,161.418646066026269636495
0.0200000000000000004163336,-3.03321747244281203492733,-4.99274028449613371805071,3.43409662024376061140174,-0.0160636740287704166130212,0.243485912009418797863347,-0.00740092857667296738499729,-0.000647938967566288512821282,-0.0169212479337895391195978,0.0181973144751949554576154,0.999690473472090723738859,0.221254489380186797342631,0.212383903220240671805286,12.6905221707727147162359,-0.0635950256225917831542915,-0.00479649473547853321536705,0.452170173117015627983761,-1.90466735878781689983441,1.86146060440137639524494,0.130915986383492360944913,1202.65474146383007791883,1259.5235195746790850535,1182.8146350705983422813,1215.59671929406135859608,841.292526802636075444752,-807.77396279454524119501,597.166204485347748232016,-364.638240007252704799612,161.467623956791015871204
0.0224999999999999991673327,-3.01765163610451070397289,-4.2168709777182122877548,2.87597787048519837327376,-0.0200341690285678920846468,0.234701431864074328004222,0.000410467289061653599693824,-0.000737306482699273636402526,-0.0166473868069478524167604,0.0181476652235984317607098,0.99969594362702796086495,0.211336596911846724688999,0.191288854326839591335485,12.7469243945745667190295,-0.0642370103512999307548981,-0.00411075513920411157037238,0.459107980713301333519638,-1.90486657625679023375653,1.8614409057603120700719,0.132005738044142700848838,1204.79878266079640525277,1257.71064657718557100452,1184.59695423783955448016,1214.60896696264671845711,990.924675641508429180249,-599.84678418772989516583,851.663130018368860874034,-390.371464551890255734179,161.515915110896827400211
0.0250000000000000013877788,-3.06404009122554432664742,-3.41445251450403608473039,2.08149593805120902700878,-0.0244358121536780610594253,0.226924256599194740235959,0.00542947084602941974079693,-0.000811251673751372213982958,-0.0163632157620081514215471,0.0181202596213063116259434,0.999701090024728733496318,0.201048792757385574869744,0.170381689400782493359898,12.8018292632482051374154,-0.0648997171609284606574874,-0.00345375046233237703238728,0.466273490174994142964948,-1.90506525566063467103106,1.86142714764333017107845,0.133104399623356073334435,1207.6093648420376212016,1256.52428565374043500924,1187.0729507206901871541,1213.64486197130190703319,1068.33561687622000135889,-241.972588499538630912866,933.17233800335066007392,-271.762414717613808079477,161.573041453626927932419
0.0275000000000000001387779,-3.20277251614240832111591,-2.86366323617963347558657,1.43971698596286823423895,-0.0290559757143597913175981,0.221465238360376376336447,0.00622562822446975222545618,-0.000875970305190077423718176,-0.0160678379271388949156574,0.018118366300510842237248,0.999705865576214880441341,0.190372683123773256408384,0.149556204380467017145406,12.8548091773142107996364,-0.0655878595914456824500505,-0.00283895740953192358968504,0.473678292664303113301827,-1.90526394168219881386506,1.86142085120092448669027,0.134217182205444596210242,1210.14046074517750639643,1256.50078363468787756574,1189.2628159278563089174,1213.25015488905864913249,1027.01884147904866040335,164.191064805254512748434,897.894103033605006203288,-39.9150521413958117022958,161.619942520369306748762
0.029999999999999998889777,-3.4447546262241095504919,-2.40768390822420386143676,0.921913135797806981841518,-0.0352715399427952214228554,0.216152944668334623390393,0.00495127046496469068459501,-0.000937096552813159507783203,-0.0157673451070760202441523,0.018139345746301022144209,0.999710220684570050053708,0.179475501217044725033034,0.128735335290933283758363,12.9054075429831005550341,-0.0662995765918370921765401,-0.00228008398436165601180781,0.481326614963932641888533,-1.90546363001253693525427,1.86142139190699262840667,0.135350531657519451700367,1212.74445904943286222988,1257.34524097776670714666,1191.56242123585820991138,1213.44528671059492808126,1024.40326125083606711996,424.379380060872733793076,957.726976882122244205675,185.39319054148106147295,161.666093935754361154977
0.032500000000000001110223,-3.74142923840407304325595,-1.98948241250763935283885,0.535990928452995452069274,-0.0427747176688295094315606,0.210491661180421368859683,0.00361858574933382644289726,-0.000998079346744200866792252,-0.0154739974436860910911307,0.0181753217161256738765296,0.999714108161399273022596,0.168694485450105374768626,0.107912314968611533494425,12.9531564651828077217033,-0.0670264665873602366596984,-0.00178859598872087234740225,0.489215061405276263606368,-1.90566466662285782796005,1.86142664241070554531632,0.136509176373193902298553,1215.2624770514316878689,1258.62268053499224151892,1194.0514508122669212753,1214.17712084176605458197,947.245921937837124460202,522.74983441998256239458,1078.98002270144297654042,416.073122793477125469508,161.711611948250492787338
0.0350000000000000033306691,-4.044636472741091282046,-1.56319765659735532281616,0.289650168339000479988954,-0.0517139516418224226557143,0.204543493035826834391955,0.00372212840393937836880323,-0.00106189864858678077556842,-0.0152034320249902453470181,0.0182148693917452766943832,0.999717497564492907358158,0.158466993501778369290989,0.087105980723013884392536,12.997596737553656964792,-0.0677557177795075904480626,-0.0013743762116564346362213,0.497332794685537871171022,-1.90586649388300566343446,1.86143385542053341197288,0.137695615436100149420184,1217.48068865912205183122,1259.95899014986662223237,1196.95732134936542934156,1215.52565232456231569813,863.769090717915332788834,485.224407525811557206907,1414.43137678184098149359,706.028466479711255487928,161.756353954304586295621
0.0374999999999999986122212,-4.32587592934045872539173,-0.995986373184568063443578,0.094160938695321300118124,-0.0644818103063446307343654,0.198019827134120224298997,0.00570452888649802293541402,-0.0011364010496142931336272,-0.0149686999929454639390869,0.0182430141701842643553455,0.999720461774437185731301,0.149172709648989570974109,0.0662212430047144917644175,13.0382979600112651752397,-0.068475728097564012020193,-0.00105071254492318695572539,0.505661734134904006232603,-1.90606924382423503772088,1.86143993614038016914947,0.138911571809181150216617,1219.58132250502126225911,1261.04880257262129816809,1201.12360769617612277216,1217.7072631741646091541,658.159788219609595216752,248.75411174584780837904,1646.05953227119334769668,857.662925581417312059784,161.809132733399849257694
0.0400000000000000008326673,-4.42701197135819146666336,-0.472617519234817262674397,-0.0271482459520139274289363,-0.076795909748085242063631,0.193612980750481278313657,0.00784531405794173554435478,-0.00123121074374673254714363,-0.0147750705057514645363037,0.0182490259381251906933841,0.999723113937955543129021,0.140997625098657153319692,0.0451284440779367856944049,13.0748738194247273725068,-0.0691813628879784925373997,-0.00083038279945309839951556,0.514177112061460994674178,-1.90627324116358076722122,1.86144375983194709789359,0.140157696571131612506278,1220.771487600220098102,1261.20276070859586070583,1205.18761901072139153257,1219.81396695246939998469,357.386900458368131694442,-138.047806566601025224372,1714.19154074883249450068,848.282302719598305884574,161.852345338095148008506
0.0425000000000000030531133,-4.33390775486891755008401,0.0662506665524808524558864,-0.127129800802915887691924,-0.0897296790347904410500846,0.191423689638345273511533,0.00881902199967336992980638,-0.00135935608175420902070385,-0.0146128987824071174261853,0.0182296879990992456710419,0.999725642829455751758871,0.133740316455930707828514,0.0236212099004695225135109,13.1069965117236897356179,-0.0698818958092380787539,-0.000727223266162117885219596,0.522847784438975837773,-1.90647895033786252128039,1.86144520786790801381017,0.141434122279568530444749,1221.36825700731310462288,1260.35856353978829247353,1209.69456539992029320274,1221.94867468776260466257,151.952075842427888119346,-508.387232129280391745851,1821.06825648902577086119,815.962941758926262991736,161.894747486445965023449
0.0449999999999999983346655,-4.0647124742561056010004,0.561712234532456999858141,-0.204445436958845677688501,-0.102286998705463386127867,0.192257498795525366697134,0.00830586328927492532903099,-0.00152455687021641589883048,-0.0144658749631083327624737,0.0181895440545393749509628,0.99972820277138318978416,0.127026361700338791260734,0.00174257313379999612124038,13.1344046835930488015265,-0.0705931881224113044748236,-0.000743475790329386739332951,0.531638697282973415880747,-1.90668674967662998831486,1.86144404015081588177338,0.142739947881298012699602,1221.53124797943223711627,1258.66082454794945988397,1214.2929602931665158394,1223.89378166126402902592,-15.9476494179671206552484,-863.380923759496454295004,1773.09198002894936507801,688.16568320735348152084,161.936469140622165241439
0.0475000000000000005551115,-3.60271421188043383665445,0.92472376700433200902296,-0.240108504088952512400823,-0.113459746095650904074148,0.196772706312821232810251,0.00675478434957764353047116,-0.00172529261248412094445492,-0.0143197077794621624446947,0.0181398727105106932766532,0.999730806268790628266174,0.120530420678426453129362,-0.020327088350013337858524,13.1569128414759166645354,-0.0713289486737776479152728,-0.000874107300807572262790757,0.540513310536950952744917,-1.90689608064751059401942,1.86144021421867766896696,0.144074365353971667325084,1221.28851876022326905513,1256.04165892099081247579,1218.56002530006503548066,1225.38950310379937036487,-169.350656190772355103036,-1312.09693897126157935418,1689.9557688301213147497,518.099615863411145255668,161.977360080243158790836
0.0500000000000000027755576,-2.8940346520812676445189,1.13475192356501164425708,-0.228463712084868347806932,-0.123329875101258312763974,0.204009710037776403890319,0.00501121503437986122453385,-0.00195578093241647937503003,-0.0141702795051988090363482,0.0180982970798071983453692,0.999733210457799503778631,0.114189081798266811595965,-0.0423024526447053142441668,13.1744170610889845818292,-0.0720916191457213473281485,-0.0011080199003602538183888,0.549435906816903796290319,-1.90710835351018515027022,1.8614356336174120443161,0.145438086049217735196137,1220.68449469847837463021,1252.10033985309314630285,1222.74273913731713037123,1226.48427974058108702593,-255.681093682778850961768,-1526.8365496023313880869,1319.3257157529849337152,279.369062249907187833742,162.025455592862414277988
0.0524999999999999980571097,-2.24251711087354621554368,1.11343092818201605531669,-0.182230893280453692950616,-0.127843005809608556422319,0.209356067613173907338009,0.00405079042329345787032402,-0.0022002428371309433810521,-0.0140222454075602659395727,0.0180778544190741755071095,0.999735147215013997268329,0.10816627726634725492616,-0.0636477021155805733343414,13.1868987581713152934526,-0.0728729706257250781087365,-0.00142321756669263970417061,0.558372592506143350377101,-1.90732436670397875744243,1.86143285484427645215533,0.146832009448836370291147,1220.01011329180937536876,1248.40747617297915894596,1225.15665387882995673863,1226.7863484150489057356,-292.331835530876730899763,-1492.1631890958003623382,717.144646644419822223426,17.0693583289448795881071,162.064713993388266999318
0.0550000000000000002775558,-1.59726759513935978596066,0.930797476724352090826642,-0.120045594236016919809096,-0.129708506781883864400484,0.212333863291423730057517,0.00364098861957866132971207,-0.00243625837052251822262283,-0.0138830583245824583371597,0.0180896185832111477953532,0.999736362698479763544412,0.102694400152382764312975,-0.0836653704544642884410877,13.1944255642155301444518,-0.0736603133389781977724553,-0.00178912998223254397778259,0.567291678259918663584926,-1.90754472616547943175647,1.86143282365645212905747,0.14825588556426846920111,1219.22283552082399182837,1244.63952390761414790177,1226.32846237053922777704,1226.56962653222581138834,-366.35617695915209424129,-1590.21774691677683222224,252.494698743521212236374,-151.443864550264919444089,162.103108772800794668001
0.0575000000000000024980018,-0.864150609177447681652495,0.60794735898792395811796,-0.0579303594795104737080749,-0.130535780222897218605382,0.212850814627286777369619,0.00393059800454875242492481,-0.00264279995399380272097511,-0.0137558191223060097968522,0.0181350397892069137295579,0.999736835052297379000663,0.09788132822064996019229,-0.101712234511262475389337,13.1971466244209878482252,-0.0744448761889265203661736,-0.00217604899210906447756808,0.576163816398137518248745,-1.90776897411755341771311,1.86143608387713754837023,0.149708163550591716317584,1218.17833240701361319225,1240.45638743839526796364,1226.41912737254756393668,1226.02912909229758042784,-399.399055411959352568374,-1417.03471985752071304887,-143.827375401633702267645,-178.162714122027040275498,162.148173337252984538281
0.059999999999999997779554,-0.277124630526886461812097,0.306360796165749849073734,-0.0363194106194257848585494,-0.130757082895205795081139,0.211090456634823536719026,0.00497351027491539903618856,-0.00281308346736083413758278,-0.0136281365197735079841657,0.0182074871067349659814472,0.999736858086808011236712,0.0934105434457883354593122,-0.117538268078858171294954,13.1952818027314489057744,-0.0752357378568479229219435,-0.00256938380942471882723011,0.584961266956944947459363,-1.90799715177368089946697,1.86144127668601311320629,0.151187088278360165505276,1217.22584024376419620239,1237.55435030832654774713,1225.60932549353105969203,1225.67881296161567661329,-404.321580585565470755682,-977.097836603889390971744,-447.492937391735040364438,-29.524430370292989778136,162.184880042773102104547
0.0625,0.326586532730758993814391,-0.00180866121660375189783565,-0.0558646893664958843483959,-0.131886222445117384793889,0.208677289194619336454295,0.0063471364613729933795705,-0.00295039224546108334867878,-0.0134811528230453173821113,0.0182918594916993380861125,0.999736939565630033932564,0.0887827538870621935096494,-0.131184739344549466943946,13.1891078208689638273654,-0.0760506223169340189738108,-0.00296587914469703239211951,0.593659954916328724827679,-1.9082295763893375450948,1.86144580690879668516402,0.152689788417214533655653,1216.15672450408578697534,1235.57089825537582328252,1224.18166268558888987172,1225.88150694044611555,-459.043834767362170623528,-608.940518514963855523092,-632.732869479922896971402,231.722769519137528959618,162.22070203106284225214
0.065000000000000002220446,0.976767106189654121806143,-0.33140918751503695149907,-0.100268854445694957644442,-0.133695223460727596886954,0.207212502036577955744079,0.00703301738505395651612773,-0.00306177013199956677552693,-0.0133014591294324576592478,0.0183782841882363448537951,0.999737410090870248779993,0.0836338084606722820257829,-0.142821320691432496197137,13.1789448025364350769451,-0.0769022520157431332954445,-0.00336477361351324427002352,0.602241769681073124687032,-1.90846641273410044803427,1.8614469033515115281574,0.154213731278492416354453,1214.93062106992738335975,1234.50964771575172562734,1222.445661146131442365,1226.83742680921136525285,-551.21603682450722772046,-191.691288937181354867789,-732.575926453181864417274,601.092053040428595522826,162.255787622051087737418
0.0675000000000000044408921,1.68787164191024330328617,-0.735541712913586609445815,-0.145777156184055345367057,-0.133481217652107936322281,0.207127952038573370785457,0.00623379476549494430936971,-0.00315545630083878016203247,-0.0130838305696121520033115,0.0184619949140850982127748,0.999738397548504353906651,0.0778085936731781890873805,-0.152680299602093422217663,13.1651430111333738182111,-0.0777947920108776197478662,-0.00376524871594899942367496,0.610695163417616093681772,-1.90870680856024299565377,1.86144395225771064339426,0.155756129984171459712528,1213.400644319963248563,1234.61244181068991565553,1220.51878305332297713903,1228.88696720564826136979,-773.670844615116266140831,283.201899747336710788659,-861.332278377266561619763,1137.6037256070494549931,162.289983398387789748085
0.0700000000000000066613381,2.55540499585474689681064,-1.36555780247182823039509,-0.162436255075413676918217,-0.128305346620501498078326,0.206984490501577078624962,0.00428959978218856289450267,-0.00324083998626794808628482,-0.0128295406288584119131047,0.0185386013698234757007821,0.999739938648957715550125,0.0713177086748187638587382,-0.161055585051508437510748,13.1480692096563522852648,-0.0787255205473914865255125,-0.00416765016202405493700445,0.619014703566098445364219,-1.90895004667676193577108,1.86143747667602355022609,0.157315289983132822193568,1211.06226684685179861845,1235.92565721448841031815,1218.13899975424510557787,1232.52544543724661707529,-953.768150878524465952069,626.474042648216027373564,-868.044403575187743626884,1470.63597552128430834273,162.329988999628056944857
0.0724999999999999950039964,3.22214453802653499892017,-2.02875173501043493118345,-0.128636400422781349561774,-0.120169989470099145001392,0.205400149826400452157671,0.00270134884623573481507441,-0.0033254937617347209849461,-0.0125508705740622252683414,0.0185979293577699412998161,0.999742038590690884625189,0.0644590130856640131096214,-0.16822748376100454814619,13.128093915758235254998,-0.079678745076999429874931,-0.00457153743929600980822059,0.627201355294982221266764,-1.90919548717913656332712,1.8614256585694601842107,0.158891314383432152856912,1208.63180356557063532819,1237.74481202393099010806,1216.17856103544704637898,1236.24014708325466926908,-1064.59694410423458066361,789.828917407795984217955,-761.383218404354579433857,1516.47383596119038884353,162.362469887614821573152
0.0749999999999999972244424,3.75426371455585794478793,-2.81544907454572523874958,-0.0474331986776501193792122,-0.108952661376161302753118,0.201009154503945519643082,0.00168860534219175011973191,-0.00341196002871809421497229,-0.0122611798124674237220333,0.0186336646296285241009016,0.999744636950716358825275,0.0575568318845892171187195,-0.174368563846474561307431,13.1055802774979550662238,-0.0806376113560991758522078,-0.00497016900168305558044279,0.635260429411172999891733,-1.90944256768809683677546,1.86140675326232929442938,0.16048413161883767763527,1205.73928212633063594694,1239.8748018015273828496,1214.33208366222334007034,1240.10781461705255424022,-1334.3209575029038660432,898.54297189322016947699,-762.821135861849370485288,1591.66506189426263517817,162.39406307110397165161
0.0774999999999999994448885,4.19257778955642645968283,-3.83788596851034125023716,0.0804736671363344979734933,-0.0931840813664354533640832,0.191915805441363329642002,0.0012721466160387745036181,-0.00349888298621542923397265,-0.011967417331857231957426,0.0186421484985736032879977,0.999747724289838379796436,0.0507668199743499873322072,-0.179567398510459774740866,13.0808722931685075252517,-0.0815937519653244236472744,-0.00535236750118347256316431,0.643199777164408903473714,-1.90969047113091350276193,1.86138063390044083966757,0.162092668696458636068414,1201.96019877805611031363,1242.23752688339709493448,1212.36445535613779611595,1244.19847239272598926618,-1380.83109818539810476068,764.062805114053162469645,-663.124887502180513365602,1310.84688979881207160361,162.430952173378528868852
0.0800000000000000016653345,4.40446105563327350296277,-4.69512526802819341043005,0.186143727609400316813648,-0.0798845630604181344835979,0.181664501644783316081089,0.00149024666430808291027466,-0.00357494216551801574990876,-0.0116751535408656358788759,0.0186258769888321094876371,0.999751233464990063382061,0.0442129142241113395894736,-0.183667780696868815359935,13.0542864475821716041537,-0.082541096588215651097542,-0.00569475334881319392166255,0.651030003270906543200169,-1.90993821016344478280757,1.8613485224415196039871,0.163714671901963204625474,1198.8351266354036397388,1243.69511582709765207255,1211.01645922471243466134,1246.66204906604662028258,-1159.92403293575875977695,419.162911988496091453271,-461.369679870403672339307,697.354462463862887489086,162.460844148593167801664
0.0825000000000000038857806,4.52960813862577804655984,-5.4842453833112445593656,0.255556956907348586938156,-0.068479359343324414099996,0.169491001884791686604714,0.00224296286888835388201313,-0.00362213311854101037770559,-0.0113961383625041778183684,0.0185895858466053297275433,0.999755012276564491990882,0.0381855710806171325111258,-0.186356231423100787703007,13.0261031359762888826026,-0.0834659235071207872280752,-0.00596703566725626313727027,0.658764829017849051773226,-1.91018562009219272646021,1.86131333225268713604805,0.165348277045749086910931,1196.1605786133773108304,1244.33334144333957738127,1210.05760695678577576473,1247.6852447050453065458,-929.089182691131213687186,98.0695921355162738564104,-309.95261991697560688408,123.987722415040366286121,162.489859627351762583203
0.0850000000000000061062266,4.66234412373414031094399,-6.16224816695544941325124,0.269050218322194500952804,-0.0589250896177151428645402,0.155695327008576772653825,0.00368010063139300033427381,-0.00362622100394828115674239,-0.0111474975872118721442749,0.0185408574725332703225789,0.999758786763537021791137,0.0331155604433828812394047,-0.187428822130378258670191,12.9965578789746842858221,-0.0843474648050361042184164,-0.00614588355749092971058722,0.66641974664384429072328,-1.91043248971285617443527,1.86127865811696446840529,0.166993293356084177014864,1194.18968072194797969132,1244.18546378777523386816,1209.46669612512755520584,1247.28198767812182268244,-552.793149580292720202124,-253.082666112868309937767,-144.177477086168295272728,-532.406113640399325959152,162.518152199058732776393
0.0875000000000000083266727,4.89452036005128299223088,-6.63902780292374394832677,0.192050411701598533475988,-0.0510895149169316442616662,0.139785634035365285976482,0.00601217810007466553490207,-0.00358381564583272384932888,-0.0109445942653826743667933,0.0184869727302477138142223,0.999762273341394336334531,0.0293857848983241423668211,-0.186964621143847153916795,12.9658351623511087780116,-0.0851669777449327591867245,-0.00622527632987073496761976,0.674009499570987991035054,-1.91067883815794714585934,1.86124727211109664004596,0.168651936102177768539434,1193.39661286547584495565,1243.06792811277523469471,1209.33671957135493357782,1245.02321413684330764227,-28.1176162186512179630427,-704.651789131504756369395,39.5703316120489816398731,-1418.80578123187024175422,162.545578217365687123674
0.0899999999999999966693309,5.35132604024831692868247,-6.89677953742201310660676,-0.00798416516095033779176759,-0.0427390773801089723926694,0.118555485627037243689941,0.00867841099460770273865684,-0.00349962077273087250606221,-0.0107903952191874211857803,0.0184340772471609203042586,0.999765317170535960933364,0.0270591729106382031244671,-0.185240005933956619621483,12.9340673270699273444961,-0.0859219634112067670583812,-0.00621315907566380096205272,0.681545240745634051116042,-1.91092496533952371784437,1.86122018320490689724522,0.170327759845734255650385,1194.04909264085472386796,1240.66220484211771690752,1209.66454778318779972324,1240.18795877196248511609,508.093018093769444476493,-1044.14350518764172193187,181.554305272539181714819,-2095.4240209033328028454,162.577494694886496517938
0.092499999999999998889777,5.86266672078981532223452,-6.80378728966468671046641,-0.239474575195732786170311,-0.0346824493926825294654037,0.0996590895918239433326491,0.00930786839844113290942662,-0.00337772760699053169533568,-0.010676903559776811450388,0.0183888915676761605100253,0.999767872209421537554874,0.0259237895663987152894414,-0.182495770217125763412724,12.9013384219234730210246,-0.0866245731320807316189203,-0.00611916611549077893439375,0.689034243810394797513652,-1.9111713570288979546774,1.86119943097439000112558,0.172022579732130587171213,1195.93707795594468734635,1237.84721058683703631687,1210.24449109771762778109,1234.54609403232666409167,993.981702567997672304045,-1268.31678479229481126822,260.658459026262562474585,-2523.71169707016406391631,162.603268129829189092561
0.095000000000000001110223,6.39855394945991484689785,-6.36968125004426077850894,-0.484016969392153939555357,-0.0218556815176502543252024,0.0809594824355215625377724,0.00743693658240991879726511,-0.00323038901301077405886497,-0.0105979151610208904843446,0.0183498422009986776604062,0.999769990336410341313922,0.025822247899945062477034,-0.179167253392138237089171,12.8676857443958869708922,-0.0872845075290495514552802,-0.00596792057040963080938312,0.696481767767823223280743,-1.91141897583846764874238,1.86118609998545014860838,0.173736984362350049826418,1199.01900115369471677695,1234.32062091815623716684,1210.96784007831911367248,1227.56940028661165342783,1540.38311580738854900119,-1673.18738269213849889638,306.340166832296461052465,-3274.73536665770279796561,162.628193164011264570945
0.0975000000000000033306691,6.86504776352222201296627,-5.48674476865171190098636,-0.730705154819262570065064,0.000310226271200364066976674,0.0611060298786709338303424,0.00351785994420140578006762,-0.00306637806210529597836234,-0.0105470957474911430223896,0.0183157823641508718526261,0.999771728140130377937567,0.0266048054390167001970191,-0.175575140762320613951886,12.8331085222438758819408,-0.0879111561075891084771072,-0.00578056938000996375914831,0.703891026519954277063107,-1.91166895813460047115484,1.8611794100569156729108,0.175471937976593189700836,1203.63899353498163691256,1229.4812736733763358643,1211.77619193187911150744,1218.17241719903813645942,1762.83931039570074972289,-1834.47405186839046109526,260.359046321718551553204,-3535.36919588936734726303,162.657130262934600750668
0.100000000000000005551115,6.96226090841047096091643,-4.51019846152076819834065,-0.872262961813967785396073,0.0223534054219965520882152,0.0480984861030008814530845,0.000249594325673560015182301,-0.00289394888057637128878086,-0.0105145351541285764218614,0.0182866055588069807702478,0.999773165655106432758714,0.0280385234266649699397256,-0.171998215832930706481463,12.7975729897704351145649,-0.0885185276896532508006388,-0.00557744763882725685250064,0.711262761711742075299014,-1.91192156394545009767683,1.86117714255021615699093,0.177226333635954108602917,1207.83319770567322848365,1225.14825065881427690329,1212.26963530992770756711,1209.89255430716480077535,1647.13395774283389982884,-1739.00944462161373849085,146.719517448991467745145,-3313.88034007459009444574,162.680439714574703202743
0.102500000000000007771561,6.65378695334502712199765,-3.38323731979256248081356,-0.944642432073933724367976,0.0448889932937973704096812,0.0395951401645247696992058,-0.00220265690379475333193771,-0.0027212012500446971022261,-0.0104889611043702951631573,0.018262344675359420964611,0.999774397867476571910572,0.0298636433689345240360957,-0.16868331883508647095482,12.7610194701772279302077,-0.0891223952401827695934955,-0.00537792744630166946046002,0.718595828320186202908815,-1.91217738485751431731785,1.8611770993327059198208,0.178998851573348549681697,1211.87466332369581323292,1220.78622645026825921377,1212.50978951912406955671,1201.60301549866517234477,1528.40819358748672129877,-1708.21696349662806824199,59.6844723213963561647688,-3258.22040351163832383463,162.702921119337361233192
0.104999999999999996114219,6.00587258785678557160281,-2.20744320748168698642644,-0.968793520315908041062869,0.0654484935769818615414195,0.0345390566251099831451832,-0.0040805925328546823263598,-0.00255388982802950666520236,-0.0104610443231061105151536,0.0182409835779342548167659,0.999775544704011864816096,0.0318781203696497164590262,-0.165792303603582380500114,12.7233707598024388119029,-0.0897356624407573688628759,-0.00519719477085751804107394,0.725887872544259127316479,-1.91243596822387829092804,1.86117807381611966022206,0.180788231795312226424244,1215.47523867361064731085,1216.60716584133115247823,1212.5680576715346887795,1193.6014522896066409885,1286.66636022794841665018,-1587.03726501421738248609,-0.0360083958639734885709416,-3072.82806754870443910477,162.724721363942535390379
0.107499999999999998334665,5.03346597854981592234935,-1.04460311167472008619939,-0.94487770274147442339796,0.0812323615139703414378403,0.0323928321207185357377689,-0.0057878918679545440437173,-0.00239219311203096602486129,-0.0104256934238860406172211,0.0182195024208263861575929,0.999776714397432431091772,0.0339948075405358610123763,-0.163323074956412350733359,12.6845409526737196159729,-0.0903649323443678625933373,-0.00504094823635275156303859,0.733135681915367820593588,-1.9126969104479547567621,1.86117782195307479575774,0.182593977560458559095125,1218.30799512483554281062,1212.85104012519718708063,1212.50960947714474968961,1186.23887516092167970783,1048.71748647483309468953,-1520.57954424130775805679,-22.7994680026313076837141,-3034.4997186762584533426,162.745706847905296399404
0.110000000000000000555112,3.6757245923690780031734,0.276769097774042960313778,-0.86353788151323240818158,0.0929026262087449816728935,0.0323161726387845987806813,-0.00844065047940886423183393,-0.00223660786856578856773847,-0.0103782251055157658664596,0.0181954539913947929696825,0.999778000329684224389837,0.0361382971103203290419437,-0.161260746600844218079374,12.6444416815974403078826,-0.0910161532834181247197947,-0.00491330881611542688580663,0.740334206032630670613059,-1.91296024984463941542856,1.8611744139692361077465,0.184416893101498002849326,1220.71882610598481733177,1209.00426812012460686674,1212.4540603315215321345,1178.42895369622533507936,729.638789113868597269175,-1288.33630325866465682338,-3.83651122792798204841347,-2666.08363910822617981466,162.769955914642935113079
0.112500000000000002775558,2.53325633127787197551584,1.2906807198622083365791,-0.750050277234498796730122,0.0965458840156746406213628,0.0345558981457286806815432,-0.0112974498619197536580794,-0.00208759879680819014635684,-0.0103142043602954466829935,0.0181677267721312152293223,0.999779469810491927539431,0.0382391916996325034738824,-0.159571214759233498403646,12.6029903214490648366564,-0.0916949209721003577477916,-0.00481645846248962561375606,0.747476343940130294463131,-1.91322584648548810193347,1.86116694108587021894152,0.186258059500722272794349,1221.95618907040488920757,1206.40935860890385811217,1212.49042692100510976161,1172.90845696538053744007,365.947895181534136099799,-910.320828101202209836629,29.601551583073135276436,-1993.12628237766875827219,162.78939151401706908473
0.115000000000000004996004,1.51590552222228658330039,2.19468581258862682759059,-0.594851387558100075381162,0.0960944021562119415902359,0.0393355289954363945836846,-0.0140275313642777062911327,-0.00194709627059241798668898,-0.0102289893530792472264856,0.0181334744977865620907398,0.999781221378137852084933,0.0402210249049390691777894,-0.15824255017783311894064,12.5601173788048541268836,-0.0924072511643772992462331,-0.00475399355952423312982047,0.754552797758265669791911,-1.91349322298325463798108,1.8611552467653469378206,0.188118563458270188215593,1222.54856558189248971757,1204.45266397961859183852,1212.60206808943689793523,1168.46332228433698219305,156.368969016148042783243,-727.440915709166119995643,35.5904720646321663934941,-1724.58545863082531468535,162.80803294622640464695
0.11750000000000000721645,0.501130918663182267636103,3.14034306503063787019414,-0.388506661785949392040607,0.0947004122295797001740425,0.0474436566461548733797393,-0.0159528442900847694518873,-0.00182106030060367280951072,-0.0101188034952983448716557,0.0180908591004464297524734,0.999783318282440380819764,0.0420241356074571373313553,-0.15735118781918974728562,12.5157730946158505247467,-0.0931580838901454183487161,-0.00473499491682327459940449,0.761552382997074395198922,-1.91376195553434169660534,1.86114039245165940883453,0.189999516915553612328438,1222.73803391548563013203,1202.77215403035802410159,1212.66837928132827073568,1164.28552967222640290856,12.8161034638196973389768,-524.498251598425781594415,-25.7404039862195119781063,-1367.08189481787735530816,162.829493741289212493939
0.119999999999999995559108,-0.190499402103882081727093,3.80956682511452138228947,-0.231392358761746491646605,0.0943378017096922344419951,0.0558625385358063122898109,-0.0160711287526572772776934,-0.00171747886763432759497927,-0.00998422801995711532707656,0.0180366547850082693804641,0.999785800262744994704178,0.0436925639904748377984056,-0.157015324858672422614347,12.4699343216180125182291,-0.0939457540156902887185097,-0.0047723038415960136737759,0.768463051779401995489138,-1.91403221859458838594037,1.86112470799539431176584,0.191902013928908904416559,1222.61264609921158807992,1201.83017272162646804645,1212.47336606950580062403,1161.62791281024760792207,-83.3368872166376348786798,-314.822887768833084010112,-185.039273423899771842116,-932.873694996762310438498,162.846628017455401504776
0.122499999999999997779554,-0.780279701388675084317015,4.35606210560185225233454,-0.125409095570967910049376,0.0944565510986871137433241,0.0654987452626690641599438,-0.0148208731049155970765918,-0.00164106333904042714019744,-0.00982680467615432151617938,0.0179707694408124916962688,0.999788646247861123583789,0.0452879335145029912612635,-0.157261959144270435650981,12.4226108132333088462929,-0.0947667784827678355563663,-0.00487366492095280164076332,0.775271866615333093974982,-1.91430437041948331433616,1.86111037730874517848179,0.193825326105227846440471,1222.32134947940244273923,1201.19803959151386152371,1211.74318291420877358178,1159.62116119724259988288,-136.69734606023655487661,-231.592290049911554206119,-417.551538894667430668051,-722.003699609057775887777,162.862994447777452933224
0.125,-1.32707013213717894828392,4.80112581134170834928909,-0.0746271113162659399664633,0.0941790124450741505945928,0.0756112314464962992355268,-0.0130756144049248082539272,-0.00158746772213522765841709,-0.00965161150976420051383897,0.0178955144381519777596612,0.999791768310710149414433,0.0469541753159115962668047,-0.15788937608233982734518,12.3738504721939204245018,-0.0956115595547512020502268,-0.00503256511952840206169935,0.781966145145443602970659,-1.91457840750243590832724,1.86109826771539155210178,0.195767726216144744011416,1221.92915936891040473711,1200.67221127137690928066,1210.38560837503246148117,1158.01789431220231563202,-188.849516297568527534168,-222.772396953450680712194,-718.093941205960845763911,-563.765298436373541335342,162.87873264749643453797
0.127500000000000002220446,-1.84485099007659369974022,5.11623156737939055460629,-0.0781708496562207449942505,0.0928021588470226144185204,0.0867160164706687885960434,-0.0121672562664640569740637,-0.001552903117577168496527,-0.00946078322868197825468162,0.0178171440510655788858063,0.999795034285284156538864,0.0487502104686964934932014,-0.158707957081220429884638,12.3237391056966512081772,-0.096474639427446537420785,-0.00524192827215590878564555,0.788532572910464524262864,-1.91485402973580964847145,1.86108690988646774400195,0.197728045889588976979923,1221.37710189791459924891,1200.08417760674660712539,1208.15271320817896594235,1156.80233470506072990247,-306.959098496463127503375,-315.158676510827433503437,-1177.20373592537612239539,-450.881777387484873997892,162.893724433889786951113
0.130000000000000004440892,-2.41502040271613171995568,5.31811044659778708876274,-0.100194240768628484161695,0.0892615857441720617071468,0.102146742012554914147415,-0.0129524836759664380841928,-0.00153163677796803294160755,-0.00925803346561625793709194,0.0177418852276070813933639,0.999798300880450740990568,0.0507633491471302031317059,-0.159484500790010169657407,12.2724019212663293387777,-0.0973475973946842099149279,-0.00549082119302338449856604,0.794958384245318505634259,-1.91513093603208450765862,1.86107476119285797366842,0.199705835791428587544516,1220.39436387642808767851,1199.09641788882277069206,1204.49958969540557518485,1155.76348542526488927251,-439.547836658948256172152,-427.591779905878468071023,-1468.18291423692107855459,-304.880130277342402678187,162.910867049731962197257
0.132500000000000006661338,-2.80105493439644570585756,5.31699653415741835260633,-0.0960808681924272961483169,0.0842435538204200362599749,0.116827684816803278877728,-0.0146151673886530664159267,-0.00152048696686675694281221,-0.00904381568501659571790441,0.0176757173713396366354633,0.999801456889961026597291,0.0529876154561318771230027,-0.160053745144324022220417,12.220001445391556416098,-0.0982267921690024581327094,-0.00577133316581947101997496,0.801230575481446161134613,-1.91540927042573483340959,1.86106126447014408320513,0.201701046733172184577398,1219.17936271461985597853,1197.94621870721721279551,1200.81179863699435372837,1155.27793405367401646799,-596.168928010865215583181,-527.980105778760389512172,-1543.76984110972307462362,-105.642900141901819210943,162.924458221293974702348
0.135000000000000008881784,-3.01054350780731194703321,5.1325090224159000129589,-0.0402778032658751838912536,0.0766257818029100756795913,0.131997099514047477875067,-0.0162386396788964035287073,-0.00151458145178973483356566,-0.00882133655190102047849443,0.0176233901635317845302264,0.999804391798257641177372,0.0554735222460346275030751,-0.160219305340239398516289,12.1667362025800915859008,-0.0991036835126529874751,-0.00607233302826740671542805,0.80733733864643408839612,-1.91568855786222913550887,1.8610462563687610870744,0.203713478352383209335486,1217.41351923637375875842,1196.45651735992896647076,1196.78074048985695299052,1155.23527092455537967908,-921.614961197427987826813,-703.608207279011708124017,-1764.66671377702209611016,85.5730611372563743088904,162.937343753071729679505
0.13750000000000001110223,-2.9544835401662461471517,4.73884267113898616230472,0.088572611413119284318185,0.0644414288169600779632162,0.147901300991003459284201,-0.0173641237400305285809576,-0.00151077754098229524205854,-0.00859368424508930896232872,0.0175878838814171531423902,0.999807027257860303492976,0.0582557341966311384440225,-0.159838571022300007795636,12.1128356853485854571773,-0.099969368923963741746519,-0.00638508764049918516730875,0.813267717074205975791301,-1.91596938083738033142822,1.86102937223650077847026,0.205743738471920678545501,1214.57128790863271206035,1194.42817767082215141272,1191.98846506810923528974,1155.70579935936029869481,-1159.43116873699977986689,-745.14908304740788480558,-1690.59268065579840367718,249.132598555888534974656,162.952009329409861493332
0.140000000000000013322676,-2.60176682304557926883604,4.32533529332133426237306,0.231529680596796655356329,0.0530110393836144000445643,0.157905504812458297170252,-0.0174713370289883394848029,-0.00150558221923616838283655,-0.00836650957169477078878561,0.0175677549889623821344209,0.999809342096698805413268,0.0614197447824849848685425,-0.15877527621965270565596,12.0585552113534326679201,-0.10081008957379064550075,-0.00670079410589657399610619,0.819012537101955984120139,-1.91625277213664046982444,1.86100987721540578334611,0.207793369690123214121869,1211.61636339268875417474,1192.73077194469192363613,1188.32777708657795301406,1156.48093391733482349082,-1276.80116370865903263621,-625.543753356714091751201,-1345.25053275747154657438,361.859677150868833450659,162.963580978941450894126
0.142500000000000015543122,-1.93743186877938766699003,3.89677158338084117517042,0.380012897931249593597158,0.0429091634498452723089912,0.165236757489319097125247,-0.0166604717810252891951883,-0.00149153817777101529128136,-0.00814417473373826167337697,0.0175638809780251613223978,0.999811292618352220884503,0.0650090871777753986915371,-0.156811499939472909215255,12.0041696900625360910908,-0.101613511837164077755702,-0.0070032940941478546287291,0.824564286893281983559234,-1.91654051545185044602704,1.86098820835453571120865,0.209862552412384550937219,1208.18728209008941121283,1191.30045890403857811179,1185.26221240432187187253,1157.51509774511464456737,-1412.55970520642881638196,-490.721999386917104857275,-1111.09931283690980308165,427.231629279505966678698,162.974496666883368334311
0.144999999999999990007993,-1.07905547806674317889986,3.49045035916083667970611,0.506566336035706110685339,0.035887392414578327126673,0.171798306332013289710048,-0.0148706809193371296967667,-0.00146056615035513215512808,-0.00793105071518769057237197,0.017579040175731905359946,0.999812805170045448832639,0.0690573291592941618244339,-0.153731848848887131531171,11.9499642494115789759235,-0.102367082123740571475423,-0.00727474077529716330048348,0.829918068947727238793277,-1.91683365346684619900941,1.86096574860424812669635,0.211949954975924254041431,1204.55356486665664306202,1190.27716194775734948053,1182.77228052239343014662,1158.61709206373234337661,-1440.11250434978819612297,-283.80152634763493324499,-863.151177842250376670563,417.797826932566863433749,162.984882790479133518602
0.147499999999999992228439,-0.125534688505808955660825,3.11660288080245795327983,0.581061376422795206053706,0.034378362942531381918343,0.178726466978189613143968,-0.0120275677235659184116656,-0.00140702701405447149277106,-0.00773066381314137154173727,0.0176163527761113124225911,0.999813804918511794816993,0.0735691869084635630127167,-0.149397664109026356848986,11.8962238973073297643168,-0.103060078899055163059728,-0.00750108611783211181450737,0.835072107935375784748544,-1.91713251909221882307577,1.86094393899143950577013,0.214053636959186915911246,1200.98671956834050433827,1189.88145127230040998256,1180.94645651511063988437,1159.60408687977746922115,-1464.38494479766495715012,-25.0005105580384920926917,-683.895724624789522749779,361.037198594157985098718,162.994648518575985463031
0.149999999999999994448885,0.919553421440868712366523,2.68232435348203157587932,0.60055180549880304852195,0.0390249113581414217022392,0.187819798177620095325224,-0.00876862415390130232883958,-0.00132397702258707180601738,-0.00754389790113547953342987,0.0176755881023208140379044,0.999814299453209098800244,0.0784837477559706120366911,-0.143657481451133162142497,11.843224232623622782512,-0.103687179501426487981952,-0.00766659421630909443390323,0.840028026613957923274256,-1.91743584165064562263581,1.86092241015456050234889,0.216172532060490973915279,1197.23164014266831145505,1190.15215939496715691348,1179.3528018992694796907,1160.42227805670313500741,-1229.78858163855761631567,204.175870029484769929695,-521.341164398063028784236,213.10218112384953315086,163.005674651335880298575
0.152499999999999996669331,1.57517283971405142040112,2.31338585169288890597272,0.571727341684819978517851,0.0465556528332823557625453,0.195218672637423207305574,-0.00715994117638771038897305,-0.00121089071707194636563776,-0.00737106585658639599373254,0.0177516158670662053953304,0.999814377238780971346443,0.0837251339059574550827136,-0.136530949522011668673116,11.7912191906816303799133,-0.104245897172673185337999,-0.00776705954327470277087642,0.844791548000837888565684,-1.91774215892776278558074,1.86090058433486937872203,0.218305142201521334976988,1194.83777666014771057235,1190.90233062244783468486,1178.33975069312032246671,1160.66959778539671788167,-754.969530381912818484125,368.028521032192315942666,-386.983826108052767267509,-7.38486984068912821754793,163.014304363610619930114
0.154999999999999998889777,1.91331845167631198201263,1.9316911581425197930173,0.524531117499569821127636,0.0550565116831694123522567,0.200671753591291329721358,-0.00679388643027753480474473,-0.0010778968132446472508873,-0.00720945611986329067122359,0.0178357675224981061801177,0.999814194195952854471443,0.0891466758959636451642439,-0.128303436573976470391756,11.740430645691819933063,-0.104741347256735436999087,-0.00781681348364515055093804,0.849372175717233113267923,-1.9180495642510280163151,1.86087796714543185494506,0.220448800785290610626532,1193.45679249075874395203,1191.9923020001281201985,1177.41788276872921414906,1160.38535370749968933524,-353.504367475033745904511,505.248554822355345095275,-432.859008880358999249438,-245.255731054657871936797,163.022376771733718214819
0.157500000000000001110223,1.93759533893650415237175,1.47115474914357791114128,0.471779750960472921139655,0.0640570966690071352811486,0.204188628129527427468304,-0.00671112912127916176607823,-0.000938266524656954266359055,-0.00704902800607326140286402,0.0179149955038486533021036,0.999814032189045076570721,0.0944385056535118616594104,-0.119342979409493621378857,11.6910419200551523033482,-0.105193688834749540794711,-0.00783638163799955933530583,0.853782447185269965928001,-1.91835600953918317124192,1.86085423133873617551615,0.222599588947802545790822,1193.07025482277254013752,1193.42857339655961368408,1176.17545564871852548094,1159.44331913012342738512,56.4542133773556500386803,516.153519283397599792806,-504.31310623393937930814,-430.875427271666524120519,163.03144491298976959115
0.160000000000000003330669,1.67992699861976002573272,1.08880339794572811307205,0.434486497190429477033291,0.0695379943431673058773512,0.205802902698399264869167,-0.00608213261849747163084734,-0.000806935157621439607365799,-0.0068742812544970314028725,0.0179768946528320178179783,0.999814199076548559830258,0.0991775197058983870590509,-0.110064258670558273722762,11.6431909307968339817307,-0.105635155635207103608231,-0.00784901107919816834468385,0.858037927550222234707178,-1.91865929502576193499408,1.86082847561031061722758,0.224752905957296300609727,1193.73906355764552245091,1194.5730695965451104712,1174.89631723755951497878,1158.23097657114135472511,424.308637537887591406616,424.006318872624945015559,-578.552396778786146569473,-545.821553799305092979921,163.038503587506625081005
0.162500000000000005551115,1.21432910255517612085896,0.68962635690654183751036,0.39456541270695594247897,0.0719828028699575628301943,0.207886314422673246227191,-0.00477361164488615107720504,-0.000694021699869912743995071,-0.00667327058660136928497364,0.0180127764457966473010675,0.999814915139705107094414,0.103043870357977088159096,-0.100780841869983830982882,11.5969649850957310377453,-0.106094175211713645512468,-0.00786925723112678193738034,0.862158261052695329418327,-1.91895808023416236665071,1.86080032602421741039223,0.226906200255639622920256,1195.19179801046198008407,1195.54860499092274039867,1173.28269366482459190593,1156.71421136112689964648,653.82627959670514883328,357.608959841763521581015,-699.926907072994595182536,-631.869302811809916420316,163.04506474568179896778
0.165000000000000007771561,0.638447314802973009406628,0.252321656595619836505051,0.343810276571285100555286,0.0722188850469446114166416,0.210511003741479685302807,-0.00342679288729397972870783,-0.000602045984407641610741679,-0.00643686778370754046629809,0.0180221265831963101122781,0.999816239256156591430624,0.105804821374801835687229,-0.0916420436103938668148672,11.5523973052461901289689,-0.106595826322352871251553,-0.00789717199574657864602489,0.866165645774984116478379,-1.91925187427644283744144,1.86076894911309698166235,0.229058963679608346142302,1197.00819495562905103725,1196.36111439575392978441,1171.3966827021945391607,1155.07163005708230230084,730.837764785200533879106,291.627840378259577391873,-801.679075300852900909376,-653.763014308469223578868,163.051226801000240129724
0.167500000000000009992007,-0.0184722366685776961947596,-0.249120683805833326163182,0.275231380934211178335147,0.0716356744709033405049681,0.212828391494865404309778,-0.00247103411681809815442223,-0.000527685803577017712405473,-0.00615884630100168098398861,0.0180069186606733877553665,0.999818171822385304281511,0.107316416386845581154574,-0.0826759308831624545321759,11.5094656723671384668251,-0.107160781917653075145935,-0.00792267652072200373458699,0.870083170047518783540852,-1.91954007434443929547285,1.86073474768033597648298,0.23121101350189501855148,1198.84598683438798616407,1197.00674419281403970672,1169.27429828832032399077,1153.44539628958455068641,709.267463989316865990986,255.528673680964629966184,-945.641278449647074921813,-667.428227017898620943015,163.056922480885873483203
0.170000000000000012212453,-0.865477981562954967742485,-0.90953768545706381587479,0.172614189897384223693066,0.0715293651116614276341821,0.213649164944668817911477,-0.00181929546134413505642513,-0.000472278453838689577393845,-0.00583771747686878585831272,0.0179688702139508792166023,0.999820687088939230591222,0.107559845954544902602024,-0.0740311429469627246824359,11.4680935849254144187626,-0.107801440484222771365452,-0.00794475741719559772069381,0.873933323474614498493906,-1.91982288298205161503063,1.86069882084671212041371,0.233362856952377656361008,1200.55453227557563877781,1197.6387577641587540711,1166.66847630994629980705,1151.73448892199280635396,485.548048502959773031762,206.29683876400105191351,-925.543211004332192715083,-557.623198268219766760012,163.063235546797642427919
0.172500000000000014432899,-1.596794391690412595608,-1.46568841435471708400939,0.0719303523535912425757033,0.0712175297515918043211869,0.211523113935147305531004,-0.00150595632017858885483286,-0.000434056491820637268663069,-0.00548414764789401359273979,0.017913239356376474409327,0.999823623895182200804754,0.106810416037434546820961,-0.0657973070136122495377151,11.4281563566241235463394,-0.10850768932285068113508,-0.00795773974408201141550467,0.877738167308507732933265,-1.92010135824634242673881,1.8606619308737921691943,0.235516254425101906333495,1201.27372707690278730297,1198.03822838663404581894,1164.64658223329865904816,1150.65728029824344957888,107.972322807290666446534,110.192629934044717288089,-730.395453118671184711275,-332.76597934755017149655,163.06807302820979543867
0.175000000000000016653345,-2.29669361020312967625046,-1.95320374912503624820204,-0.0423201457054410562497182,0.0686089623059726316789408,0.206248961157228238860739,-0.00130623774377315897063379,-0.000408790557136997256999777,-0.00511779910885246970553286,0.0178488301765122626962867,0.999826711324500960742512,0.105558242364325649553791,-0.0580160659198137446113108,11.3894900144962107901847,-0.10925128337602531269912,-0.0079523798504794775132698,0.881517333392785484846854,-1.92037813613962726755346,1.86062548725660636961265,0.237675080560798446249748,1201.09439388961209260742,1198.18972091382897815492,1163.01649904435294047289,1150.07065902525505407539,-275.94138239837906212415,-45.2895712606279943202026,-586.456147517540557601023,-135.192180666036335878744,163.072483091738490657008
0.177499999999999991118216,-2.98396416396356345401841,-2.37708484125039376522182,-0.190465677383767961750038,0.0605746122904767328454234,0.197830126385730303839594,-0.00102084356491365145849781,-0.000386704222492091945987541,-0.00475808545630643404955595,0.0177840704485552544844573,0.999829695902028525722471,0.104293281042703855909792,-0.0506044133980455002053134,11.3519032668911528105582,-0.110001227505687512731036,-0.00791092805605132440294192,0.885285188184551596890515,-1.92065629268302107135469,1.8605904842899823048441,0.239843027465745706194866,1199.89402016491089852934,1197.81178053033090691315,1161.71430149571096990258,1149.98131939491327102587,-570.08027978481811715028,-281.458698402094739776658,-356.976398177495696018013,59.2508697111955413561191,163.077293471345655007099
0.179999999999999993338662,-3.33182542063714803859398,-2.55728446451177493514706,-0.314763172267174262675127,0.0497047376051373071548234,0.190265521211367111265034,-0.000886236617515860267656203,-0.000362412719299495995634725,-0.00441609390966368753339566,0.017724752114627696092386,0.999832419060668553534299,0.103314691983502460193023,-0.0435744326421575803309771,11.3151900634135387235801,-0.110738311856256377296859,-0.00782469660107538468596378,0.889048467315053381199164,-1.92093723216042699952766,1.86055732526226580425543,0.242022252861832098957962,1198.24399249068801509566,1196.78242742181851099303,1161.2316170534654702351,1150.36691337381103039661,-737.339647026009743058239,-612.599262698631150669826,-79.4475008149219519282269,216.20905156337337871264,163.080908826555969426408
0.182499999999999995559108,-3.3609491728756597517247,-2.54128876730224018132276,-0.419366523290444548344169,0.0369735370296052981431423,0.182809921681987480601705,-0.00131506297561058329431694,-0.000337486458441449096480602,-0.00409622913175743119662542,0.0176731551094584694860945,0.999834822429917058350668,0.102765433133333028425938,-0.0370863461341848568708635,11.2791426628261444164991,-0.11145275390428677209087,-0.00769881689883825277853635,0.892806615998225194807958,-1.92122117456150576231266,1.86052601549761797983251,0.244215301846608362490443,1196.20732192978084640345,1194.74878421683774831763,1161.31706399163635978766,1151.06236465273013891419,-834.564333489105706576083,-1000.47563064008409128292,103.901655401932572431178,291.704629675041076097841,163.084124426425802312224
0.184999999999999997779554,-3.1118522208498533565546,-2.36950708209459026676313,-0.484486803404944321727044,0.0247948529038643054878133,0.175828071175052141894568,-0.00249348429169506417488189,-0.000319028532410746250031625,-0.00380357625103135794583653,0.017628555861342470184594,0.999836903105564389626636,0.102796115123800185786607,-0.0314133898552297896600294,11.2435642020492991832725,-0.112131561504282536989585,-0.00754981219245365754028088,0.896553892238503569167563,-1.92150907333920795139193,1.86049612382935669607775,0.246424137375854446219137,1194.07117082324248258374,1191.78004926861808598915,1161.75112533047513352358,1151.82543652218623719818,-835.601709058618439485144,-1400.47149201541174079466,219.754602121429144290232,268.597142575890529769822,163.087013927444246519372
0.1875,-2.57985488788079653232899,-2.03668141141342751154752,-0.471391405776934613314211,0.0149809094342198204086181,0.169943421983273945663484,-0.00473483837536571930404428,-0.000309321067301335066168644,-0.00354447581391199124586922,0.0175897693077362027302968,0.999838666965340516767924,0.103577454782250999443249,-0.0267047231701410606174996,11.208280640942893668921,-0.112757616936356511172512,-0.00738638713368561412864199,0.900280490275469857941459,-1.92179998355056813608144,1.86046692632908938769276,0.248648306868680418757478,1192.02931338448775022698,1187.74642675676068392931,1162.41583700224350650387,1152.40535036560959269991,-843.371453745566327597771,-1950.98495161946448206436,302.929737061412822640705,150.372397100181700579924,163.089515597610557051667
0.190000000000000002220446,-1.75368595240640590127157,-1.50179751746398526535131,-0.33892032345450967545375,0.00740587237596146939766495,0.164411708638976056251479,-0.00840249988978661148386617,-0.000312640637497569478554793,-0.00331895795887086376974029,0.0175549948446625109221841,0.999840156366357701855918,0.105124486722145207839851,-0.0231334990595108737354568,11.1731515091787070304008,-0.113323967632892388945898,-0.00722121606324070252486136,0.90397162532887376240609,-1.92209412863392148373975,1.86043834019122478196095,0.250888121156336574291146,1189.85431355451464696671,1182.02512451052075448388,1163.26577401578219905787,1152.57729850768714641163,-744.462377387071001066943,-2160.68721840583566518035,300.85965659341098898949,-55.538873894738522096759,163.092074758344466545168
0.192500000000000004440892,-1.03972691826741736598194,-0.987030301093232087517038,-0.134691845479857602585483,0.00473002725106993430342905,0.161282515605825599314116,-0.0115167922536506695668779,-0.000332149314572202170384174,-0.00311861223073861375254534,0.0175254135407331285145816,0.999841390930662154978847,0.107249979353878949206447,-0.0208236283626499797672071,11.1380782670478275520054,-0.113838297326858489677548,-0.00706439902922102042071018,0.907608022620856491613495,-1.92239160672793651940538,1.86040998022012127322,0.253143807779630247711822,1188.30700149755239181104,1176.94299066473149650847,1163.92013528521056286991,1152.12765599613589984074,-572.874368940710610331735,-1978.56811854339684941806,242.78700947247648400662,-314.96829179050081393143,163.093841340861644084725
0.195000000000000006661338,-0.457639410924930101209895,-0.456394845513324598496041,0.123877499854807934798195,0.00625517450210822008316303,0.160079204167159566685186,-0.0130153156813360895011078,-0.000364422362911815875523985,-0.00293764330253361337710882,0.0175047671009352229232192,0.999842335366825096798493,0.109813361100691231353466,-0.0197309485855270416720941,11.1030088078798634398936,-0.114303327802245877076182,-0.0069138775807436655268523,0.911169500771915052972361,-1.92269201622560714781685,1.86038110732791261980879,0.2554158197698836452183,1186.98994170981109164131,1172.13228391780376114184,1164.47970906314458261477,1151.00245704873464092088,-505.290910414532390859677,-1793.56810676563168271969,210.080086820471279906997,-551.749871699166305916151,163.095230555612914713493
0.197500000000000008881784,-0.0795516788655542123054332,0.0478873761279411669367079,0.368934600920466593265701,0.0106932026975305547594752,0.160376909035520071045156,-0.0120576661976428013006712,-0.000409181006750663936281931,-0.00276812270326601186226645,0.017497105121950594364133,0.999842951449958383669525,0.112610243728191256051829,-0.0198573015715610250164769,11.0679409616969977037115,-0.114726093476465132448006,-0.00677344976909468113324131,0.914634801140696729326862,-1.92299503059638987600977,1.86035075015564133060764,0.257704524804016732453249,1185.78054694547972758301,1167.97515013090333013679,1164.9705357193129202642,1149.36890663764006603742,-485.340547922668974933913,-1428.33330238595272021485,183.33661443675720192914,-745.649000906177434444544,163.09630871019234632513
0.20000000000000001110223,0.00212029675224045810466578,0.482732729959330586488875,0.518715710287075193463124,0.0153510827114060333098422,0.162051858052367714346786,-0.00834099981157277771404157,-0.000464818819942511870894897,-0.00260574497876707965315912,0.0175021340013831218362927,0.999843264870421744028306,0.1155022713631628367148,-0.0211513751305504801858426,11.0329217390047293889666,-0.115107614703401139877315,-0.00664616318732947925634891,0.917984161566653855679476,-1.92330042018055991093206,1.86031880834381291300872,0.260010381780235055870776,1184.56323897019774449291,1164.99061740587399071956,1165.39639213532836947707,1147.27421204420375033806,-574.674830805724468518747,-995.875551880862076359335,168.453198822589769179103,-976.766950099589848832693,163.09701472638101904522
0.202500000000000013322676,-0.211018991884999673747103,0.893905262041725157118321,0.51914801875097404959547,0.0178769196224474943845983,0.165001922497753222840444,-0.00275985831054884880528255,-0.000529982040988250142909965,-0.00244945057898590364334201,0.0175158413754607951429154,0.999843356690813811482599,0.118408626338574615721733,-0.0235427453879154154059439,10.998044245517805350687,-0.115443881458061545219884,-0.00653732380146504216816838,0.921200479044424147545556,-1.92360882343251482495816,1.86028609275946887890996,0.262332591127371506090071,1182.90717279145110296668,1162.99577237149901520752,1165.81280171342586982064,1144.48507188714211224578,-661.594290078164135593397,-476.066440845852014263073,124.050750256992500908382,-1028.64828032311288552592,163.097436552450403723924
0.205000000000000015543122,-0.575082393764884458597919,1.13492146261383664018751,0.362691753979448694433785,0.0172010123005004664231699,0.167807359854656473752144,0.00127458364258672702390429,-0.000601639862884479205244748,-0.00230231527669415899500782,0.0175324025407660212538818,0.999843329161321014986186,0.121327957326484298095082,-0.0268995710253470479700333,10.9634415969720215855432,-0.115724457251849557892776,-0.00645075234117694577135049,0.924270814704332033251433,-1.92392037917648117684166,1.86025515405165142723831,0.264668505381888130578716,1181.25526751980692097277,1162.61028520164472865872,1166.01664588661333255004,1142.13097064258818136295,-729.121383162509346220759,53.7708817711063105093672,25.9720422543068494292129,-904.673321853942184134212,163.097437828857039221475
0.207500000000000017763568,-1.02498158556503926597259,1.26927336843367455365694,0.0885351873790372612127442,0.0141576124543487946727538,0.170870579924540522132048,0.00326088973849443606450871,-0.00067696585328089892152903,-0.00216599261299052882681626,0.017546110805985969116616,0.999843286250644336377036,0.124218451831556137010537,-0.0310688189227501798672648,10.929279322687680320314,-0.115943181516819107668148,-0.00639157486531921874978179,0.927186138949563143363264,-1.92423426147405396413603,1.86022754490543751337839,0.267015649277153099827586,1179.26156587563855282497,1163.26462678035454700876,1165.94266192469740417437,1139.96170527787239734607,-946.255854863925264908175,419.450721703289787001268,-129.802080478658041329254,-874.839179762652292993153,163.097081483036845384049
0.209999999999999992228439,-1.5487264027782132735922,1.31184933378813983750888,-0.277152646698170523897886,0.00834955426922020550739578,0.175079464726902001014963,0.00260809524752089868723792,-0.000755551961575050734683245,-0.00203454320753393945453436,0.0175503408205712023437695,0.99984336153161201821149,0.126867278586879933532927,-0.0359235675724152644927578,10.8957460820897349407232,-0.116110142237797475672778,-0.0063700597693683311609214,0.929940596644990069563619,-1.92454905492121941534833,1.86020595485508821731457,0.269371787309596377735232,1176.52398824548731681716,1164.70753881016116793035,1165.36763548422004532767,1137.75677474377494036162,-1037.72319057171011991159,545.604611623960181532311,-308.344483235443078683602,-726.864861505604267222225,163.096248370991673937169
0.212499999999999994448885,-1.90821384716816155879826,1.25577203518833813156164,-0.531936741921255062948148,0.00248927519422892503872524,0.179067738069218967966734,3.3541731945400552958314e-05,-0.000841538747017685955301158,-0.00188669010279683647610116,0.0175396718958705649660246,0.99984368574181547995039,0.128728696955237698063002,-0.0414084813256368200473645,10.8630433689831686905336,-0.116266635045910129986346,-0.0064042259391870913140532,0.932530080496496438513532,-1.92486252337186392047386,1.86019274885202068325896,0.271733732285833085029481,1174.07294992278002609964,1165.99264983847433541087,1164.40093950852019588638,1136.32738097034439306299,-972.832836910855803580489,424.038625369530166153709,-487.638036639554684370523,-482.538642937060558324447,163.095222710083220363231
0.214999999999999996669331,-2.14228103446974227352939,1.1242620359961432718876,-0.655824836795787291521265,-0.00363815455876704847010261,0.182995701717745151704264,-0.00383227899779413957309648,-0.000930516174487244361775151,-0.00170224377085283922785008,0.0175148823304626458097211,0.999844278920589024650667,0.129294086039045963421046,-0.0472656019100771013219386,10.8313714674832208828548,-0.11645437286811395616315,-0.00649381872095648564335857,0.934956303053750881204564,-1.92517180818585842416724,1.86018692667272955709734,0.274097904562632332936545,1171.65982406093303325179,1166.82773193700882075063,1162.92944530102226963209,1135.34408152908963529626,-922.578276094190300682385,195.799881490938616934727,-653.07477728174433195818,-323.499152599333399393799,163.093861567516938748668
0.217499999999999998889777,-2.25791180975293714894292,0.957304254982949687224902,-0.637334827866010478203407,-0.0097945924337595139524959,0.186182402273157604488674,-0.00814049690820968507853905,-0.00101705578762113996518779,-0.00147456724443701379413663,0.0174802713978769522218393,0.99984507030232905311351,0.128361464534904906598101,-0.0532095991024832126736754,10.8009157241646001068602,-0.116691847522949684878846,-0.0066341587796354432524093,0.937229172437088364766566,-1.92547629835850675483755,1.8601864189909791402755,0.276460919045997122189817,1169.46005854230907061719,1166.97164924592902934819,1161.13556562211147138441,1134.70988520734772464493,-790.877123773906760106911,-151.855274045328627607887,-750.365408964579955863883,-178.113201083715296135779,163.092228714146784795958
0.220000000000000001110223,-2.22991614955724015700866,0.793652587208350412950608,-0.446086675342015126499717,-0.0159155275000355048153899,0.188123654030061482345104,-0.0119283188986298357286975,-0.00110242213739583801677957,-0.00120994193298842216480193,0.0174375772301495549077011,0.99984600174654880699876,0.126018096385617339727503,-0.0590993287944270445644079,10.7718352543156861145235,-0.116974744518439990881298,-0.00683113296833773309124638,0.93936566620620187695323,-1.9257763998140131622705,1.86018803767598495113589,0.27882069888685079295243,1167.70543844206349604065,1166.06845556678217690205,1159.17761825619936644216,1134.45351552367105796293,-643.508895106742215830309,-640.89458246253286688443,-825.804641644253251797636,-35.2811096784534754533524,163.090275743096412952582
0.222500000000000003330669,-2.04503851277651582662997,0.664761512731867676428976,-0.0669561786212808374152416,-0.0229049691527500806631501,0.189173220363026917123506,-0.0144979851841746023438651,-0.00118789982269925428054469,-0.00091929687282150409320669,0.0173936695249427911158513,0.999846921950646949639463,0.12246431725997022899044,-0.064796943482412244774693,10.7442551094026672586779,-0.11729048743464572102102,-0.00708615571782842020021054,0.941386827956714800080817,-1.92607304820632840858252,1.86018937112128712740855,0.28117731120126687738292,1166.24251406677535669587,1163.7671763336163621716,1157.00654241389020171482,1134.53347965895545712556,-433.038799983341561983252,-1008.47238846335949347122,-714.276471455922774111968,88.8162433921023932725802,163.087571332238724153285
0.225000000000000005551115,-1.78573409035184127446882,0.652934790567320511023297,0.308519880456551875980153,-0.028304373978537366446373,0.189324442033488221648341,-0.0144390380699932468350211,-0.00127443542449107204486691,-0.000615487731247648219359836,0.0173562281471276065591969,0.999847670678312816505695,0.11795641931033903904158,-0.0701658919957177662496406,10.7182599398504798671183,-0.117622744262848938356925,-0.00739625812704175662759543,0.943315834785660167760568,-1.92636758305108468647404,1.86018919155484918626087,0.283532227194813413184704,1165.54024444214678624121,1161.02609362446537488722,1155.606235898919749161,1134.89759674063157035562,-203.926216724766902643751,-1184.05116691296711906034,-432.765068104617569133552,202.486348697402547713864,163.085023349381856405671
0.227500000000000007771561,-1.45425124141427386526004,0.767764035423252999557064,0.653962487489328614387318,-0.0328469597165760920920441,0.189259443158559081954451,-0.0120542478903197403800052,-0.00135435744668394963778624,-0.000310939488316292768875504,0.0173291681353556839551011,0.99984816449548707950612,0.112760746393847546831246,-0.0748995847408127218836071,10.6938906813017702290836,-0.117955219165170543949017,-0.00773955050221149676997756,0.945176428696450243727156,-1.92666062659128134448849,1.86018520689481481333871,0.285886550940033956624831,1165.22288298315152133,1157.84692049905152089195,1154.84271707336711187963,1135.54591140244247071678,-106.683746182125005930175,-1377.83808437443326511129,-179.025829163037826674554,345.507146416320836124214,163.082177143168593147493
0.230000000000000009992007,-1.03127564584474895603705,1.04963143056635677119459,0.938445365051972846259787,-0.036055293450575641445166,0.189661501676719856934739,-0.00674917802594888604356127,-0.00141823240747257278346338,-1.33616131904612135610313e-06,0.0173184956804266626528843,0.9998482925052041281333,0.10680387500516803911399,-0.0786706597236590116084543,10.6711439777170618015134,-0.118302672041439821404296,-0.00808649906550888523948384,0.946987974611949834269353,-1.92695160814275534555406,1.86017543166869359083648,0.288240041728010765176293,1165.00682571123616071418,1154.13690320259320287732,1154.71110675310455917497,1136.62513247271317595732,-95.120758781149476135397,-1254.01082937191745259042,61.5111169620376472266798,442.263697811312852081755,163.07842491037902732387
0.232500000000000012212453,-0.703087228881919323875138,1.37721344465483674923689,1.02407783601991142496956,-0.0361983579334330882182336,0.191003912976235284970628,-0.00107507931650988259111856,-0.00145767382444212030036257,0.00033109661937120299628895,0.0173314640486740036140478,0.999847925354365951733371,0.0997451711271661323188198,-0.0811973573245296925682268,10.6499710754628278408518,-0.118704899893002480126825,-0.00840620845783897688296982,0.948765235723992073069155,-1.92723906201001948801377,1.86015784169625053579011,0.290591805397484359563265,1164.747279189245773523,1151.57686635219192794466,1155.15027265817730039998,1137.75722989149903696671,-162.443331091298972523873,-827.38759307508121310093,238.680938311654045946852,496.424225120062601490645,163.075022924468697738121
0.235000000000000014432899,-0.434920291605890907415954,1.74011689182994411240202,0.950743653347351447280289,-0.0350605399984165733151542,0.194145428033777461829246,0.00404342727611128362197324,-0.00146943968953071042553293,0.000693940738520572590782021,0.017370198645963171729667,0.999847017371623514314649,0.0914800484072093023080186,-0.0823420341685244944196498,10.6302773057982804516541,-0.11918175819104787072078,-0.00867748836872834529432286,0.950522918687372930790502,-1.92752349177390525092335,1.86013118874048921647102,0.292942967222921124559321,1164.19460905577966514102,1149.99996523721779340121,1155.90451144466283039947,1139.10725359831349123851,-287.977126606892625204637,-428.235241082392860789696,305.493150367510395426507,569.95768749302396827261,163.071341787191272487689
0.237500000000000016653345,-0.214596006184632009938795,2.07252736825001626641551,0.783370739787706882317764,-0.034586256998638743864749,0.199217707809212191127912,0.00736584985208989673904911,-0.00145202642520198205514093,0.00108097141552938261904737,0.0174318728236347551818763,0.999845613910243069533124,0.0822140010118277697603872,-0.0820412813264573964611159,10.6119275624863043105961,-0.119725632039350979307635,-0.00888373614079830502265889,0.952275767153902386041864,-1.92780727452352063089336,1.86009594956949686483938,0.295297091327363758761493,1163.30739355621130926011,1149.43569014677996165119,1156.6777384100148537982,1140.60701832896415908181,-438.194716935051701511838,29.0900440701535885068552,255.223976862772644835786,621.276641114948802169238,163.067434288081841486928
0.239999999999999991118216,-0.0215129790968046352706011,2.29559650587667452015239,0.578359965536275888453588,-0.0357029385312749164560486,0.206589207097526594836268,0.00776968877651164607084366,-0.00140980342974490508063667,0.00147992688189752083678663,0.0175129910855835527194735,0.99984377299984827924817,0.0722914025577460206406499,-0.0803911348242723616808192,10.5947540364508139276722,-0.120316070314778977845549,-0.00902083454701746272064167,0.954036166927287432315552,-1.92809315825054339299527,1.86005370771668165907897,0.297658492273767782965166,1162.00363547110441686527,1150.14541545756856066873,1157.18063132897668765509,1142.21363680388822103851,-650.267999121391198968922,574.920865199240324727725,97.2772292661379651690368,701.85438437647792397911,163.063260865046686376445
0.242499999999999993338662,0.219331287024427945553384,2.37155311745644148402334,0.383410932919555635933762,-0.0379678190915075861044947,0.21684096400970787055229,0.00565435082293960170757297,-0.00135585112419908671022029,0.00188133568047990618575527,0.0176020297357244726033088,0.999841680557726708578059,0.0620046845785431066655491,-0.0777012199023297822630951,10.5785648940300305298479,-0.120936735860224894856252,-0.00910524272117479299692988,0.955812039385603329222363,-1.92838196542675954781032,1.86000614884835391293905,0.300029238422480915016166,1160.05605356060436861299,1152.31029447277614963241,1157.16412455634554135031,1144.11629025084653221711,-751.569477065776709423517,963.054855495828633138444,-136.149541272925375778868,666.403787828766667189484,163.057955549610937850957
0.244999999999999995559108,0.435819062843222138070587,2.26360231724496019367621,0.302816357025388727119974,-0.039144843001573871588139,0.225108042051844620123902,0.0035459644752975504229664,-0.00130388604364456038228748,0.00227706514493182391248305,0.0176871270657036165629972,0.999839535448535210448995,0.0516250709109150190956328,-0.0743212540566329238345133,10.5631539915975434240636,-0.121572957959507940706168,-0.00915775633579061013045397,0.957607876741928598640641,-1.92867245327871716931156,1.85995682239099813237715,0.302408632664850962612491,1158.24578808577552990755,1154.9606897350477083819,1156.49988362261206020776,1145.54565574303205721662,-725.405415284875971337897,1157.93883584269565290015,-405.43151345213993863581,506.702831813026477902895,163.053295016116152282848
0.247499999999999997779554,0.643736487603642770771728,2.01207991128945273828776,0.304217248738066492474985,-0.0379888813804293914988541,0.231572197408838331700309,0.0033536108487430245708727,-0.00126364266553394776447516,0.00265984507934961724590073,0.0177576379980487059073724,0.999837528804391251213701,0.0414115312491713377651692,-0.070539709055981003604785,10.5483104603476736116363,-0.122211112455357553963076,-0.00919474657256569641305965,0.959425596068683939066091,-1.92896276114771780818558,1.85990929600049059722267,0.304794979545474686855044,1156.42902648417998534569,1158.09998865198963358125,1155.13696698908483995183,1146.64980440991166688036,-758.606487765700194358942,1397.41066033998208695266,-734.194742201543022019905,381.214214354394812289684,163.048396649877361141989
0.25,0.832176470549261249054496,1.62706397902757293749687,0.356380376074506344252768,-0.0341319929885545852998874,0.236556437726466728399544,0.00536124365231870070314102,-0.00124002464169712376708399,0.00302522379211051526196052,0.0178049105039595999266933,0.999835823588967276265294,0.0315671106455217981290318,-0.0665606807825359914065899,10.533827527886558073078,-0.122842542575240201707665,-0.00922614038126366199643602,0.961264554432891826785124,-1.92925152423858281558466,1.85986623694591846067681,0.307186670248080440082106,1154.45275564694702552515,1161.947743036747624501,1152.82890991160434168705,1147.45172681480403298337,-664.140328810980804519204,1358.93258324322118824057,-923.971199727292628267605,196.709516894406817755225,163.042257298985788338541
0.252500000000000002220446,0.910282065271185714117053,1.30540293571077392620339,0.409657967706836600996212,-0.0302544933161564659485077,0.238680285099499261969314,0.00753203333480156195234301,-0.00123620843949305645598225,0.00337003357853628542767366,0.017826945031949665426696,0.999834468063764192358178,0.0222674425816123747190467,-0.0625647825386598660513116,10.5195106071997148688979,-0.123460746685050345994306,-0.00925972760688592577693612,0.963122070258244478146992,-1.9295388010753546925713,1.85982903906028229634728,0.309582611777705851707765,1153.10832484012507848092,1164.8946515682057452068,1150.51711099044837283145,1147.63335199438370182179,-450.114477517808666107157,1061.76566259837181860348,-958.450044238542545826931,-23.2532314494619427591715,163.036934245778155627704
0.255000000000000004440892,0.900666572790028041595178,1.05040169496878710297949,0.453352353744338021357407,-0.0271261560667586283657204,0.239544935267732184147604,0.00920864081555928387645693,-0.00124961691907401182578818,0.00369227691716464499066541,0.017825461235585770419787,0.999833449200661084077524,0.0136622688329215632996316,-0.0586190225799644859527859,10.5051853644404502574616,-0.124060784425769968231101,-0.00929324900088621987104265,0.964993570832625158217866,-1.92982505458149589117056,1.85979736953013730094142,0.311983774248171585874445,1152.2021832593579802051,1167.25657134973948814149,1148.03665969041162497888,1147.335460657556723163,-277.567002502109744455083,816.172148312215767873568,-987.99704122029561403906,-183.225481359931848146516,163.031410177400942984605
0.257500000000000006661338,0.83202631426683382187548,0.880142042235417032536304,0.486896937912144334159592,-0.0250126835445768080923301,0.240005972593148153571008,0.0104137871990208075168027,-0.00127585196452178334380889,0.00399613587418374670984234,0.0178055434664767427144216,0.999832675070672305395192,0.00576632061670111911722003,-0.0547530361538912102581378,10.4907039353626725386448,-0.124648913345511064276749,-0.00932092550721769913524284,0.966871266495234138460546,-1.93011110063309665463294,1.85976971461328233203858,0.314391479819224772818131,1151.72048982761452862178,1168.97551230976682745677,1145.57712578434689021378,1146.71722458758404172841,-86.576142133389950572564,517.068618502434674155666,-948.778523175905434072774,-297.642988902725562638807,163.025729548146756542337
0.260000000000000008881784,0.716319619873499346951462,0.818562183678224308813753,0.511304534061270299361013,-0.0239732380206037765102423,0.240592621860303890191091,0.0112820414121348987224192,-0.00130709076419846786237811,0.00428716528397131858146851,0.0177747154700761481049831,0.999832008905838010015543,-0.00144113948027483479430444,-0.0509231145871545734515884,10.4759513814436200362934,-0.125233205074276127133359,-0.009329956576555898870029,0.968745507962064711371397,-1.93039690630827909245681,1.85974488327995146619287,0.316806208969423686028222,1151.76930254869103009696,1169.84191444225166378601,1143.29276707453209382948,1145.84724571304309392872,130.877276081036939103797,194.169715706220642914559,-937.031657918850328314875,-404.41535056447685292369,163.019871205712860273707
0.26250000000000001110223,0.545344602140988010674505,0.84676490768728696068024,0.53113794579166395681824,-0.0231599948060641387670433,0.242187634066232920782014,0.0125105356084391928367383,-0.00133775269631164700837034,0.00457396117706231411514928,0.0177418370272724446046197,0.999831272689993721947133,-0.00805563664254687478161188,-0.0471270567885829494425565,10.4608503566659987171761,-0.125826925935928313204926,-0.00931113620282666629157653,0.970604512156906351627583,-1.93068254167025177281403,1.85972144103378855817255,0.319228098628118017732191,1152.37487620801971388573,1169.94636088829793152399,1140.89196749475263459317,1144.69514783476165575848,290.500420913349159945938,-91.0481988224090912353859,-807.997817203521890405682,-417.034207762025801002892,163.012648485261536279722
0.265000000000000013322676,0.380457109805155013759759,0.923324207719306677688564,0.536667996496386190408145,-0.0222470439175522678720842,0.244705013552935585208203,0.0137494581114739455179885,-0.00137029518787051525843812,0.00486093744575369531013553,0.0177129074486100795970955,0.999830341820190038326643,-0.014100551417516517249684,-0.043524929234513648479421,10.4453659313566316058086,-0.126434633460841966412502,-0.00927113898126593824478014,0.972436368811397056077794,-1.93096831300722193702768,1.85969781759186592040578,0.321656657242665566798223,1153.22180465325777731778,1169.38667344813961790351,1139.25277798851448096684,1143.76207467423296293418,371.518629079855259078613,-311.411001595933782937209,-562.151415435936996800592,-347.761598166243572904932,163.006477228903435161556
0.267500000000000015543122,0.188368520629356106521612,1.01495110141465438857722,0.524700147264989480433428,-0.0210798434078157403970266,0.248359062866423618842759,0.0148700759439979318665692,-0.00140880922427950557376808,0.00515048032633233076466039,0.0176928523440916252162936,0.999829114954177700091975,-0.0195723284296871122278638,-0.0403011715811588747127026,10.4295084775266211352118,-0.127056098359042357603954,-0.00921961083314763382712265,0.974228994564292682944995,-1.93125503834742606734665,1.85967322303315918397004,0.324091905352356601799357,1154.23246935341899188643,1168.38930588031826118822,1138.08121041757294733543,1142.95633984393043647287,432.382745773565659419546,-480.65884500365382336895,-383.995833228936703562795,-315.271024124194525484199,163.000156430059888634787
0.270000000000000017763568,-0.0752233414894115937077146,1.11451813959475987125813,0.48088321380292897710973,-0.0200097513272603395872995,0.252773914203675620360201,0.0161160590733696387766294,-0.00145741762624330669154138,0.00544909385042969228452048,0.0176854424480194366564589,0.999827489173573447089893,-0.0245697064044813132110967,-0.0376268780565753580003019,10.413333752945161947423,-0.127698291640103572808229,-0.00916599165329999056306409,0.975968932150753309961999,-1.93154388075359562115807,1.85964702026444461679944,0.326534489899185986772068,1155.38371838212560760439,1166.98337922312134651293,1137.33279882236979574373,1142.18571955361198888568,377.315941687038161944656,-511.838664254264131159289,-150.058828826922621146878,-251.103205339222540715127,162.992406826345217041307
0.272500000000000019984014,-0.314705247378326724572162,1.18626246362735732198246,0.410675058249922064756987,-0.0198550060684490083107168,0.255708185703481305495188,0.0173870524833024397981518,-0.00151801412464930567287891,0.00576077634890067788453472,0.0176892405433188883157047,0.999825467977400572650026,-0.029155543779934449399871,-0.035613945828944823523976,10.3969431505532803328151,-0.128362601509096146967792,-0.00911655642426735177141772,0.977643449857681035020107,-1.93183595461636237189396,1.85961856008786896587992,0.328985338173439556541666,1156.11904906185418440145,1165.83011255904693825869,1137.33091627343833351915,1141.70082381723432263243,214.163843269352383913429,-422.013145405525904152455,134.91958837512345326104,-167.894331593197279062224,162.985816530541541169441
0.27500000000000002220446,-0.554106945072958989584322,1.25459912686342756060753,0.29467524887954849033278,-0.020896035325268548510369,0.257853672064311034706208,0.0188284340516729348236069,-0.0015917574273334319460288,0.00608911289975683656799932,0.0177022216280645176833541,0.999823069400782249438464,-0.0334014239002041815607136,-0.0343441674235177366036886,10.3804809402090452152834,-0.129049415106386677898342,-0.00907644847520759114056776,0.979240488344923054597757,-1.93213146130950130796577,1.85958754365641509842533,0.331445016918068990907642,1156.45453759847237051872,1164.87331349609371500264,1138.00739676424541357846,1141.34624789564600177982,50.4034765580399408690937,-332.067720478152921259607,374.459889324179698633088,-123.194490466448655752174,162.979093581273502877593
0.277500000000000024424907,-0.773646771900256990939226,1.32327703667134133347361,0.137384019187447609100516,-0.0228588080055573995841289,0.259812911663287182673088,0.0201183269922387795991536,-0.00167369791971103132333099,0.00643125012398480192660211,0.0177200356294530438072687,0.999820398160334522508208,-0.0372603668316114841618791,-0.033759204773741828542466,10.3641313662039156184846,-0.12974658019859194868495,-0.0090401569290086865315903,0.980750975208356301493495,-1.93242959870006414391241,1.85955533295220098999323,0.33391341427050308388047,1156.37106644464438431896,1164.16977395665617223131,1139.20321572005923371762,1141.08485136490207878524,-145.56117584020270783185,-208.448974916973185145253,573.789855122913195373258,-75.7485063419607485002416,162.972263669983334466451
0.280000000000000026645353,-0.948010573794574984418659,1.38183930971112234331599,-0.0633247284166496005042291,-0.0254053711301128817834361,0.262358551242322768359827,0.0209479365837202807787421,-0.001759962442313309357797,0.00678254173393303110700669,0.0177395571196548446080143,0.999817548750117857103703,-0.0406652471302843057654464,-0.0338074808219280542598284,10.3481121918020750882761,-0.130439207953854857668929,-0.00900483694466414075208149,0.982168180561793668914561,-1.93272966615498686948627,1.85952366711252947695243,0.33638937202925967007161,1155.72673171927135626902,1163.83106862150884808216,1140.87634603985998182907,1140.96750536393619768205,-412.718612841035451310745,-60.6472511949049817303603,786.307512135908154959907,6.59146133730245598059128,162.965308737483184131634
0.282500000000000028865799,-1.08617626668529387856665,1.40935661262363787216145,-0.331190461394609281242651,-0.028658075040930687527041,0.266660497938573992637856,0.0210875188071431469982731,-0.00185506587314354892508106,0.00713111902978520034723786,0.0177557464792886497695346,0.999814680917453735276013,-0.0434176143416657098206279,-0.0345966913272835879800127,10.3326686981289181943566,-0.131099549565573486598069,-0.00898580741549934863821036,0.983489602894042524994234,-1.93303046520838672783782,1.85949386013501993808461,0.338871105333974298456923,1154.30747338043920535711,1163.86653770068164703844,1143.13475328073877790303,1141.11780867158859109622,-615.364776245586995173653,83.4471815830510621481153,815.255389186312868332607,130.457584726445816158957,162.956824024826119057252
0.285000000000000031086245,-1.13344620950051688801352,1.37072234727632635831185,-0.550371529373096635140428,-0.0315578448196968189276568,0.270941536427969864586629,0.0203580091373257963949239,-0.00195997990502715449534499,0.00746521976823622153418558,0.0177670432945163658811083,0.999811901650801360119658,-0.04533277653583291794126,-0.036143225772750670055089,10.318064024949784140972,-0.1317012353836251592476,-0.00899144957220177412637874,0.984715794256946441720402,-1.93333099851732392870929,1.85946667453262115543566,0.341356882819403462114849,1152.64990783804341845098,1164.24830452942410374817,1144.95262298579154958134,1141.61979328756842733128,-731.642575147133584323456,218.656652420759002097839,645.556902483621684041282,310.927361754192759235593,162.949642434181129146964
0.287500000000000033306691,-1.10418910569042405533935,1.2472440345330837452309,-0.726187434181822188961064,-0.0346705887901121029281981,0.274928731816193760995048,0.0186731070049090883133935,-0.00206975584074506595982923,0.00777403259190875568079848,0.0177766289800870488924112,0.999809243908406086731588,-0.0462530766880764818149707,-0.0383239056891158183515422,10.3045697500138206947895,-0.132220954615375418939038,-0.00901783042061902670449847,0.985850392245880557950954,-1.93363047546791433362046,1.85944380901897043933957,0.343845179799638023254715,1150.64926050470353402488,1164.95982096278544304369,1146.3625377931568891654,1142.67244548035955631349,-911.0557391080967590824,382.517038651716859476437,458.548179577387713834469,614.613911138946491519164,162.942351792254328302079
0.289999999999999980015986,-0.980713867471847411394492,0.995645215190981258679415,-0.83990535685768363816095,-0.0382309895721926890077569,0.278538914147223926054409,0.0154644351562426562995967,-0.00217570311183615293718074,0.00805197302972377945695648,0.0177909074550381858526027,0.999806653718054771928792,-0.0461331917381708270231577,-0.0409214191519587169865169,10.2924553069814486150335,-0.132646893920514374887176,-0.00905267859464555305071265,0.986898922744414930363632,-1.93392791384318418757005,1.85942733511853930394864,0.346334832681797377684774,1148.09462914250298126717,1166.16088972268266843457,1147.24536388367846484471,1144.692862843263128525,-924.352580746208673190267,497.218199423792214020068,158.290676582739052946636,871.213017837553479694179,162.933484888118357503117
0.292499999999999982236432,-0.810552485727937366277729,0.704103182679881922645393,-0.825761842996762918112097,-0.0408423100039181502518559,0.280472259994194006438306,0.0119288917387696726674085,-0.0022734728344975451905241,0.00830356461165438972105157,0.017811419930251638082952,0.999804074065935299842067,-0.0451395668637318628335642,-0.0437914316989279905900645,10.2819771010055038829023,-0.13298841347713588612045,-0.0090924550859281041970128,0.987867144193535828833319,-1.93422381996028436290658,1.85941685365817099828689,0.348826817181225712349857,1146.02749760097253783897,1167.44591195990437881846,1147.15399117607057632995,1147.02851056954727937409,-776.211126566294524309342,576.687713845148550717568,-213.488783440425123671957,1057.70135298821423930349,162.92600370094382356001
0.294999999999999984456878,-0.585680392221436862953965,0.333965158927841343494691,-0.685043940544307061735196,-0.0428441917670086686031894,0.281424922695935664229694,0.00816005476491926499960083,-0.00235837913894555023519573,0.00853660785449134387747883,0.0178378686446188650105427,0.999801457338993948553707,-0.0435040312680257737487644,-0.0467707250759374568160887,10.2733707181045410550269,-0.133262292111073127331977,-0.00913179948336627703153745,0.988762828832796092370927,-1.9345189754561760153706,1.8594105993961806966297,0.351322733603176950989422,1144.21357350967150523502,1169.04432829190841403033,1146.17791996647633823159,1149.98136960820420426899,-667.839962271136187155207,695.318466827301904231717,-516.784263220597040344728,1263.64389367713442879904,162.918435116443703236655
0.297499999999999986677324,-0.331827351918238866446131,-0.0991135501840284399710512,-0.451174833532451247108952,-0.0439540701695046165387026,0.281654334298066022501672,0.00499038452374517965681733,-0.00242388073746850141523823,0.00876644266599447934129596,0.0178703449171007874851647,0.999798688893074216643697,-0.041607813631586894331793,-0.0496473640567440810400512,10.2668415686848941703602,-0.133501012281555114791232,-0.0091591097405637582340443,0.989594716612028690860825,-1.93481271443115043773275,1.8594059493895447321421,0.353820702973358269805004,1142.68829778961685406102,1170.92250429404089118179,1144.57006985996758885449,1153.34673003793295720243,-541.409415867201005312381,819.987201256798698523198,-748.131078995810867127148,1411.99529815889809469809,162.910800465470714470939
0.29999999999999998889777,-0.0652174925680249206738637,-0.608245525907157302825112,-0.147822667158463261216639,-0.0440101582034599092541072,0.280961127980576708118576,0.00340569337036145201175197,-0.00247075146214885453879728,0.009012883757935010939355,0.0179042802887788600474384,0.999795677028365581406888,-0.0399196811422681610559415,-0.0523534416968484683785334,10.2625576350002916115045,-0.133746868046329847601328,-0.00917570697079251977601455,0.990373137763808863986981,-1.93510401511384877437649,1.8593989174928144958443,0.356316745715048233122957,1141.50652643033549793472,1173.14426429819241093355,1142.43726457149728048535,1157.04134609899870156369,-463.596967361581448585639,1049.63058709072265628492,-984.871411434504807402845,1651.06639568202672307962,162.903093905340767832968
0.302499999999999991118216,0.245417286061776485084351,-1.30619009148093434546922,0.21605519527471117591233,-0.0432689055963768470780551,0.27876284195174128033301,0.00386592975972005307994106,-0.00250000854455263666828446,0.00928804726841127824277233,0.0179389862433266544794463,0.999792325366156253707572,-0.0387422397178879343582203,-0.0548272212424396609975474,10.2606457091688731964041,-0.134027520239113240307915,-0.00918028087270722666091149,0.991113094276458994613677,-1.93539242028100733072904,1.85938627036444703577445,0.358809019766046954913463,1140.37031295280894482858,1176.17065722949450901069,1139.64571280279506027,1161.60206201634309763904,-393.803726097166531872062,1157.04984812846191744029,-1007.25363771853062644368,1654.85235360142587524024,162.893772842742464490584
0.304999999999999993338662,0.484673974345670943719711,-1.95510112253099532786393,0.456236302682456518198251,-0.0421873087932245552367228,0.27549167476081054539705,0.00618177859376556424614302,-0.00251226868011216646417449,0.00959829330087021495576671,0.0179760166060534895549061,0.999788553208931229931977,-0.0382513369466189676049162,-0.057002555181255798455453,10.2611862200299519543023,-0.134359453820827368097923,-0.00916856755687392097065036,0.99183301751635655207906,-1.9356782828539478291674,1.8593671739948547383392,0.361295321550549441980138,1139.53750779984966357006,1178.9295135388347262051,1137.40099638290462280565,1165.3156078670058377611,-332.404763877911761937867,1129.35479876227782369824,-822.445191617043064979953,1424.73067787550326102064,162.885951520903660139084
0.307499999999999995559108,0.694932088618185894723922,-2.65922179261496971491852,0.571730220652504228517898,-0.0405616914666030170533162,0.270536093489417650559403,0.00989846932155036621225896,-0.002508965646604416430826,0.00993938226899420719517853,0.0180126444718119865795458,0.999784455827789186876942,-0.0383968915316621126065932,-0.0588382773219774460327081,10.2642114105953083935674,-0.134738000865949308915148,-0.00913848084267131904878667,0.99255497456320174176625,-1.93596253898720749297979,1.85934246480931619771582,0.363774057942706452450921,1138.7082891334193845978,1181.81743122330590267666,1135.5334868447098415345,1168.72571540572062076535,-368.560940048109500821738,1264.58898487480723815679,-679.61460888823182813212,1391.83035272676420390781,162.87808300196260802295
0.309999999999999997779554,0.908326088665428743595953,-3.53820776081160470738496,0.540232869946752014556068,-0.0379025578454474515455175,0.262681320314156974138342,0.0143788466083287630459253,-0.0024936412190811191313955,0.0102981446885691222542514,0.0180439266659935537706616,0.999780255080968793812701,-0.0389372515003176614123426,-0.0603458518311296016056744,10.2697045892021616708689,-0.135140470670087914362156,-0.00909304118031697625190723,0.993302900112858044856523,-1.9362456322464094427005,1.85931309134986855191585,0.366246619645747950588799,1137.69470309960911436065,1185.25245846320876808022,1134.00292333846346082282,1172.27475963063966446498,-360.675374577885690996482,1225.01723593272686230193,-413.068951038667023567541,1193.13499883137296819768,162.868596249889122873356
0.3125,1.05329529654342390898591,-4.26654716347535956089132,0.38803802516771518371641,-0.035355545490934697783203,0.254201682681170604283238,0.016842466902213418938894,-0.0024723125664507911679324,0.0106502399935505063371943,0.018061516672575071706941,0.999776344141482531391318,-0.0393927270884158672870079,-0.0615988655079342251053021,10.2776025855158330557515,-0.135521521933987088015527,-0.00904230064447184185560946,0.994101909218798596157285,-1.93652727219795250945822,1.85928059014324698061671,0.368716482229573705442505,1136.90491226052995443752,1187.94251740296954267251,1133.46814208951650471136,1174.69139039987749129068,-273.89323036136352129688,1006.66806593499040900497,-39.8533131578005495043726,846.40118620304667729215,162.860660890683334400819
0.315000000000000002220446,1.16788827472086254033456,-4.93790407931416375220124,0.155302100729152153801849,-0.0327734995289840277954418,0.243016402094489658569643,0.0170889184239370016393789,-0.00245128656581762192565033,0.0109690316400876640423601,0.0180613236253872530556741,0.99977306763169759840082,-0.0392265551636101703070203,-0.0626854716481231033498034,10.2877982456888954487795,-0.135830656802661098314644,-0.00899736416157918307556773,0.994975002148485665465216,-1.93680741076049911519874,1.85924733709587242103112,0.371188007072608405767511,1136.32523694780229561729,1190.28579879288372467272,1133.80365677267445789766,1176.50676556165490183048,-172.88372049761150606173,859.6374893142630071452,280.047750367975595509051,628.724878797310680056398,162.852703552031869094208
0.317500000000000004440892,1.26103227065517620175683,-5.51764527701296625394889,-0.0995249202925614778747487,-0.0302177347477466419489733,0.229590197202263285314316,0.015643783097456689934468,-0.00243563584678798024374391,0.0112405842883832821771373,0.0180430249905959849687775,0.999770572027116166680116,-0.0381532117866753769930277,-0.0636713648692710243448545,10.3001432363736640240859,-0.136041870585949048466645,-0.00896722807228918575295218,0.995938558616339064677447,-1.93708641764010436325805,1.85921508715260475064213,0.373662859272336889127075,1136.04049365804189619666,1192.24070484954086168727,1134.86838084135638382577,1177.83501479386404753313,-24.4484459673458118800227,673.113328576118306045828,585.476565625685339000484,422.65378302190543990946,162.844734566387529639542
0.320000000000000006661338,1.32948064548640232374055,-5.94132774109283090524514,-0.341585285309882691340277,-0.0274633216781084085744702,0.21443787899130728469288,0.0134732367084668021306459,-0.00242707708557544964492192,0.0114597872570495265542867,0.0180060123178916765829261,0.999768926295435789164401,-0.0360599977829522341798985,-0.0645566608020139154344719,10.3144559062135758864542,-0.136145798509407889298473,-0.00895569087211984561636147,0.997003347850359045168034,-1.93736504802480502540618,1.85918501635005450900451,0.376141378535340020761168,1136.20299471796556645131,1193.65136543576431904512,1136.73103960080288743484,1178.62003447676443101955,175.259840362787002732148,487.873840766587363759754,961.581185675276174151804,233.237840776609829163135,162.836759044173305710501
0.322500000000000008881784,1.37762978007943504010768,-6.2341219237434497557615,-0.597941221811097101124233,-0.0235682202287761030645719,0.195609487819933342001022,0.011390780231166994923564,-0.00242789297263415861441449,0.0116295963260422893781332,0.01795349164740532577067,0.999768042162076930878811,-0.0329957665905142236151271,-0.0653562055484512016700904,10.3305291678878763406146,-0.13614846952808004609814,-0.00896792598436949722762179,0.998174731898645806182913,-1.93764378278029059110565,1.85915876906035504312342,0.378622702535154620484548,1136.91679285985583192087,1194.68007405337380077981,1139.676286769732769244,1179.00120399774709767371,331.530830961901017417404,269.410017073096014428302,1155.34632786448014485359,55.0459684237011472873746,162.827189816127003041402
0.32500000000000001110223,1.38287923392346656648044,-6.29022167160071443703373,-0.78486675001219108338546,-0.0196707788936985907002342,0.179937807015715295344549,0.0103247182591575479421175,-0.00243557675072833372531544,0.0117565328053903239702294,0.0178932635589405461540302,0.999767721752325866368949,-0.0290792076112929356868086,-0.0659901987121646882439308,10.348140314407913820105,-0.136062294291058399897665,-0.00899928187537267672280183,0.999454066617830427787794,-1.93792209796871151006314,1.85913795418944927106963,0.381106213469118326742091,1137.86064887277507295948,1194.99841552112980025413,1142.50777124012529384345,1178.89526431888293700467,417.378860662074259835208,26.4381503544882185963161,1153.64795935583856589801,-120.975472454392615873076,162.81922264611750961194
0.327500000000000013322676,1.34913805586132462543958,-6.15630689240915707216573,-0.946363789719044223858191,-0.0153601814853700537055747,0.164539677194787570257972,0.00959705201868623486438636,-0.00244431867359539431797111,0.0118513924785244913889803,0.0178371706823416027731799,0.999767653488629837177371,-0.0245169936160412813008769,-0.0663139370073411033024158,10.3670594916408624897031,-0.135907663014228546893847,-0.00903763116204354087501738,1.00083844019353818133311,-1.93819983451719091149812,1.85912240909943893285572,0.383593630727277923320173,1139.00368716316620520956,1194.81226480514624199714,1145.44452656651196775783,1178.39632663547513402591,464.487649496777123658831,-144.857414659236241050166,1152.14831170560387363366,-256.935747577062784330337,162.811269550213239654113
0.330000000000000015543122,1.2910313924423775233663,-5.87605837587419532752619,-1.07673249928526826302289,-0.0113764633571018583535484,0.149534571966159851585942,0.00823752100944826620709804,-0.00244743203891847112968483,0.0119241219333830177767863,0.0177949542565863441656582,0.999767574510492695871733,-0.0195011071453537257469613,-0.0661694172151076898114042,10.3870587162816558901568,-0.13570279353036163172419,-0.00906911216967963215718207,1.00232203018248711146043,-1.93847658281192458673559,1.85911122580232346379603,0.38608712612092022098409,1140.1830871202589605673,1194.27412844783361833834,1148.26851279865331889596,1177.61058558099762194615,458.752821376310350842687,-277.2904776230914194457,1065.66923152472463698359,-370.716167427917412169336,162.803332676416260937913
0.332500000000000017763568,1.2269141278507031955769,-5.44095458757368266589083,-1.13927314470912977029116,-0.00899329808266989202958364,0.135519797315303086593374,0.00525178840463978290759028,-0.00244446014769533195507001,0.0119877385296604296177625,0.017771452369162908657696,0.999767253625148732965044,-0.014294756390256173339548,-0.0655319493943891662190993,10.407918140086307445813,-0.135471835520183186973853,-0.00909222368471817275759062,1.00389514211815678024209,-1.93875282033354068289555,1.85910182789654121471301,0.388589767808800889969945,1141.2974512700477589533,1193.42581241703078376304,1150.77287272413559549022,1176.54274579833554525976,469.192331190378865812818,-406.434173431761905703752,1001.17373904044961818727,-512.960011858467169076903,162.795420447743367731164
0.335000000000000019984014,1.1731569784930906408249,-4.77779353161302022812151,-1.0911824627410555699214,-0.00806765802655558250666701,0.120706116224653006718803,0.000215833168581665464647035,-0.00243779160300242134923332,0.0120531449674877860767097,0.0177637635723491074668523,0.99976661142869793774679,-0.00912520212994982066190275,-0.0644433155349338343542698,10.429433396841258030463,-0.135234387529266697480779,-0.00911151405934267424879813,1.00554630017278845421913,-1.93902848790450876848013,1.85909183057221971679951,0.391103091961147231181428,1142.52904877621085688588,1192.24195758067480710451,1153.27438149385557153437,1175.04578552170528382703,446.661124157617052787828,-429.391119323599525614554,828.996285645143188958173,-564.556721522557836578926,162.785960319024979980895
0.33750000000000002220446,1.14982390078198393190689,-4.13939856469003064631806,-0.928941853956280261250811,-0.00723938744754601664482818,0.110162023194077751675479,-0.00408009686377379734989468,-0.00243141594609810017535434,0.0121301868462343892529631,0.0177684923808036909775865,0.999765584499669013318623,-0.00420641816509224192310867,-0.062987831793170231953205,10.4514202113955914086318,-0.135007747379356585204491,-0.00913317411449875507511997,1.0072628818887627843992,-1.9393034881401363112019,1.85907931845861473796333,0.393627006720385974603005,1143.53075689083584620676,1191.27885682041278414545,1154.91785415236131484562,1173.71996219072275380313,423.946217906358981508674,-343.986721383316478295455,576.293739095307842035254,-518.021886665928377624368,162.778109861877993580492
0.340000000000000024424907,1.11661864202364125020495,-3.44866575550320497711709,-0.645270287799603603495768,-0.00461177894616043339282019,0.101394198299182780598215,-0.00739270981052800833788208,-0.00243085589429284029683309,0.0122242784887348250599803,0.0177838862726443190653836,0.999764128435832399866001,0.000330976239032672314710481,-0.0612941464250080850217905,10.4737178128117029984878,-0.134800221262282415857214,-0.00916475308066698121645111,1.00903300203223378339601,-1.93957778496002775092677,1.85906317633454865045906,0.396160306973516063155927,1144.64877986574265378295,1190.52202397375822329195,1156.15585018933211358672,1172.45567608837563966517,552.413387925116239784984,-256.984856830149283268838,477.209483720980244925158,-504.480065161169022758259,162.770298866806939486196
0.342500000000000026645353,1.00680667093914721910153,-2.59695581493420535323935,-0.206033688396604242054622,0.000708356342607871372965556,0.0928789624536758007256054,-0.0100078154088487861900214,-0.00243985713803210151062739,0.0123349638038153571611977,0.0178077113100285101821019,0.999762281573765898556871,0.00447187528375058568341771,-0.0594674505166327485583544,10.4961903911013383350337,-0.134608100875428682297041,-0.00920952482793349104517322,1.01084683635470118368005,-1.9398519804797682564157,1.85904282661622755057351,0.398702138119951143835351,1146.29282383046142967942,1189.99393253626203659223,1157.30390157096621805977,1171.1975618649169064156,668.06100249818825886905,-124.226130215492844399705,388.911824651358642768173,-389.829567574633642834669,162.760977973453236700152
0.345000000000000028865799,0.827126668472787485164588,-1.8928099404236169434057,0.19345678555022446931666,0.00603546426236351279265291,0.0872816310782730392370254,-0.0107207097961102022082303,-0.0024603251523705989625701,0.0124563130351477389934356,0.017837194952285990307006,0.999760162443235733675806,0.00830989994173491480777827,-0.0575880655737221122669744,10.5187263954232470553052,-0.134416516390464674257643,-0.00926692259097597510753008,1.01269720611600178017397,-1.94012696259502970264066,1.85901820634796188791427,0.401251593730218680811106,1147.98908487823359791946,1189.90089332268075850152,1158.10040931258890850586,1170.5065282505024697457,745.034081233233564489638,23.7735917602094346534614,314.763188092228745063039,-172.624793815930246410062,162.753259468905753237777
0.347500000000000031086245,0.562699655036338342029012,-1.2238684038888667515721,0.554339876085955363116398,0.00990979210796390404258904,0.0832923323230497919533732,-0.00906058312330397346012756,-0.0024892646504654281948421,0.0125804662134451593347162,0.0178679563661450387102025,0.99975795361822050733025,0.0119758042769179742781382,-0.0556447981449785106233819,10.5412362288923269204588,-0.134206651210844879473782,-0.00932704112871852661359462,1.01457922442314418809417,-1.94040232886458929861817,1.85899092762108497645102,0.40380747816177298137319,1150.01799423662760091247,1190.11280049506308387208,1158.87771751142736320617,1170.33443789583725447301,850.103362348271843984548,117.645460698395154963691,325.945200251589710660483,31.3709241934702447451855,162.745598616235213285108
0.350000000000000033306691,0.267691465239282611054961,-0.609045561815960811991033,0.827923525722183639707907,0.0111906550878292810474735,0.0809510072046938505829772,-0.00534719023682327359442423,-0.00251994641593194287215729,0.0127014988679547344285758,0.0178962650776260147333918,0.999755811583288633848099,0.015556999214680587717563,-0.0535564456103500494132952,10.5636485658761660744176,-0.133963919954401822209888,-0.0093727360010715451976715,1.01648958915752563036961,-1.94067745390659296411684,1.85896247362060829111385,0.406368737324571571711829,1152.23960168997496111842,1190.48912062617273477372,1159.73013531384685848025,1170.66338287146982111153,898.526408502684830637008,167.439950247718911668926,371.110807077961169397895,254.307857660162738966392,162.737991146379869178418
0.352499999999999980015986,0.00266477651561203288110846,-0.0927089283015921361563727,0.95104821163501429559517,0.00967053630977013009561993,0.0807786236461236484274195,-0.000351580726852610860044823,-0.00254574069383653022596858,0.0128178496387028693220822,0.0179170180019608930865882,0.999753862891068489915369,0.0190458965780870639883382,-0.051249236451371811551514,10.5859059218787159295516,-0.133683287400495176555637,-0.00938807760305900018682479,1.01842602540625870588542,-1.94095214412282235372231,1.85893333653024117602115,0.408934825364128562430466,1154.51062627914097902249,1190.95000024630166990391,1160.73327154681715001061,1171.60597718413805523596,952.008368092502450963366,202.26025923125442318451,474.629763176294829918334,537.012320543641180847771,162.730455372976734906842
0.354999999999999982236432,-0.212393644266131914610796,0.375933114619179109539004,0.916041607170448024533016,0.00670363745562993842974642,0.0825126177578042324656238,0.00480731307498897045271669,-0.002559605909304694427997,0.0129327513288041082151203,0.0179295707273287169281062,0.999752095010073005276752,0.0223319959122670538831379,-0.0486447811313121536436199,10.6079601308896265265957,-0.133370469746155545509581,-0.00935604769592109260234469,1.0203872360745203096144,-1.94122617184251011757112,1.85890356898727548973227,0.411505298415763998143291,1156.9996435304374244879,1191.50042192232899651572,1162.10328412972830847139,1173.34844447418799973093,831.511509900791907057283,195.990710490695903445157,516.922340197379071469186,712.471111682497621586663,162.721505569198427565425
0.357499999999999984456878,-0.28466668149801294118717,0.625588389154734247910028,0.762950664905039821483967,0.00449035528335165346619506,0.0847917929273349496588352,0.00755038129153870907900314,-0.00255410984099619167708717,0.0130550826197864244110347,0.0179364380324326423699066,0.999750368649433895917866,0.0251850218711090825807197,-0.0456574577506570766782801,10.62976755228637770756,-0.13304388406155648327811,-0.00925898246340949027111122,1.02237262108187776377122,-1.94149847802406050334412,1.85887402936886281246132,0.414078530115189136218135,1158.66818382864494196838,1191.92995379875515027379,1163.31788324780404764169,1175.1683327425505467545,547.748933004276750580175,168.536644069808829726753,475.658642580446723968635,760.127472292287393429433,162.71413294673195082396
0.359999999999999986677324,-0.253390422839593842940786,0.729438161903244508543764,0.538208209942429349759152,0.00307231598722159000847132,0.0871900013136127360890981,0.00861636350032992867631343,-0.0025268414651455511389655,0.0131915942174405352582678,0.0179429188681923916515171,0.999748510210804908204807,0.0274196499887443614906779,-0.0423097380053522598153393,10.6512848237410722163077,-0.132719060987727455191987,-0.00909010841448886983129363,1.02438399159147297545758,-1.94176793400869240890927,1.85884571816922639087011,0.416652792787244319328011,1159.73838819545881051454,1192.34310514267804137489,1164.48157734263054408075,1177.14908183564944010868,323.555933986017123515921,188.442751015054284380312,466.681020093028166684235,854.56740537770122045913,162.706858757714257990301
0.36249999999999998889777,-0.130552375470516124345011,0.705457923312825418982186,0.254235894865726841373998,0.00209938503239407185316234,0.0895947549242823298998317,0.00835932130139230636367564,-0.00248567024127016589218897,0.0133401232101854963496557,0.0179516394503855779285484,0.999746480444718477187394,0.0290409768350280220183812,-0.0388439819556496424013403,10.6724650157948062201285,-0.132394672081191266954647,-0.00886596071402257455973395,1.02642677725058106830147,-1.94203372599626877814671,1.85881867342039064361359,0.419228100528527991563976,1160.28596349857502900704,1192.87216755383042254834,1165.65128834826919046463,1179.44116976943905683584,97.100959688532299196595,209.801482963029940265187,369.251229620658364183328,791.734182646086310342071,162.698254628780432540225
0.364999999999999991118216,0.00993705208996720039393846,0.583262481884704420131982,0.0438137582965571828474971,0.0016841938383489508685581,0.0910021092821927668481408,0.00755857194150922478970145,-0.00244045217726874532834791,0.0134916739833973071960305,0.0179599002309021593681848,0.999744420658211230268364,0.0302069587653175028463259,-0.0355427843764580808638698,10.6932543493661356137636,-0.13205604327756209626088,-0.00860992200971022469957461,1.02850907220138676478882,-1.94229610302857125248011,1.85879324008064106266147,0.421805892435464180323379,1160.22389299390147243685,1193.39211255749319207098,1166.32783349073383760697,1181.107752748879875071,-83.7944733913899852950635,238.595272235170142494098,191.400539832102197124186,587.131193998856701909972,162.691196652735101224607
0.367499999999999993338662,0.146043084906879949702585,0.38139061828747511384563,-0.114074754785871534945585,0.00222058611372201886863254,0.0917979989122836709247721,0.00686147698241390720241828,-0.00239981164517033161362458,0.0136363219650725338988329,0.0179635630311393325320157,0.999742516553282056790408,0.0311063220443120111435853,-0.0326561187468618202567328,10.7135894465861056801259,-0.131686832955155541657888,-0.00834429804888504184079423,1.03063962475188186651565,-1.94255589778567205883064,1.85877045582265498779861,0.424386669055166476649532,1159.8669911316180787253,1194.06514391500627425557,1166.60829104742970230291,1182.37682573943334318756,-145.260503607687354588052,305.787144977921059307846,42.9100406036468129400419,431.202604852296246917831,162.684264646454067815284
0.369999999999999995559108,0.245825033826110511681051,0.129948681939760640746684,-0.221249791383370170150258,0.00397502894785759040147122,0.092218697180709977012647,0.00620517714957505035072716,-0.00236815948927653150551942,0.0137651259692810421647602,0.0179560600250691822232785,0.999740996652035307512563,0.0319200862950316036070753,-0.0303335596163679908909838,10.7333958216354581338692,-0.131272628358565623951648,-0.00808403552390729064625052,1.03282698299566555455442,-1.94281399585764935622478,1.85875002992585014460758,0.426970325106408254978163,1159.49759047586303495336,1194.9210482823827987886,1166.5423836937520718493,1183.26376577314135829511,-98.7202868738221752664685,398.139512201168713545485,-101.14976171093977086457,263.246097261935346978134,162.677444261575828932109
0.372499999999999997779554,0.275018427365413486995749,-0.165768514802151323284107,-0.26548926680910511777256,0.0064149773514793123271871,0.0921912383225842596568,0.00523055971945122783611781,-0.00235114204818649957101639,0.0138730270374675668243469,0.017932624930299827931135,0.999740002559524221226184,0.0327579812611290474566594,-0.0287383739855001443808113,10.7525874175060138782101,-0.130807125249110228759619,-0.00784654271597195682175219,1.03507822874168486926294,-1.94307052546199199305477,1.85873075082491046039479,0.429556774030341259607013,1159.37338969724896742264,1196.0558414760121195286,1166.10254223887500302226,1183.69305622574302105932,45.0739357869678798351742,571.344189366481714387191,-252.61334336378217813035,99.0456510157399918625742,162.670767173041411979284
0.375,0.225129090085083527483789,-0.553408432156623941722273,-0.249895690416880034145919,0.00845274050814189686908762,0.091487319577064046827175,0.00391766173411167619583528,-0.00234919904763508310963083,0.0139597882029685697868882,0.0178921692261532101764221,0.999739555745736474534624,0.0336404797894686927173247,-0.0279075387275388060726034,10.7710674313834893212061,-0.130293926642622182043851,-0.00763769073078671839605036,1.0373984696722671206004,-1.94332515235789915486464,1.85871212312776412645121,0.432146701618291495528013,1159.7229601547978745657,1197.77776922921520963428,1165.27931697693315982178,1183.75899402822005868074,218.052228364285639372611,688.390581902739882025344,-321.45677964663235570697,-30.7285897401015688501502,162.662931633111611517961
0.377500000000000002220446,0.131017879392625852252863,-0.888190778880058040556378,-0.18871580448252736617043,0.0089898477898809874692132,0.0902253927679380618442906,0.00305950696431474050349109,-0.00235844616781883493691896,0.0140238371182299023653961,0.0178387782202633279893256,0.999739613799998427801086,0.0346304303025039908470184,-0.0277715612725220641066048,10.7887305933230681631585,-0.12973388124029355816802,-0.00745337540779641115340493,1.03979204748880404984845,-1.94357755874993554101593,1.85869460086235527285226,0.434740953558559406477713,1160.46365083907039661426,1199.4977943855258217809,1164.49525834064183982264,1183.53941327704251307296,369.083280069480338170251,732.443215587090207918664,-291.626992165447234128806,-116.961316390643233376068,162.656557623210716201356
0.380000000000000004440892,0.0141522034596829118791028,-1.21075582286276173249462,-0.0950134144120326762372741,0.00876354004139739267698062,0.0880025257561080909152196,0.0025415711290483391365802,-0.00237624397178216786169491,0.014066704082226044736359,0.0177796410410073768559869,0.99974003292370172690795,0.0357344461423104789443705,-0.0282714219650780744508278,10.8054659743833685325853,-0.12913442156270224514536,-0.00729132279499385312082627,1.04226097022905705991036,-1.9438266052260992911016,1.85867901953049696750497,0.437339932681964638216954,1161.56837655514527796186,1201.43998530715066408447,1163.82118201610592223005,1183.17418744626684201648,522.324224301473350351444,877.639724009485803435382,-221.285497146072685836771,-165.606509199687792488476,162.650353881778585218854
