t,ang acc x,ang acc y,ang acc z,ang vel x,ang vel y,ang vel z,quat x,quat y,quat z,quat w,acc x,acc y,acc z,vel x,vel y,vel z,pos x,pos y,pos z,mot 1,mot 2,mot 3,mot 4,dmot 1,dmot 2,dmot 3,dmot 4,vbat
43.0675000000000025579538,1.48755166780818637306538,0.646143916478959301485929,-0.174689854018048540407193,0.0420114624314972331942108,0.0290715972410243647661154,0.00257769723475538472395874,0.0039528743138627130473961,-0.00552343179200760064917475,0.0245931650732732556829951,0.999674325002234298587211,0.0778891664456596022336754,-0.0283355504454756573773366,9.83431835183833058522396,-0.0238569363607218226652762,0.0295473447548817505503571,-0.000719764930097660472416154,-0.0067445813105382699387258,1.7694145180573093156795,2.58761422176132116490521,1119.59744236051233201579,1147.79850516097189938591,1155.85359948444965993986,1122.87519132268880639458,794.316319348766455732402,178.637481103532564929992,503.806361646153732181119,-195.998078783067967378884,158.592542924420570216171
43.0700000000000002842171,1.39386410290127393807325,0.633880660751647062589598,-0.215559500807118803455964,0.044522844982969968230524,0.0290888785099316093951671,0.00151763138220810237834224,0.00399356733195134917108193,-0.00548052709257615313503953,0.0245930686480775873015148,0.999674403312122983322752,0.0755669106563499615170088,-0.0286812283753248437045968,9.83549602007961532024183,-0.0238778829856836141698473,0.0295160531717411876717616,-0.000671422503530616802611131,-0.00680693135690311340590952,1.76948316702911490061467,2.58760708786139748127653,1121.81277949311902375484,1148.10762742490715027088,1157.08510270010265230667,1122.49883287534703413257,952.896251827453738769691,78.6424819685895641896423,454.875769671120792736474,-102.732508553711099352768,158.589958997812658481052
43.0724999999999980104803,1.3346717653914066392673,0.692696146504230059193219,-0.224492064427019327732538,0.0472236210987502999514298,0.0293153865963745596801004,0.000733639072314980298511466,0.00403993989891532345737346,-0.00543481026253418621901892,0.0245930249677389321794063,0.999674469297490708719067,0.0730869760398737133844094,-0.0286114244196444406087565,9.83675988296158543278125,-0.0239029982631228862799411,0.0294869765604747341436465,-0.000606441796299572277555157,-0.00686858101126104972355968,1.76955193161269530577329,2.58760045146481987288212,1124.36192361964526753582,1148.1917175708144895907,1158.12797833280319537153,1122.36152877992071807967,1125.06637526031886409328,23.6910692948974173077659,385.635099363692518181779,-18.2528015210570941917467,158.587399484932461746212
43.0750000000000028421709,1.28614729437834185432621,0.824047023683511015157421,-0.205766411646350261266392,0.0504602530188568709768049,0.0306317065562520911281563,0.000146848568514533939395605,0.00409059405911839455566303,-0.00538565636309840285733674,0.0245927705325569671834796,0.999674538569748971639228,0.0704495837684001868783668,-0.0281683852158361447415302,9.83805256234331615416977,-0.0239326703156046358134112,0.0294612036106050440009696,-0.000525547588426311922810141,-0.00693009757183784234901847,1.76962095167543043139347,2.58759456301443924175487,1127.43811136942349548917,1148.22608277138169796672,1159.01327819692210141511,1122.40756886774170197896,1073.90714780730922939256,30.894649304248215315738,243.300175814159189258135,43.849246129662184046083,158.584365687314630122273
43.0775000000000005684342,1.24445894861878159076696,0.953586327547241707769388,-0.172656202157969146382399,0.0532321813656990994179097,0.0328559977073004660930167,-0.000108474237721619833053031,0.00414533569405817203801234,-0.00533551149318740262211813,0.0245958757709067235563971,0.999674509498536423279802,0.0677159174359172610913049,-0.0273773953440467759934407,9.83931726553340091356858,-0.0239668252500645773128696,0.0294397151424351001536284,-0.000430106924122477249968627,-0.00699143730395958198226003,1.76969090705177500844059,2.58758982844860119243435,1129.73145935868456035678,1148.3461908173358096974,1159.34447921187461361114,1122.58077501056914115907,805.21235871115572990675,92.5580971560908096762432,25.9422191985558505678,92.5370983224570693437272,158.581875021128695379957
43.0799999999999982946974,1.1715480428027136294844,1.06246345956965448920073,-0.127670169031997626785113,0.0561337334871631274402226,0.0360657763077797122175383,-0.000222916528209445507450331,0.00420283107174719734733248,-0.00528250509097781800055271,0.024601719101665267541712,0.999674410105995114861344,0.0648609880637562030702981,-0.0262878098931438181073972,9.84050148314629247181529,-0.0240053527676732068873999,0.0294230952716314463069036,-0.000322239520723654397464653,-0.00705326833199973381866021,1.76976126972228819944633,2.58758649998546275128319,1131.46417316297561228566,1148.68887325716173108958,1159.14298929291476270009,1122.87025435935356654227,600.257418196099365559348,208.743827395194415430524,-230.208535836227838444756,154.668264847544378426392,158.57942979377938286234
43.082500000000003126388,1.01038511152540388948751,1.13059473701766965980653,-0.0624250126909877203762456,0.0594176852276308148370632,0.0403699788670692227832149,-0.000301082304123557271870876,0.00426034877676546679114988,-0.00522446270907231304775342,0.024608453120284125292816,0.999674306970945281136665,0.061852633623794069095414,-0.0249795834689830187347326,9.84155789384992019108722,-0.0240479510255755916936504,0.0294117707605143878513143,-0.000204452375785469270567593,-0.00711637131440447535252192,1.76983137514652133504001,2.58758457034497801885209,1132.73274644966659252532,1149.38990995431231567636,1158.1934365326928855211,1123.35411633480725868139,333.728808525040449239896,292.214198727320422221965,-468.76027135066243545225,202.253042788412329855419,158.576554589408345918855
43.0850000000000008526513,0.788099848484843934492972,1.11955690473548430396988,0.00250114065226217938478492,0.0619252888557431657723384,0.0438751287094151787293583,-0.000366509947356307818743665,0.00431755449175719521748285,-0.0051628309768608476176821,0.0246150031723889294033025,0.999674218754310173196131,0.0587308018960188207846507,-0.0234898598597384350439299,9.84244440829796474190516,-0.0240941152265191325942961,0.0294061392088162260050055,-7.94903395769246573802566e-05,-0.00718033306656160486697305,1.76990142258394023144774,2.58758417511845983938201,1133.13281720560166832001,1150.14994425079908069165,1156.79918793616025141091,1123.88151957329614560877,57.0999779133736424796552,307.718301455913831432554,-665.706060194148221853538,238.179879112556761810993,158.574211911306520050857
43.0874999999999985789145,0.446623263814289905848653,1.03442112869114910544965,0.081331340643930633005354,0.0648294425252076561561054,0.0470963614099705468740709,-0.000449662037485911271830763,0.00437652177899506243663463,-0.00509685707401682022710254,0.0246181786967529583898262,0.999674217960939137661569,0.0554929325327538983114728,-0.0218089288638465134129163,9.84312612681907594947006,-0.0241434401905236684093836,0.0294064279848936308003893,4.95564278273969541807435e-05,-0.00724495896806242201809711,1.76997133034721088051811,2.58758502773713772171504,1133.01824633923320106987,1150.92850146159048563277,1154.86490623172517189232,1124.5450157303689593391,-93.0049607027264642056252,284.014902029903396396548,-833.263980466819020875846,286.150704933005783914268,158.571928697710745836957
43.0900000000000034106051,-0.00401943265015214379332065,0.894453210547718757794655,0.172941435829104261934219,0.0680301736883674040834435,0.0499625805850750573378072,-0.00052231432771904001601676,0.00443733676829507518724061,-0.00502510740148207155769677,0.0246148657718036067976186,0.999674388223050547352955,0.0521221184031594245156249,-0.0199668445832207885892728,9.84357635390114182882826,-0.0241955954005285932273406,0.0294127898064013501566727,0.000179743767938286749114019,-0.00731014514631260752669517,1.77004075617386669172504,2.58758702757477321299007,1132.66779240208779810928,1151.57001876094932413253,1152.63286803382402467832,1125.31227309796190638735,-150.440213932702476995473,191.19022106005328964784,-912.039077918449947901536,323.722452280224274545617,158.569697293067775945019
43.0925000000000011368684,-0.567317189140825406390434,0.705512579932279781935733,0.277123859270193839687835,0.070202733360642102788951,0.05229387185122388870262,-0.000494875409138641349747478,0.00449959453932055955527325,-0.00494784902682110679095207,0.0246081966934978656202926,0.999674652279896047701868,0.0486356081697441114397584,-0.0180046607684581222441622,9.8437761956466687252032,-0.0242500339672510681343631,0.0294255595442744107004263,0.000308442146121354842346063,-0.00737539248338159314499762,1.77010973391152282019334,2.58759018976309862480889,1132.26604526956930385495,1151.88445256689124107652,1150.3047108421305892989,1126.16362799177090892044,-146.423249764890385904437,39.6848551723812192904006,-971.493467955926007562084,373.298098939288422570826,158.56753069636951636312
43.0949999999999988631316,-1.29388900075562984781641,0.453673862664197069527461,0.403925830468895630254167,0.0692998824599719148720212,0.0543146022061299360572661,-0.000152981375553129994235291,0.00456209640175238469173014,-0.00486475924620583932006523,0.0246014470163442022787592,0.999674936799260449582505,0.0450395147036568924137079,-0.0159780731117150076592281,9.84371486600985790005325,-0.0243063845710601265925899,0.0294448936567535714259325,0.000433371345137461790909816,-0.00744084760553546942229985,1.77017830968832035054561,2.58759438697848098698273,1131.93567615326401210041,1151.76844303681104975112,1147.77540069404881251103,1127.1787635926566508715,-85.3646439606127245269818,-123.792721790578397644822,-833.781343833680693933275,348.259450414892967273772,158.565007869537282658712
43.0975000000000036948222,-1.85183039802206406143625,0.251062574910392688476435,0.494137102552169249491953,0.0643942787190198567826016,0.055027443388784826050486,0.000578742411355286025427536,0.00462417307208564179465959,-0.00477734680034048661556589,0.0245951752178176739904725,0.999675225050102422841292,0.0413773049184287186608167,-0.0139316815426369922104044,9.84338869950062367308874,-0.0243646314097400035203478,0.0294705642984538877804379,0.000552759460472395454562478,-0.00750697385314447445531227,1.77024657754884051641397,2.58759909522291620120882,1131.83922204976602188253,1151.2654889579380323994,1146.13580412296005306416,1127.90492524384626449319,-13.2253661196432954483271,-264.884344234634227177594,-516.913216036399944641744,232.023427816574894677615,158.562970761870985825226
43.1000000000000014210855,-2.25097771644822097769634,0.090686555151277215003347,0.540668476991067237236166,0.0559499354571907220323723,0.0545076406407582481072893,0.00201265973805507102784018,0.00468525453657594667666864,-0.00468951013632053995833227,0.0245922797318408291322722,0.999675430614240356774758,0.0377415119559211045818792,-0.0119072505143302670438388,9.84280057748835446318481,-0.0244248552041160769954242,0.0295021524643618235361764,0.000665460996668421934929771,-0.00757345646637916283111513,1.77031503189061822922667,2.58760392038570463668634,1131.86954932266576179245,1150.44402131563720104168,1145.1908346138654906099,1128.33888073174011879019,11.5200386598294421958144,-356.524217342854626622284,-249.047351987564127284713,100.45993785756805039,158.561001891161794219443
43.1024999999999991473487,-2.46481289299164574302381,-0.0150323783150976275635458,0.528924714481887381367642,0.0466155328750338729393299,0.0533889777683861019297318,0.00414015079971673857078818,0.00474423475756488924326426,-0.0046021274891241978691192,0.024590152390164859291799,0.999675617971380603421494,0.0341666078825393765283636,-0.00995268675166216532090857,9.841959963131440503048,-0.0244877538903093584787829,0.0295386501864417574947375,0.000770729137002423674018825,-0.00764020807580009699705448,1.77038392658646581701021,2.58760853227180476210378,1131.89682224306511670875,1149.48286787122538044059,1144.89056736302336503286,1128.40722493313364793721,-21.547050707056659035743,-385.58291053376080981252,29.5882678698793419869162,-80.6466860825409099788885,158.559089460170071106404
43.1050000000000039790393,-2.4450822130451137503826,-0.0473830780459158981687828,0.428348326017072011939746,0.0381758232936183772299188,0.0522772373463265341286821,0.00696724694967346472318503,0.00480084274863934457044934,-0.00451260265779393401203157,0.0245872686304534106283004,0.999675837535028866120967,0.0306217258119009447248082,-0.00809460566481640109159912,9.8408817004822353169402,-0.0245542845818752346331859,0.029578813254006366961768,0.000868058546584812352510385,-0.00770701388292140045915835,1.77045310262136057488647,2.58761289778462444388651,1131.76181406913042337692,1148.5161067629674107593,1145.3387759532149630104,1127.93564730132720796973,-133.82685346512036517197,-391.473603069634748408134,336.94834433918953209286,-334.083363793126466134709,158.557244276922631343041
43.1075000000000017053026,-2.19858206426023450319462,-0.0138226007048910456975754,0.207175968818139155658287,0.030440978043527612550978,0.0514878270649267791303494,0.0102713034166661623669548,0.0048552179590382682841665,-0.00442213581118332602071241,0.0245876055889994761527451,0.999675984118707172676466,0.0271542694742715334799144,-0.00634988036012450185463507,9.83958435951565313359879,-0.024625373512127877312361,0.0296214284674843099376407,0.000957491387220670768336273,-0.00777274290204733007969562,1.77052317422018923309679,2.58761656495562331059546,1131.2276879757391725434,1147.52549985587620540173,1146.57530908472017472377,1126.73680811416716096574,-276.806731711555414676695,-317.59616779251484786073,530.312471305597000537091,-525.415296557889973882993,158.555106019540460238204
43.1099999999999994315658,-1.86615662900345546937331,0.0539051061098416370298558,-0.0328012623682515311318575,0.0261441855800616275440351,0.0514068399723252855704203,0.0116456199579504232621829,0.00490698651459679086039856,-0.00433327244880333389831506,0.0245925294647843031836665,0.999676013159225163029475,0.0238404283049583540221583,-0.00474221379426865985440287,9.8380899726703443519682,-0.0247022890373597252267057,0.0296649957885047679817525,0.00103943363623221229387339,-0.00783730201231572394526825,1.77059468013581278178492,2.58761929876747620582478,1130.37778041057390510105,1146.92812592400628091127,1147.99033830974053671525,1125.30857081854014722921,-433.165950132803459382558,-180.24846126172508320451,587.187623530889823086909,-613.847223955467370615224,158.553385784567211658214
43.1125000000000042632564,-1.47339633545366366362828,0.132561187718539835733722,-0.270569105399051768046093,0.0233288573843336531632442,0.051847119725716872551402,0.010315728908509184252873,0.0049553670934377068088561,-0.00424629285614384378855224,0.0246025257981709530308301,0.999675914860226000335786,0.0207141677336419027799508,-0.00329839835771805756081676,9.83642366272819046457698,-0.0247863594625276524585633,0.0297079606249705530096605,0.00111430678508725781138133,-0.00790121961837448281984475,1.7706676456900254379434,2.58762142039290354844638,1129.06185822507404736825,1146.62425754956711898558,1149.51124720237612564233,1123.66757199438825409743,-678.119327167786195786903,-61.2955204351833558007456,621.775182633200756754377,-698.394399747218926677306,158.551727309378236441262
43.1150000000000019895197,-0.996101405676397377852993,0.205317812150456413533561,-0.48200770000821535621327,0.0210295663510122604611396,0.0526254827318190926410679,0.00647665127169346106772441,0.00500085907080935563456814,-0.00416142499289272587564836,0.0246166687020232984040025,0.999675709189160155432319,0.0178110858664914037396976,-0.00201643095293024821046401,9.83461244206735152317833,-0.0248788277427955638321233,0.0297488809292979494713904,0.00118240918477316848782255,-0.00796496108573536455710329,1.77074175231518604611836,2.58762321109325954537894,1126.98718377473323926097,1146.62164832183020735101,1151.09921422290813097788,1121.81659881980226600717,-824.603947805621487532335,57.8522665171547956219911,494.846456259069668703887,-603.050040920928040577564,158.549805671880164936738
43.1174999999999997157829,-0.623971042903566530668513,0.226196646648795712808422,-0.568088377371526176418115,0.0198750895648662773140813,0.0531898602524792166179601,0.00325476329025532447672409,0.00504250477386188836886882,-0.00407748539534202782824712,0.0246336272988451759902162,0.999675440120012859246401,0.0151397842303737303892852,-0.000919144512260314239249226,9.83268540673478419478215,-0.024980686911795769306055,0.029786641310338923815948,0.00124389882162293180858925,-0.00802883347752276002595728,1.77081612406329447217956,2.5876251624458741495971,1124.93883848604968989093,1146.91351888215262988524,1151.9854794836692235549,1120.65232178978635602107,-852.101264031400319254317,168.88328699625969875342,219.425032815633528571198,-328.920101355405620324746,158.548259144555316879632
43.1199999999999974420462,-0.298773616745798109572974,0.182546219552224719961941,-0.563328038206634684748053,0.0193449409435670557910747,0.0539925120911355499453421,0.00115373174823391782053972,0.00507721245019899895811744,-0.0039957887315738762484818,0.0246499622193085098087462,0.999675203510212107005373,0.0127572948821130863206186,-6.99542665809488317663067e-05,9.83067320035630132224469,-0.0250927194944656553610152,0.0298204536559893568226087,0.0012989876071626219738997,-0.0080927952117724570590962,1.77089006882120059138686,2.58762731467326290157871,1122.72667745458011268056,1147.46606475681073789019,1152.19633938698530073452,1120.17199831302673374012,-882.7209373134369343461,251.37714729676972069683,-46.7578080608506709836547,-48.327893288272036897979,158.5467666171446410317
43.1225000000000022737368,-0.0186452452685153639844184,0.0700614014374881244329174,-0.503456908342800990574517,0.0192068138961623419147529,0.0553503644999486232869401,-9.55106513030096784507353e-05,0.00510501203793354771387492,-0.00391770227933365463440785,0.0246635799047642718939688,0.999675045751462043597257,0.0107227909157182332844371,0.000531010747159457729971166,9.82860677640334756688389,-0.0252152659425738251419702,0.0298500217604073525556885,0.00134750634412506421593025,-0.00815641454126725395923359,1.77096331999230938158973,2.58762982242582229019945,1120.52523379948024739861,1148.1704046186371215299,1151.75169044336485058011,1120.41068232334487220214,-843.687458534646225416509,295.756984835801290500967,-337.316072903750182376825,282.77044905370615879292,158.545316539552231915877
43.125,0.205947912664371707291977,-0.133355003986298986662362,-0.407186521668640555304819,0.0194649482739897537741935,0.0568141090838569229326538,-0.000644168727526150735815391,0.0051262976193615049369523,-0.00384345922607770085557832,0.0246727795531563286191012,0.99967500689918997736072,0.0090715575165582554295618,0.000892597028601851971707504,9.82651772202129691891059,-0.0253482229431258344887201,0.0298753951721790686479885,0.00138902801652945667373884,-0.00821958503082547906060107,1.77103577341352091956139,2.58763301052565264370742,1118.50824016190472320886,1148.9448496809905009286,1150.50975902246568693954,1121.58585055829598786659,-808.928524786014236269693,322.579284985406559371768,-703.300658318997420792584,716.502672740004072693409,158.54391465652224724181
43.1274999999999977262632,0.411991898685340640628993,-0.466557087789255864329618,-0.281847135359271139254389,0.0202502907642633719897951,0.0572736640618361977916884,-0.000908239066555140551854908,0.00514001654472853990868186,-0.00377269441704489692790414,0.0246759650580111594697641,0.999675134443689827890012,0.00782324768925319463663826,0.00099616957070877698576794,9.82443824569616275255157,-0.0254909671596855458286512,0.0298968261804815928217582,0.00142306065119058764399662,-0.00828289478978286482224735,1.77110757685802955307963,2.5876369746393397264228,1116.48059117555385455489,1149.78330104356268748234,1148.23518715177306148689,1123.99319568704163430084,-660.903035526396934074,267.575174133343807625351,-926.815976247852290725859,1009.97258571467853016657,158.542284085490706502242
43.1300000000000025579538,0.530578236334072084190439,-0.787836217350342038479027,-0.184450659194373617344453,0.021366040556396698885111,0.0561333367639909527890829,-0.00102994222935162953874721,0.00514754611263137928922617,-0.00370640402540258363101033,0.0246739039460767625722148,0.999675399475489001588357,0.00702109336382857052161199,0.000870308010199036252707572,9.82239979907129878711203,-0.0256421477774436655516777,0.029914777729885513174457,0.0014490133799250734698838,-0.00834662390154251518370465,1.7711789492263823042606,2.58764161423253868932193,1115.20372498427104801522,1150.28272555165790436149,1145.87567914122405454691,1126.63571348687196405081,-416.675152689745686984679,135.668830185226113371755,-982.512977884878068834951,1115.43593342605390716926,158.540965558826911774304
43.1325000000000002842171,0.592778110722710804836311,-1.10582512101996721654018,-0.10341703196206834813875,0.0230009240376155520146906,0.0536315159870007773790235,-0.00119970204154883552591371,0.00515216708466458960663514,-0.0036457163120773026024346,0.024666574435336315745948,0.999675782270402768503459,0.00670570891540463870361677,0.00058053625219918469912983,9.82043277720945617659254,-0.0257998640686283343959051,0.0299296780387258744282608,0.00146625955243654673351705,-0.00841094591313466810600374,1.77125038163864956253235,2.58764658959220339440321,1114.39721541210406030586,1150.46164519448916507827,1143.32262226234615809517,1129.57037535417475737631,-250.060183315872620823939,-5.90031243414696326965441,-1098.42393659923664017697,1253.10410968523046904011,158.539686110498621474107
43.1349999999999980104803,0.60363301612448272415179,-1.42588669588066974114327,-0.0289146481846022304629251,0.02535222080421674697992,0.0491446740939708789919216,-0.00144846021680219375765697,0.00515835640356862145522454,-0.00359007752123548283876286,0.0246546889890448331361661,0.999676245021554166214628,0.00687800614097152512860234,0.000215945651505136670955665,9.81856618544514958557556,-0.0259616003533106216860649,0.0299419659423181411250781,0.00147414806946508797347306,-0.00847606240527564759601464,1.77132215988059393829701,2.58765170338069294686534,1113.95342406769282206369,1150.25322398948719637701,1140.38355945823286674567,1132.9012340352924184117,-85.3638384557616376469014,-141.111738313584851312044,-1011.60632791364241711562,1112.70912995048456650693,158.538193658461096902101
43.1375000000000028421709,0.566207631302841019049765,-1.60564432990865069150743,0.0122389556705436667455311,0.0272279374847356307742796,0.0443508434305022805621554,-0.00154287667889560432994689,0.00516784560738564342080581,-0.00353819340025792123186066,0.0246399772757389529109773,0.999676741362723331185691,0.00751471981265141447670075,-0.000188893240808910012340505,9.81682775172943955510618,-0.0261242513652360265619112,0.0299521214246712963458208,0.00147231876651472866346371,-0.00854215986148356906659806,1.77139431974343586340126,2.58765715224254799764481,1113.97039621982503376785,1149.756086502920879866,1138.26459062277535849717,1135.13392100393002692726,69.4017533804171478095668,-244.064217394100268165857,-738.417393552330963757413,705.538442231639351120975,158.536984602986734671504
43.1400000000000005684342,0.496857898520752294668767,-1.668603605851179283448,0.0282310986992264784101181,0.0285988434557416446035738,0.0389740742943539275611187,-0.00128988236387295412792298,0.00518130865008800158000302,-0.00348695052808118593004605,0.0246237283893154280944859,0.999677247717511430202819,0.00854706640059713085300075,-0.000620399807198357411408551,9.81524286885661645385426,-0.0262842908338151402813931,0.029960643757400741427066,0.00146058650390904387790514,-0.00860976845505541030223462,1.77146636210571872815933,2.58766338098404302670019,1114.30043283459508529631,1149.03290290251607075334,1136.69147249046932302008,1136.42892624645241994585,168.825752129595286987751,-303.980129207460777251981,-521.412189485018984669296,328.044665302539272033755,158.535810928728324142867
43.1424999999999982946974,0.41704813570678328504826,-1.63137421227923318234332,0.021412672797339261238081,0.0294885776300941732097627,0.0338201500193696172336111,-0.000845737251544848803869181,0.00519697745944565532572046,-0.00343390268588139851296814,0.0246074098172674171625118,0.999677746380665199765758,0.00990847855291928508725263,-0.00111437479624805491074113,9.81383392761212114407954,-0.0264378584124649734787837,0.0299680965756446184011796,0.00143924038784094495725674,-0.00867923405866190961210904,1.7715375013131731130045,2.58767045121871364088406,1114.81452498047224253241,1148.23618585688495841168,1135.65752967535263451282,1136.77414433044123143191,233.437002245744849915354,-311.310120832126699497167,-278.584654761783269805164,-98.6623928010835697932635,158.534666684730098040745
43.145000000000003126388,0.343061141894444476818649,-1.48932733846781784059488,-0.0108261593626337269957727,0.0299110301275066492454613,0.0296176922088314947822951,-0.000434884612818537579555928,0.00521323905394353078607272,-0.00337978520171884578779387,0.024593080400926899120595,0.999678193062093822796044,0.0115851498711287345666499,-0.00170616445726216869882563,9.81261872812269153598663,-0.0265809223455964437066168,0.0299750754765803831269899,0.00140914943386298866997985,-0.00875042520222348366165654,1.77160777254226387000813,2.58767780784547785088989,1115.46761784582440668601,1147.47635229835464087955,1135.2985492166596941388,1135.93561428244674971211,304.445079667110576338018,-308.884007460097791408771,-10.8410390289408518071923,-604.650537843244705982215,158.533558686069625309756
43.1475000000000008526513,0.277459689232717965357011,-1.2336575949540362628909,-0.0684340281030944158624507,0.0301128489156583176167281,0.0259565707049757635194176,-0.000202869040644263750683765,0.00523000865526923684051264,-0.00332624810038763003144924,0.0245803281590044435389597,0.999678593074230681381209,0.0135722301391839120232596,-0.00240243301530003450228179,9.81160945880309753874826,-0.0267096966321767048668789,0.0299819319967958262951324,0.00137165314865375013823889,-0.0088236472468382932954345,1.77167720572147824320552,2.58768483411597971510787,1116.33675037880857416894,1146.69176581958367933112,1135.60332448020790252485,1133.75089164122346119257,327.57697654153849953218,-269.063801039573320394993,221.742471038052599396906,-937.235830811311871002545,158.532272730116886805263
43.1499999999999985789145,0.246502814302751033226357,-0.97743977801545878225653,-0.119646399339062944888745,0.0302109461299029345704437,0.0238315693827969472817774,-0.000336485817649418740560296,0.00524738105989818945373848,-0.00327328923098752768913733,0.0245660055959461900987328,0.999679023217769135989386,0.0158236585793622291928884,-0.00320603618444721683022891,9.81081239230934087913738,-0.0268209104225615967143082,0.0299886364086082227164987,0.0013285121564660792511936,-0.00889884629726308412633884,1.77174632626406824975618,2.58769113886155599502104,1117.10550272853060960188,1146.13103329315799783217,1136.40726157184894873353,1131.24943512839445247664,315.963952893409668831737,-221.719789865778949433661,419.536860478650851291604,-1041.78940844636963447556,158.531239015011038873126
43.1525000000000034106051,0.23592114880905856733051,-0.702725101533496210315377,-0.156070084470528780418164,0.0304418143495712896495764,0.0221836048836505789205731,-0.000903764278099195841539859,0.00526781355792305117091701,-0.00322037141729060579983801,0.0245493689195063723162971,0.999679490096367806550859,0.0182770053936561274743333,-0.00407339036841135315736295,9.81022676043988184346745,-0.0269117523615034284767411,0.0299949893771872672099121,0.00128177413621314911437721,-0.00897543350706269012218019,1.77181598260613770712268,2.58769636590308627077661,1117.91657014327643082652,1145.58316687025421742874,1137.70100878260222998506,1128.54194459898894820071,332.973102491826182358636,-232.136990362386711694853,588.04333027262077848718,-1033.35151958664823723666,158.530246434414380019007
43.1550000000000011368684,0.233297676735643166878731,-0.426362810540811099091485,-0.167391888493709700691525,0.0309123787868416932678173,0.0209056327112350399943796,-0.00185966675140056682084821,0.00529167596165554428300215,-0.00316662161860182091513427,0.0245299056826260054864353,0.999680006940695031758537,0.0208566796147966540542207,-0.00500143883392645260954623,9.80984530363809881237103,-0.0269802137442774446485227,0.0300005155045188036389003,0.00123392543002640887872534,-0.0090528990855399567305728,1.77188619418871629029866,2.58770036725039220826261,1118.7703682409905923123,1144.97034834134547054418,1139.34747822321355670283,1126.08267753045856807148,352.689199614681172079145,-271.555216194175557120616,731.562821630069834100141,-831.73065619778913060145,158.529289190185096458663
43.1574999999999988631316,0.226151035230885089077901,-0.160988552678974689014169,-0.139226578184417693062613,0.0317669532681934194129347,0.0202147001115961788553221,-0.00319591120789372486882263,0.00531835624327896879653954,-0.00311138649184740856065701,0.0245084868557360266438927,0.999680558043370637300029,0.0234874585702820742882935,-0.00600584136843003435490829,9.80965388979777941358407,-0.0270251597416462652212488,0.0300046068508723270951144,0.00118769635190280856314182,-0.00913082981466196118292,1.77195687584351668775184,2.58770303314173188979908,1119.68001614134823284985,1144.22539078928457456641,1141.35882289074925211025,1124.3832913180037849088,409.329244509781119631953,-354.30502351614512690503,949.395609229182809940539,-490.496826095362962405488,158.528375915061872092338
43.1600000000000036948222,0.196831595639539003173013,0.128761851658819675980894,-0.0637238644279066596132211,0.0331900677332897936500089,0.0201368356101200088326131,-0.00479698536482180745016413,0.0053495061770182433455445,-0.00305630120682973387830073,0.0244883829145953017814019,0.99968104966015125523171,0.026138876348822004391792,-0.00705800308494640427081634,9.80963087203899597454893,-0.0270463354213133846948303,0.030006666457319201152254,0.00114580244192711861589418,-0.00920839675721117634221713,1.77202802743451348632675,2.58770426848895329641209,1120.81701446354054496624,1143.19882322376383854134,1144.09445626936189910339,1123.6301933999804987252,416.705120972679310398235,-381.713882721838047018537,1034.86092709987860871479,-41.7100121519766062760937,158.527332418610484410237
43.1625000000000014210855,0.150893419005759588102933,0.334276158422042002360541,0.0162171883111459601278792,0.0344520139260754490462269,0.0207172786234013847628255,-0.00543936881296664884177794,0.00538738065115828071438564,-0.00300400498340171184796787,0.0244728578379678346488291,0.999681382569927445835845,0.0288011989775112317579975,-0.00811665662119247233174946,9.80974809408393255694136,-0.027044494037582494927463,0.0300060437039184543794867,0.00111077368191695585730727,-0.00928451998324112542926301,1.77209967967466930360843,2.58770419475069246573185,1121.76354174621269521595,1142.3168213756744080456,1146.53312752625129178341,1124.17474125724379518942,362.928279117716499513335,-325.94567001904209746499,970.671525864254931548203,433.105920364262715338555,158.526507594417097379846
43.1649999999999991473487,0.0905173719376145269333023,0.488219530464558681970288,0.0785912793630912792641752,0.0351301244005303298090226,0.0219603431908728108368223,-0.00450823391872735845797848,0.00543437878030838920906387,-0.00295665667628877606304405,0.0244646744334616056404386,0.999681470505282221417076,0.0314582003765596363020762,-0.00913585233885924608010498,9.80997204172405901090315,-0.0270212804111602984680207,0.0300020726886371900954398,0.00108470284686509378137276,-0.00935847252829217005065665,1.77217200962637000394295,2.58770319729411957254683,1122.63165585912747701514,1141.56909487367011024617,1148.94781389867875986965,1125.79572300179984267743,340.743389456936995429714,-254.658478167408929948579,1000.85857704815407487331,874.162821240186758586788,158.525730370037734928701
43.1675000000000039790393,0.0235973078889563370186266,0.599825504898756634020174,0.0950291870274474759217043,0.034881579379733733403679,0.0241488208315574423568073,-0.00219418054889142103217048,0.00548760193690607349370492,-0.00291270518792166501625962,0.0244630742027188811948957,0.999681350878960928163508,0.0340229095136330081383669,-0.0101697607670059309015187,9.81026651715920294805073,-0.02697915584985357759229,0.0299939698467470358678177,0.00106922915996187630968683,-0.00943080913085758872071995,1.77224470498849728805624,2.5877020335427753927604,1123.46725869349825188692,1141.04352898483671197027,1151.53742041149462238536,1128.54555536344696520246,255.772324791911273678124,-103.056849975329924973266,855.493817593622907224926,1057.06057226857910791296,158.524853948581721851951
43.1700000000000017053026,-0.0111155202020148200642291,0.627320823637460334154525,0.050626408765422271918144,0.0342495800463922805967343,0.0264847927816759289021409,-0.000589801767429367273729013,0.00554409188423970241549332,-0.00287251448970190668627533,0.0244668304139429616805845,0.999681067121162003630275,0.0364524430848056427145742,-0.011272606243749136445409,9.81059246097990289570134,-0.0269209267466570742466381,0.0299810742192395465743893,0.00106546155566887242906182,-0.00950199116672485050161256,1.77231747639962566864824,2.58770103921351157794106,1123.91051748308768765128,1141.05381062379319700995,1153.2252829866490628774,1131.08102586314544168999,112.403854955948560245815,117.287038398733130861729,536.135096020130845317908,961.71882564595921394357,158.524171438183060445226
43.1724999999999994315658,-0.0130159870969443064447901,0.592993670863376842739001,-0.0382335151993062755115815,0.0335991502494851351778848,0.0289058862862722407149896,4.55776585954666292989715e-06,0.00560311819493247015300241,-0.00283612075683143012583276,0.0244753786479705859324696,0.999680635736962863724386,0.0387065526711605975562769,-0.0124527138098543543875962,9.81090936727393980731904,-0.0268494764661125692728483,0.0299629403441142756758797,0.00107370896392116688469742,-0.00957223068965446649558615,1.77239011792284539836828,2.58769998678254253832165,1124.02927796827748352371,1141.62996417682984429121,1154.21809589159283859772,1133.35414949167238773953,-6.38269352743592222054758,325.884614820157992198801,266.795781832206500894245,803.147231365072229891666,158.523540027423450737842
43.1750000000000042632564,0.0123740354305576314569715,0.523565465751508973824002,-0.138630566585429410020325,0.0330286124349538981470609,0.0307477122743773888247087,-0.000194989833045394208134796,0.00566302619693624838259627,-0.00280181536918937658733886,0.0244863872009455849076964,0.999680126959523684959663,0.0407191114973526682718763,-0.0137334451340901803062522,9.81117779811923362842663,-0.0267677764892573326338532,0.0299391930390118313209946,0.00109359427387928430201736,-0.00964226189479101304657949,1.77246226192247058328633,2.58769909778837270408758,1123.87860401545049171546,1142.68323369789482057968,1154.55926189581077778712,1135.09676201997285716061,-111.608065455163540491412,520.559012436758280273352,-11.1140164909500054335467,525.584405069188846937323,158.522952310868987524373
43.1775000000000019895197,0.0615623350936237295760733,0.442174193116422198368554,-0.217679301154929394357396,0.0327530653539172336707885,0.0313242985820511507522035,-0.00124876850937288407655812,0.00572204428978917000597759,-0.00276983964400928477089803,0.024498056112074877849194,0.999679593430390589503531,0.0424718337767676853977683,-0.0151392392842764206273287,9.81136046567514163996293,-0.0266786806984372314166531,0.0299096058275685229566054,0.00112421885385253139330586,-0.00971239922846602390937853,1.7725335321285657919077,2.58769860332361201216145,1123.47123764100138032518,1144.23275923901496753388,1154.16252580913806013996,1135.98207151701967632107,-204.605915063215974214472,756.793016320904598615016,-296.117544477598244156979,183.373505529410408598778,158.522419176501841775462
43.1799999999999997157829,0.127261258567025886678792,0.367661620025875823802863,-0.249395343008821795960372,0.0327891314836567110413412,0.0310112347875591068402379,-0.00330196431097517671335306,0.00577814472111396262854477,-0.00273886469510009741487599,0.024508894691503291946022,0.999679086445339759592343,0.0439254601222863402809615,-0.0166965929693122100418989,9.81142429485785250165009,-0.026584963672306120147093,0.0298739950248926820763895,0.00116401434508459859090701,-0.00978245841856109979439715,1.77260400754862357253216,2.58769893214340962472875,1122.85557444013534222904,1146.46719877949590227217,1153.07867417342413318693,1136.01362954761907531065,-214.081211597080340425236,843.210411239209179257159,-443.018636833169694000389,-135.691732532619141693431,158.521845342592598626652
43.1824999999999974420462,0.168309669346687090785153,0.338746228962679862828367,-0.207830062795977710266015,0.033190128742480423662542,0.0306694224317957814252011,-0.00535587032932205876073484,0.00583252207434817402514904,-0.00270625384005514311308582,0.0245188981649979292898323,0.999678606151276238911407,0.0450266722904771807267643,-0.0183659752633380524144968,9.81134120891638339401197,-0.0264892859665625986231863,0.0298321802904719865501271,0.0012106382679868555717756,-0.00985224405081180400201024,1.77267396413530620158383,2.58770038431673832235447,1122.40083158301695220871,1148.44881129520717877313,1151.94743262497422620072,1135.30361285435719764791,-129.621881854906945363837,766.847370847489059997315,-425.924628162384067309176,-387.431767152322265701514,158.521424423956005966829
43.1850000000000022737368,0.170974183576553806496179,0.339990698230404453372699,-0.0999102234619968082585117,0.0341410776554252615166973,0.0308542079889520155788762,-0.00696210999016705182895759,0.00588665063965487442287916,-0.00267242262263070852815194,0.0245293546404263609894691,0.999678111466651642125214,0.0457919033144109574595682,-0.0201015688796972319396517,9.81108929506800464537264,-0.0263942063601239271242171,0.029783882532763823747235,0.00126151659062495786513269,-0.00992153146540436861600121,1.77274364452986321616379,2.58770309674528409260574,1122.20746503086047596298,1150.30143563373530923855,1150.94905103261112344626,1134.07647071185647291713,-10.1969787898672290538116,683.746077249284439858457,-330.027907102534641126113,-537.173457830747679508931,158.521066073909167926104
43.1875,0.127187988802842349977951,0.350955852510494270557473,0.0421138846097336913554265,0.035396670254003802236209,0.0316440232858631598222843,-0.00740816999226107195802848,0.00594036149438467286215682,-0.00263986227763347803751404,0.0245427277731907166058445,0.999677537349523803733575,0.0462866538714615458061097,-0.0218884457213931321595268,9.81065414050742923279813,-0.0263021698670233006200903,0.0297286694327507060309213,0.00131406392854732483044256,-0.00999016989287812226527841,1.77281363727762575344116,2.58770714349670072351728,1122.34984668906758997764,1151.86754168145535004442,1150.29729308946070887032,1132.61774556520208534494,151.27610119507269814676,523.30823957574762061995,-144.481390848563449935682,-600.307369538814100451418,158.520762176787314956528
43.1899999999999977262632,0.0207292236722355013855967,0.350057125296840521144759,0.187823863803063539901217,0.0365169814930466074542892,0.0331972979054434499945891,-0.00632826548020840561059597,0.00599276268512515929848261,-0.00261176208166149148234836,0.0245627218820372410224007,0.999676791969161593343074,0.0465980232798212865019671,-0.0237238221248522035411455,9.81002938941169055908631,-0.026215454313620555754083,0.0296659811116222714433288,0.00136573064428129812945822,-0.0100579693765503238450654,1.77288434561728713845241,2.58771241125074258349059,1122.96384553683515150624,1152.91797683161166787613,1150.22664407836896316439,1131.07493386416513203585,371.50979786378320568474,316.958037278047129348124,105.094930880787515548036,-664.912463001088326564059,158.520527132239692491567
43.1925000000000025579538,-0.169720189759233197612787,0.312630868855701127273505,0.32437330921349105672391,0.0371607874786731712246635,0.0356816838026384475224262,-0.00421021846284407117583237,0.00604084153338818163198054,-0.00259164984240611720803238,0.0245924549667139204223165,0.999675810430465050515636,0.0468257249000355937895712,-0.0256441749100143612238867,9.80921721665771961795599,-0.0261361906064841373331653,0.0295951205231461990374786,0.00141423685450191879801884,-0.0101244096896461396872802,1.77295575812141481542028,2.58771869107380636521043,1124.20739567838745642803,1153.45233186784639656253,1150.82276774386491524638,1129.29318325019494295702,517.240199698661854199599,69.5828721315236720101893,305.592508426596509707451,-628.487892191375522088492,158.520328367149716086715
43.1950000000000002842171,-0.361685664771605741574234,0.248993951563687310191142,0.3891494662183013208967,0.0370179908768351328962609,0.0376819511923811648057558,-0.0024877793830482574678753,0.00608301121612424451623458,-0.00257921164090534407731248,0.02463443838926646436982,0.999674543899518819323191,0.0470004117059229578612367,-0.0276538012825115475656901,9.80822815574581241548913,-0.0260662302231988787792893,0.0295153864904468023200312,0.00145728449023117150908091,-0.0101889987551340311516812,1.773027940718390205177,2.58772522268267968215127,1125.55004653532978409203,1153.26589119226946422714,1151.75460662050272730994,1127.93249440320664689352,557.138168684611741809931,-197.523028230214123368569,407.083420537998847521521,-510.061318756843377286714,158.520234387332635606072
43.1974999999999980104803,-0.55563891332833659220114,0.1711872312752578673134,0.400008510349134482897426,0.035921910958951246140014,0.0384736368802852252146707,-0.00120267681069281730937837,0.00611854824533712357559345,-0.00257456114993804847240755,0.0246833518171632043669561,0.999673128444381720036915,0.0471652801097125554119494,-0.0297375449920451589980175,9.80708014886504919616073,-0.0260073402111282402093817,0.0294258318438461383137472,0.0014928976231110028735638,-0.0102518567643417133489203,1.77310085355506075188714,2.58773153408926903651377,1126.9930865218079816259,1152.46471672669622421381,1152.85818484655305837805,1126.7428766564130455663,597.77443426097647716233,-468.955181279021587670286,445.938571941632460493565,-475.459978031933644615492,158.520216942830160178346
43.2000000000000028421709,-0.747863879445923473987534,0.101029337171032254638625,0.36016957721013820314937,0.0330986424655576316755656,0.0375322447707556322571421,-0.000166520357502849506315529,0.00614830787459815647499894,-0.00257856322304782096047071,0.0247302679901524220806852,0.999671777793848748139283,0.0473812634663340961904687,-0.0318477404629692872894964,9.80579766604659930351318,-0.0259607034340241446535025,0.0293256169058660372261915,0.00151939381666508165590057,-0.010313631811253923600824,1.7731738267190102487092,2.58773799922027514242018,1128.53891870663619556581,1150.92111528587315660843,1153.98429948021203017561,1125.5551945130457625055,492.447460836022401053924,-634.964417310214116696443,324.913793858938561243122,-387.613891422717586010549,158.520286325840771723961
43.2025000000000005684342,-0.848597034957127238641306,0.0847926294918051048910002,0.291772688882853348246726,0.0299815371872111553763762,0.0359578677389275278009073,0.000415885631599306390942389,0.00617331298591957799287711,-0.00258484256052027771763391,0.0247669362635731735156064,0.999670705220927602319136,0.0475679668135296288000724,-0.0339289388750339260258926,9.80441211703869619498164,-0.0259265077605359550716457,0.0292143050159079063765599,0.00153501986824177913404377,-0.0103757886601584924796127,1.77324615246085781627983,2.5877443888627680301795,1129.45532382598935328133,1149.28989464014352961385,1154.48275381584858223505,1124.8048071992984660028,246.160810710895162856104,-683.489678996632846974535,60.3325611624862503390432,-239.657179532004789734856,158.520420305142010874988
43.2049999999999982946974,-0.874069735874106301665165,0.114690866125914336937086,0.195027930658701692534507,0.0271650459386325662802797,0.0349124803556341289922926,0.000909219926382435128173198,0.0061936197247791256390026,-0.00258463745144483711402295,0.0247913225065509099098726,0.999669981437075083618993,0.0475965543981623287472793,-0.0359435967295170383239977,9.80296019345317937165873,-0.02590357978898078297747,0.029092139830460172350568,0.00153826391927948348190003,-0.0104396535893302375153091,1.77331738175178799110654,2.58775062118965148982852,1129.76972276018955199106,1147.5036668908931005717,1154.28596228602418705123,1124.35690861538682838727,4.92299096690406301490839,-709.722558314388834332931,-208.346569718862895115308,-121.95916589383286066095,158.520633882462618657883
43.207500000000003126388,-0.839758233773146289813383,0.164492028431309278424521,0.0788747728305159712114403,0.0248525728766171953576514,0.0348695502984073535390763,0.00144212157026202638689105,0.00620759731222062568350983,-0.00257070129749049740286448,0.0248015314135366232717317,0.999669680955179384973519,0.0473638983040940500512939,-0.0378881412133675182785097,9.80148208633321083027568,-0.0258899043655508934169696,0.0289596414331489762639116,0.00152808863399906910175707,-0.0105062081580592995427859,1.77338673129771384751052,2.58775694915486287328577,1129.47993878082388619077,1145.74128184856976986339,1153.44102096725373485242,1124.19501136982898970018,-268.502947789055667726643,-670.73919939991606042895,-481.06116856859387098666,8.54599905910180801527076,158.520913489412066610384
43.2100000000000008526513,-0.744188867146482024850229,0.203378532304832465582578,-0.0548295387745619186570245,0.0231445233278638577700814,0.036070706611459217583171,0.00204291511343294507688229,0.0062170440365054832274061,-0.00254201286439983877712967,0.0247975895297278467466207,0.999669792512367982872945,0.0468858762340725251926976,-0.0396957726437754260251367,9.80001865510834413441899,-0.0258828488010737697844199,0.0288175534638369888751352,0.00150388942835135265910229,-0.0105753803276173539288374,1.77345423756565279127528,2.58776349199179911408919,1128.42720802124358669971,1144.14997089389180473518,1151.88065644317998703627,1124.39963861068235928542,-623.360076035099496039038,-642.695951117086906378972,-801.470713470736427552765,173.025549719498513923099,158.521272392204878087796
43.2124999999999985789145,-0.572551273786392700415604,0.197616023891085346164687,-0.219760564656728801802288,0.0218002436277981923029579,0.0381884274624339839498965,0.0026246210417472611887979,0.00622548551285895864632058,-0.0025000979082446862268585,0.0247832227577978736476894,0.999670196256646104160382,0.046223233793218167220207,-0.0412687984401900603836921,9.79861075872807596454095,-0.0258794865332031345794839,0.0286667295004564837146432,0.00146542984894460241382386,-0.0106464446582538643099047,1.77352059180117738179661,2.58777043337205459039296,1126.36313840065122349188,1142.52780209298725822009,1149.43366739990369751467,1125.06013911842569541477,-862.384157421424674794252,-547.792167373146980935417,-942.27956219112456892617,304.416829245182043450768,158.521794138940606444521
43.2150000000000034106051,-0.38731974794310047860435,0.134785448575079347399708,-0.339277221770965864422465,0.0210457073591025223269213,0.0396487516305900136726059,0.00259753385744458014164349,0.00623472341877843831692285,-0.00244893328184876517272794,0.0247619126921027471466275,0.999670783847631749807761,0.0454771618054129814212594,-0.0425463894813430526520293,9.79729822363268709750628,-0.0258771836965635548821751,0.0285077686415895932559028,0.00141309039848029507728533,-0.0107184592030511727234199,1.77358664884318573129462,2.58777751547170620227689,1124.11528723413425723265,1141.41101005702466864022,1147.16925863222195403068,1125.92172275690904825751,-961.429014754966601685737,-409.177423161163289933029,-891.935843148756475784467,394.355773848636260936473,158.522304290089067535519
43.2175000000000011368684,-0.156809537844181751120587,0.0146962158953353565216116,-0.401978915959792515444349,0.0203740391005580515071394,0.0403414983039053071101065,0.00147374085893554364334879,0.00624610082357109509115789,-0.00239218932804025584404339,0.0247402686985303821298743,0.999671373684701602968516,0.0447355351680264537450604,-0.0434792903693325405445336,9.79611850222755897732441,-0.0258736362639967361343185,0.0283411545000505464553253,0.00134770475414161322244566,-0.0107898093197860579089964,1.77365345525025608353076,2.58778476044913663400848,1121.55599332687393143715,1140.48191497718039499887,1144.97398818415763344092,1127.03191798766988540592,-1133.31584939868048422795,-379.008743854527892835904,-895.958255997717060381547,521.267928076277939908323,158.522891947928684430735
43.2199999999999988631316,0.177942932519578822514461,-0.175123439320667456664538,-0.363068164669136383970738,0.019671266700369560709305,0.0404195950652424182414357,-0.0012358253838990699430278,0.00626170176164376861283056,-0.00233002575784059095392875,0.0247223278256691186838268,0.999671852738488797562866,0.0440106582662641090952782,-0.0440048759960949276148767,9.79510542964765384965631,-0.0258672320942405775667794,0.0281670550909955026697151,0.00127036824372049584296052,-0.0108597223815951639258603,1.77372144447170021486215,2.58779189784583785183258,1118.44870798714600823587,1139.5159663377537526685,1142.68946735223744326504,1128.52806239728806758649,-1096.72123995317906519631,-333.031636076668917212373,-755.809116039949799414899,554.704857368404191220179,158.523685790959575570014
43.2225000000000036948222,0.504997186100274664255494,-0.350881457604203472744331,-0.211275727483323655375713,0.0193889764194935948493637,0.0397583656349637451499213,-0.00418474166826053248224859,0.00628450645998554664750646,-0.0022630172080277269688886,0.0247107416880307483031398,0.999672137469951760380127,0.0433164619028982914028525,-0.0440468777281609463747358,9.79428723244354060284422,-0.0258568220041562740751928,0.0279855817708999470017073,0.00118265609920554615012989,-0.0109283149578012842018104,1.77379080529827626300232,2.58779827419869068449998,1116.07238712710523032001,1138.81675679679619861417,1141.19494260395595119917,1129.80544227451332517376,-852.255512419761203091184,-252.983032200115928844752,-502.154559739681246810505,491.676647736743177574681,158.524420429256764464299
43.2250000000000014210855,0.867277781664180902332362,-0.518732290467341150552727,0.0627904367061263291027728,0.0198212697240087373784512,0.0383048931127192848755669,-0.00691317524701062433023502,0.00631682711953315389336039,-0.00219612894010952873491416,0.0247089581472131579464868,0.999672118320719338413483,0.0427459315611933496348307,-0.0435490026260925977563687,9.79368493379894289319054,-0.0258413769044710736610959,0.0277971503100450829937262,0.00108688120278220144883374,-0.0109956679472472534930816,1.77386163244195294019789,2.58780391748654237105143,1114.1874304250450222753,1138.25105117675252586196,1140.17869455353775265394,1130.986445635973041135,-638.712693303649530207622,-196.786561151836195904252,-328.358182497030043123232,439.049941552902112107404,158.525229921278253186756
43.2274999999999991473487,1.23312655000728210730188,-0.663161149502484947859671,0.406529112831284511475616,0.0213952165180610019701302,0.0366163082158968700152712,-0.00839018810560999105108149,0.00635862016865666821591185,-0.00213308313841565570095904,0.0247128449577367244327508,0.999671888839470224041861,0.0423603497712125506846625,-0.0425054574971721749188092,9.79331228849888191234641,-0.0258202727562035008745944,0.0276023144354755889384734,0.000985809068341437144331052,-0.011062496458293666692918,1.77393331235937878886944,2.58780885538613203422642,1112.87882366058988736768,1137.83282399103791249217,1139.55315169147229426017,1132.00069198227583910921,-356.073520118979729431885,-123.868104809189688353399,-162.527394425986670967177,347.475659673913980896032,158.526100644066332279181
43.2300000000000039790393,1.55590484987216770562668,-0.764081485303155893973326,0.761021990425797767443328,0.0250677031261556070018681,0.0347477904597428069455312,-0.00709246931544256671575699,0.00640814756891687226786347,-0.0020741009658603371847152,0.0247189916090388116243215,0.999671543709317211856558,0.0421459301820493112411548,-0.0409486640894655556932591,9.79317525007187938967945,-0.0257926882169101263919675,0.0274024294046093311316703,0.000882409617859045733272161,-0.0111290579249362382024957,1.77400471786219027237053,2.58781275099155472219081,1112.40706282444921271235,1137.63171065270626058918,1139.3660575814074036316,1132.72382393434349978634,1.54494799412453254205957,-33.085697123789387319448,9.84482858565976393094843,230.843581988001602667282,158.527044021312576660421
43.2325000000000017053026,1.82775577735680561097809,-0.819306813932769939512468,1.08551984779851595774858,0.031862857532890365153122,0.0320262064773589316679647,-0.00220963444205945179488193,0.00646490047026776221833488,-0.00202055830914327477082493,0.0247269345859338733617516,0.999671094206219579270112,0.0421070046544691836687413,-0.038895450722571625612467,9.79327056511696447671511,-0.0257574051062864281536058,0.0271998927386845577858221,0.000779840322768466428365874,-0.0111951491531771182841304,1.77407540136124786123162,2.58781538719463455322511,1112.88654840056051398278,1137.66739550541888092994,1139.60237583440061825968,1133.15490989221643758356,343.339963564352103730926,60.1882334684980264682963,157.473712930193386227984,73.0394408173406617379442,158.528258063086923357332
43.2349999999999994315658,1.92370299010294498742724,-0.802710663658434686595911,1.2015240330555485570585,0.0386244285865458975015585,0.0294916588136381364881888,0.0033961100362058086778172,0.00652544736079729067318445,-0.00196755782424137088890137,0.0247312218646312323433456,0.999670704756039030236536,0.0421192202138910912201375,-0.0364248377993717092904191,9.79358729163042163179398,-0.0257132253974725645540023,0.0269977219737280935141222,0.000681139455312872025595505,-0.0112619087664288866634799,1.77414417496658782802399,2.58781662951334068267784,1114.12376264226941202651,1137.93265182004847702046,1140.15342614605765447777,1133.0890211384298709163,636.760910411787222074054,155.277559540320595488083,286.194428145780875638593,-123.804925593213155821104,158.529336176805912828058
43.2375000000000042632564,1.87602459506600194316661,-0.719953728438976203740651,1.11391224099039498618424,0.0448686654267336990087323,0.0270360836519644431863441,0.00891249413819546199011512,0.00658630359283848831886132,-0.00190888286771594335201885,0.0247251493970764672780671,0.999670575130639282868117,0.0420287937005614578578339,-0.0336250984415050746534348,9.79410615614886914670478,-0.0256588118459499317514094,0.0267996140334949180250579,0.000589165593962292111901435,-0.0113309407394712128441805,1.77420938445715892228804,2.58781629883183317275552,1116.0703529526210786571,1138.44378330312088110077,1141.03334797513025478111,1132.53588526425005511555,855.259939892738543676387,245.917921159217854665258,398.072862621644219416339,-301.489001912096171054145,158.530480396157969380511
43.2400000000000019895197,1.72882950830036996592298,-0.589140969739479714029073,0.86091292865675617118626,0.0498491432673725184954172,0.024950332082934841698707,0.0135982626610713554921039,0.00664684596329180241158774,-0.00184364681669128491203757,0.024707465661125964373479,0.999670741384656613703896,0.0417853699455335500512199,-0.0305406356341069162851909,9.79479898763872114386686,-0.0255925790143443632196352,0.0266099661893026001591167,0.000506609378048224656861109,-0.0114026659683705913761465,1.77427071892955456888785,2.58781465090438134168949,1118.40006234173529264808,1139.16224142584519540833,1142.1437904591668939247,1131.58157612886861898005,960.215424203816155568347,337.980057831635349430144,484.076394786083312737901,-465.236545599114151627873,158.53167690981356940938
43.2424999999999997157829,1.50299412020347444851609,-0.417246118464097537348323,0.451440627553976181474127,0.0530898444049446999182251,0.0235851736539882603227447,0.0164900358908039446070859,0.00670605619941616690887765,-0.00177413678472570254633645,0.0246822711371546613112749,0.999671104097587304160299,0.0413997655904212516486673,-0.027234274324760499030873,9.795630550789319102023,-0.0255131256943547587989762,0.0264333980166892162921854,0.000435871230394863887376566,-0.0114764256196955953537309,1.77432837329409620608089,2.58781180148558220821542,1120.87143007363579272351,1140.13368359227752080187,1143.4537299490584700834,1130.20970253625660006946,1034.36069102884562198597,483.411666549212384325074,595.663953799199248351215,-667.978036136599257588387,158.532932924535231222762
43.2449999999999974420462,1.19270933133944545545546,-0.191465923851699665325654,-0.13069445728456799415973,0.0551770234989696697902595,0.0227522699722212881634498,0.0172829748173345780493104,0.00676198494484179721264461,-0.00170363787953452076873173,0.0246528368750901644146367,0.999671589420831452343918,0.0409027017073093426824393,-0.0237951060764519800594385,9.79656035046092021900677,-0.0254199775582401969742374,0.0262739412601624838794478,0.000378818022627734705271019,-0.011551027482297056628302,1.77438291180620666409595,2.58780812329819331907288,1123.57186579687481753353,1141.57929975858905891073,1145.12211022816018157755,1128.24168594818866040441,893.720270933770052579348,570.978279973113671985629,605.46836993017620898172,-745.143160800699547507975,158.534503682980982830486
43.2475000000000022737368,0.923604041404910813817253,-0.0084396776813371234687855,-0.614194915348619474571024,0.0561437433720397838232685,0.0227534261604634552300652,0.0156678992510910601587693,0.00681640233772921270288814,-0.00163845874267787685110709,0.0246257135345148495120249,0.999672011634601398455402,0.0403886693517419917420774,-0.0202471949604275530676389,9.79754325184587848696083,-0.0253136357021643797204913,0.0261348127470861293919491,0.000336530336378815621897059,-0.0116247162142300592552191,1.77443573712877245007746,2.58780449477509533195985,1125.34003142830692922871,1142.98857499214454946923,1146.48107179871090011147,1126.48398673225119637209,570.738965992658449977171,594.702163460229257907486,509.632473982686235558504,-691.696722029710940660152,158.535861299789104350566
43.25,0.643153731616915469437856,0.146373340530795897906913,-1.00855525735745921167563,0.0570868169657673188432945,0.0234064635085156347305002,0.0120606317021821115437197,0.00687040583565285637585029,-0.00158315592799288190964391,0.0246058182833830928204488,0.999672234001117931967428,0.0399219017577851567613045,-0.0166307945558761410831394,9.79853257885984341157837,-0.0251958896941102197808426,0.0260178511561270017771186,0.00030924823424618508912326,-0.011696411256393993149949,1.77448831558252551054977,2.58780151222497556418034,1126.42556062683956952242,1144.55281057589172633016,1147.67027259807491645915,1124.78320233803833616548,317.856863897320977230265,707.124619798248318147671,453.836284870707288519043,-702.807798563847200057353,158.537263797580408208887
43.2524999999999977262632,0.265941908246025038309313,0.280862092846943522950198,-1.30305212870989750584272,0.0583909299534039680223962,0.0246115683927630446437007,0.00650283440058392527699516,0.00692301455901057384567654,-0.00154203497995598491805691,0.0245973180589536925821914,0.999672154146691749332376,0.0395666561147217446525737,-0.013028407055970483985341,9.79948205970259955677193,-0.0250695975666750947574712,0.0259234494581197759399682,0.000296578338025819281988105,-0.0117652743405351114386326,1.77454182445861907702067,2.58779923757417984475637,1126.92931574779208858672,1146.52419809113257542776,1148.75025322306237285375,1122.96994773943515610881,75.4965115682421412657277,725.521600934363846135966,319.950001182014602818526,-612.595906371921387290058,158.538991820236134344668
43.2550000000000025579538,-0.109133564636315016915802,0.34339977189959530745611,-1.3691223783728627694245,0.0595800121610515764913885,0.0258158769413926146574223,0.00161160571952310266961861,0.00697495406993983973337192,-0.00151545143122196039088545,0.0246036268994662445097621,0.999671683065749161478664,0.0393177354777290780085686,-0.0094864498160851101760116,9.8003474124593079608303,-0.0249383616746564444610623,0.0258506309746702502005977,0.000297217256337047302378052,-0.0118309500599846541962767,1.7745972114497710059311,2.58779768224772688256508,1126.80304318468097335426,1148.18041858056540149846,1149.27002260398580801848,1121.72022280617716205597,-112.957939044814764883995,649.969215782570586270595,117.026962731173782117366,-439.119311734159964544233,158.540464226621139687268
43.2575000000000002842171,-0.57110030221175156484037,0.354465561137077278530683,-1.24293037408332018856072,0.0605923005028527403292848,0.0271084913031108785952394,-0.00325331977323949170927131,0.00702672165015109755070721,-0.00150129821562039575573444,0.0246220917185429773177407,0.999670885900314720728943,0.0391290374679451394279717,-0.00605103521599632820926473,9.80108814683759632657711,-0.0248063812442045061867901,0.0257970133809334693786308,0.000309251138636866334478276,-0.0118936447642647331879306,1.77465505186909777712856,2.58779737776820706329772,1126.36452605256772585562,1149.77404417004709102912,1149.33538803671854111599,1120.77435118076323306013,-180.972393419807275449784,615.595095149333815243153,-47.1825757289454301712794,-328.772587328311374221812,158.541963976513045508909
43.2599999999999980104803,-1.10555828851929160983047,0.328619287573679197400622,-0.974506733943726444202582,0.06095463198854136205318,0.0283133360140558378026387,-0.00776476601069346888256417,0.00707877210244744082406898,-0.00149863653902300246988089,0.0246485109823035182519124,0.999669865305200189276036,0.038985137322262643222448,-0.00276443777507442978169649,9.80166854839964507561945,-0.0246777751950007229186923,0.0257593786998001270105441,0.000330484461897465400803675,-0.0119536600944829679571413,1.7747156121239393566924,2.58779876842238909517846,1125.89818121758275992761,1151.2583940563092710363,1149.034109725341295416,1120.07635986953710016678,-140.83880324216877966137,551.915554201186296268133,-191.400947615231729059815,-223.800666203964397027448,158.543481599918209212774
43.2625000000000028421709,-1.69569001188443890804081,0.271602381107850787689273,-0.582570433478546645389429,0.059451467546227820815119,0.0291946938168626130005734,-0.010635034992105749790392,0.00713023640557913437887372,-0.00150375450998602817540006,0.0246790519740628273848149,0.999668729241278586350461,0.0388232207607925108860947,0.00031322830280000601987922,9.80205966300813358316191,-0.0245560822943096737636104,0.0257341632850738855076145,0.000358509674755878144335186,-0.0120114824897427762556701,1.77477860802736264744794,2.5878014273415126389466,1125.66033203635652171215,1152.53362194105443450098,1148.37838329864189290674,1119.65534784974283866177,-3.86365507042485356592465,487.778903070353067050746,-332.891589345593047255534,-126.943677151101468325578,158.545014820913053199547
43.2650000000000005684342,-2.38587420508785630346438,0.189451328796226337036757,-0.0582242529378678153051396,0.0539731849088885898280132,0.0298185676779453984197588,-0.0106638874321629655017585,0.00717711284727596317972731,-0.00150982444237399626371654,0.0247060806266082913507098,0.999667706297324376585323,0.0385243763162421773427191,0.00307040572807210088157603,9.8022407074553257189109,-0.0244441436713964156679513,0.0257176331249869376260886,0.000390984494152610793926694,-0.0120685377120323504562815,1.77484269206122924344982,2.58780444865361314299435,1125.87886294223062577657,1153.6972885716622840846,1147.36965177861247866531,1119.44164148378126810712,178.226833634588018639988,342.87891322023176599032,-375.056123879335302717664,-31.3685202720365552409021,158.546864828928477209047
43.2674999999999982946974,-2.86977474840219493046334,0.126729193931371691972387,0.357224762543189022778733,0.0461710114233265592198485,0.0300291955772795764179062,-0.00818232487120258873691814,0.00721532676181254033903612,-0.00151144327828355148554684,0.0247231581684151102695779,0.99966699494215638388539,0.0380032686973125269358498,0.00540221953280171918176933,9.80219853934904605807787,-0.024343659292324484194614,0.0257063917648596117204729,0.000425813573900445650234625,-0.0121263751745822288830023,1.77490620019367262294452,2.58780715501376823439728,1126.55146620452865136031,1154.24801650715403411596,1146.50310267924692197994,1119.49850524838279852702,359.544436024860033285222,103.560939401033238027594,-318.20803085826901224209,75.0802724763232305349447,158.548409059738816040408
43.270000000000003126388,-3.17835187193482271439393,0.0886043795794668742615841,0.696191805104549144012083,0.0364049895056291206163479,0.030016012348114049640424,-0.00492755054471499635837528,0.00724259705308976080989636,-0.00150649993826436063952545,0.0247305267518277277494221,0.999666610633513252892612,0.0372448197715265147400565,0.00724607793226676732967206,9.80192738049040457326555,-0.0242549362563820730676056,0.0256977020508291978395654,0.000461140457723215036172498,-0.0121856765277187275436921,1.77496851326574933693792,2.58780927462635546021374,1127.67658512235584566952,1154.21509326866771516507,1145.77861162432031960634,1119.8170428461630763195,496.645782094784067339788,-129.257167590846876237265,-248.586862273541697732071,177.388562766009471260986,158.549948995540603391419
43.2725000000000008526513,-3.30621785339269314007993,0.0820513626387869426936916,0.957784197636332712555429,0.0264151332134810422347382,0.0298918582845429971206475,-0.00188202926825367070247375,0.00725956822511146342147281,-0.0014935752688824989724975,0.0247327710840725724372735,0.999666439597688749607585,0.0362522539480894662178301,0.00860545532595988205137871,9.80142900614715983920178,-0.0241772162836987117295884,0.025689268355750975031393,0.000495085998918398987288236,-0.0122468258418987809704737,1.77503006592283885112238,2.58781088760470412424297,1129.03469511500384214742,1153.60173066919946904818,1145.26016836787857755553,1120.38544806221329963591,546.495453124176947312662,-396.130503656146288449236,-147.035791736331731272003,296.442726134452129826968,158.551480718568058136952
43.2749999999999985789145,-3.20930876624824801268687,0.122477162620533222558983,1.13266406114947759675715,0.0171682418039560552580625,0.0297241824091963313669851,0.000755075431580010895254995,0.00726553411467291236636168,-0.00147177500164991353209798,0.024732315675196528403923,0.999666430527484384249703,0.0350397648247911946972621,0.00946656025385027299900997,9.80071372851731581476997,-0.024109297154265095508574,0.0256787943181739017339815,0.000525866792275815533169725,-0.0123095766244239179787456,1.77509138744657146702366,2.58781230676864248962943,1130.40906238797424521181,1152.23444075038878509076,1145.04343266563932957069,1121.29925647683398892696,529.366142074288518415415,-764.120139677670636046969,-22.6120470011549343780644,485.636417710408579750947,158.552997895393758653881
43.2775000000000034106051,-2.85926508464969320044702,0.22933888167392510459841,1.26123593033030467758238,0.00758462024708977250453401,0.0296096384284136072972959,0.00360237886808993223314301,0.00726389821614822819156876,-0.0014433988079798679409621,0.0247339659674641783315696,0.999666436441440153792826,0.033686541813615890339495,0.00990313339305032291903785,9.79979864382226395491671,-0.0240495806347946969316887,0.0256641565935992986557945,0.000551590518197086392485073,-0.0123729740039862836503692,1.77515357040539001332036,2.58781415447047402622616,1131.68152582537663874973,1149.78112997080916102277,1145.14710813287274504546,1122.81363015076658484759,349.178899818938191401685,-1005.46930445082978167193,95.7057070132542975215983,616.23830888948157280538,158.554796963496130501881
43.2800000000000011368684,-2.40675380624811197094459,0.363356532551140254394539,1.31146872525790514352195,0.00100727615230971376085456,0.0297183990622439421491752,0.0060691530262633212530754,0.00725637806584666054943167,-0.00140628062582058002347174,0.0247385710336580806611995,0.999666425715269868490509,0.0321821602754542718249908,0.00996637302219731402441738,9.79870950433047127603459,-0.0239966062955349161700536,0.0256431466680740564878516,0.000570178369301250565284733,-0.0124366122953132318684766,1.7752165324593860429303,2.5878169114251616811373,1132.15495688706982946314,1147.2070942281320640177,1145.52196120070584584028,1124.38044802128297305899,19.8128700456616684277833,-1083.43439923185860607191,202.115486711365633709647,662.534306142572404496605,158.55627569366166085274
43.2824999999999988631316,-1.83501025707419107568796,0.530376765209736422690412,1.30568296377855119771993,-0.00417263224814302946530375,0.0302458816962006826756237,0.00908230935639003575388095,0.00724252868028290534146985,-0.00135848709990858901655586,0.0247463014820769114376908,0.999666399978037301110589,0.0305178368705587774178944,0.00967199857924487538252123,9.79747970501879983373783,-0.0239489767857706155329556,0.0256137504452131452292729,0.000579705370396130671012402,-0.0125005676158042849238639,1.77527983097200814377459,2.58782058599896780393124,1131.78059017560485699505,1144.36395797465479517996,1146.15768556642865405593,1126.12630168147643416887,-382.219194602780589775648,-1233.72413150705688167363,325.524700505472424083564,760.515285148469274645322,158.557731192832648048352
43.2850000000000036948222,-1.06985414340367768204487,0.740830109061479724630317,1.22939647167874377409191,-0.00843088992012738618064827,0.0316358408440113592074994,0.0131204691893750322040368,0.00722246189932431413571745,-0.0013047922864256713063047,0.0247597672073799901504287,0.999666285359196438164986,0.0288141815451940924708296,0.00904889094536434623883281,9.79614817610158894467531,-0.0239052482640465316365841,0.0255744087258870309020686,0.000578703669091594919554611,-0.0125645282343693626136982,1.77534388547905286337425,2.58782488370209673433919,1130.24386091405494880746,1141.03847357059362366272,1147.14958470323404071678,1128.18302444702726461401,-735.549162039011434899294,-1147.45278146524879048229,386.930827310727522672096,708.97839564827449976292,158.559450004709958648164
43.2875000000000014210855,-0.41051996486967484711883,0.8973819089386695369015,1.10594297184737766492901,-0.00995524706461438195492786,0.0335771172938390746742776,0.0165205666609637633057694,0.00719872831014635363583443,-0.00124698940698741772212244,0.0247762225605655389548687,0.999666126182828684854087,0.0271310770943340509586683,0.00817982736048679381912763,9.7947589981690956761895,-0.0238643853257958712954512,0.0255237508896335729691174,0.000565705066616051330946613,-0.0126287272605649630169422,1.77540885332625397730055,2.58782946207925057535704,1128.10284436540791830339,1138.6266940673256158334,1148.09233970298328131321,1129.67119365971961997275,-998.244414760300287525752,-833.491443424448789301096,378.601602855022633775661,510.195333384454158931476,158.560859379926768042424
43.2899999999999991473487,0.221154937231801823616095,0.998800756089771146761791,0.925499092780928123147532,-0.00927791067194254012728827,0.0362962771467775918710075,0.0197080312489906414596952,0.00717538351955294625983406,-0.00118608282863594065824342,0.0247922708870403282754857,0.9996659746115107436637,0.025510316044525048473357,0.00718009668728926409020374,9.79336016224630334647827,-0.0238255514160223592912136,0.0254609581569763300523679,0.000539466072657395238551525,-0.0126932996841737245202753,1.77547434235228340781987,2.58783415972814312411288,1125.25263884025798688526,1136.87101635347517003538,1149.0425927175074320985,1130.73400111394721534452,-1215.89528169508048449643,-566.441664718587503557501,362.169844160958973589004,337.366133096575367744663,158.562245680176772566483
43.2925000000000039790393,0.79957139105578856064227,1.03026779583164640463622,0.7100988569618357226787,-0.00725876766416226181649618,0.039473736286252787686113,0.0224051094581793654170188,0.00715469091768340410136817,-0.00112448523473784303336465,0.0248102967371803782847817,0.999665750297658362022446,0.0240174104410503450046654,0.00612971912929606566056151,9.79200273076775218328294,-0.0237878180206279321584617,0.0253861924321291711204029,0.000499275596084688315715039,-0.0127570647136720123626663,1.775539918693785246262,2.58783887439499116212005,1122.02336795692940540903,1135.79448574373122937686,1149.90318892378900272888,1131.35802432520335969457,-1322.43304156154977135884,-257.85816528300978234256,298.611460125659505138174,139.152601574161707276289,158.563613007615117567184
43.2950000000000017053026,1.2899589937999853539452,0.957146804938522333117135,0.478639050432652424227342,-0.00424682373826574133951484,0.04292337930101908227698,0.0238864313883215793887782,0.00713701402811663544040188,-0.00106163210849207108321668,0.0248295742332448124423117,0.999665467722292255814409,0.0226547703916901987941657,0.00507253917282092514628999,9.79073971568224088457555,-0.02375060038526053546315,0.0253002322652039202122154,0.00044476920614309296223704,-0.0128198354488800580347485,1.77560456209391159809741,2.58784347824034810514604,1118.64047363244685584505,1135.58172552705946145579,1150.53565001813649359974,1131.42976412181837986282,-1441.36107514554282715835,86.034315912353150679337,195.399741848082527440056,-82.5449226712703847397279,158.564956643288439863682
43.2974999999999994315658,1.75822855555576351704872,0.740702226468973656814399,0.222953711469728727001538,0.000154315437143355072349693,0.0468007360193736995923608,0.0240087250346336898709776,0.00712291405761040618410673,-0.000996882119228747467717944,0.0248483218442713260643018,0.999665168003589732492742,0.0214196942474668902689494,0.00405418982472548206086316,9.78962364994546518914831,-0.0237134470438432817807062,0.025204525488721932907632,0.000375977102200299542235362,-0.0128821659672227594589655,1.77566733453345904081289,2.58784807092761681701631,1114.81656258120824531943,1136.22465732329260390543,1150.88018763302852676134,1130.9452997118473831506,-1305.24789672741985668836,351.087684833512412296841,37.7507856678482909273953,-250.873326309200706418778,158.566539240877546035335
43.3000000000000042632564,2.03783888926296397059446,0.463506220565333915129003,0.0531007269472630119566681,0.00459128133585431138369293,0.049253868330234117089983,0.023170753776366358883676,0.00711530017523068734897063,-0.000931442435104665395276258,0.024870201665283753200697,0.99966473783081977178,0.0203436327019566112750404,0.00316145098101960897452045,9.78870425175011682483728,-0.0236756264949493783200651,0.0251013248307064840147973,0.000293329382870533884614811,-0.0129441585139998070058676,1.77572846625729230396473,2.58785296791347230183078,1112.11423414880641757918,1137.33716395122792164329,1150.72440394647583161714,1130.17539749027173456852,-922.818969563496352748189,508.398759135083309956826,-170.339249014345284649607,-347.592335910580459312769,158.567830576395152775149
43.3025000000000019895197,2.18911639958687898044332,0.116517034683908157766119,-0.0588161269930606717126764,0.00996241193299397462257438,0.0503789165145974576764942,0.0221132942498887125060136,0.00711540289410609542303243,-0.000865326366295082836238572,0.024895180646397337825837,0.99966416949391712076789,0.0194299233833704274032605,0.00244452517099734423222657,9.78802789393294503383913,-0.0236365603788390166162259,0.0249930184828417098485964,0.000197758477938991361448628,-0.0130063639042683944907486,1.77578769352855103669242,2.58785792932935132526495,1110.2024677333884028485,1138.76665111896932103264,1150.02849138795636463328,1129.20733803229359182296,-615.507134353370474855183,629.970926039122787187807,-433.965849868112798048969,-422.326952646264828672429,158.569089018296779158845
43.3049999999999997157829,2.20844670520609298591808,-0.329691318932945454101002,-0.134753377470202134746913,0.0171090641540503907158666,0.0499619046553283693845593,0.0210970255626868885556746,0.00712337074442736650076169,-0.000797001539711658700884667,0.0249204007614952129101571,0.999663535907685196768568,0.0186473483497809483511176,0.00192813783398744498231991,9.78763580379235165196405,-0.0235957931478968166438825,0.0248819318407834978723603,9.07052382838610465280033e-05,-0.0130687827819867801587561,1.77584482459681791688411,2.58786249683656155440303,1109.03669847704236417485,1140.48701858142067067092,1148.55457469713724094618,1128.06376272704233088007,-229.027320748745324863194,582.413379876954763858521,-634.84811192814493097103,-380.038881033242489593249,158.570554619745479385529
43.3074999999999974420462,2.08583513451494217960658,-0.686736850301226109394293,-0.167477707296148164983762,0.0232737139062244198506324,0.0484058168541702735221399,0.0205862281799487588374031,0.00714149565023402838753741,-0.000728725140412605641888899,0.0249472943865534924068328,0.999662783478003857950966,0.0180367556748776691755154,0.00167123874361521651543683,9.78756134151763035333715,-0.0235526791876230698341566,0.0247704096548102027652849,-2.57647974944043419917583e-05,-0.0131306482138337128617867,1.77590051886953315118944,2.58786669158394433409853,1109.05733112964571773773,1141.67871801835144651704,1146.85425082831852705567,1127.30714362712910769915,199.032410228153850084709,380.536151148804435706552,-745.69878691452731800382,-225.168997615422398439478,158.571733141905241382119
43.3100000000000022737368,1.82888549018354229502847,-0.985398021765456322285104,-0.19643417244498265206154,0.0290619361419331631579688,0.0458231637681293726971354,0.0204066578316355745625899,0.00717022290153952138874738,-0.000661649797843722668570787,0.0249729152679424269700714,0.999661981459426418616943,0.0176127395634691000236849,0.00169192647947973007216405,9.78782989052980667565862,-0.0235068250868019322508129,0.0246601799350650227604653,-0.0001490151545058995927618,-0.013192152374141473403224,1.77595534747711658596359,2.58787024702552459487492,1110.0318605281836426002,1142.389699337165666293,1144.82608076256269669102,1126.93791773896464292193,517.157005689076981980179,184.787974919341706936393,-830.166735266523573955055,-66.3041739745610385625696,158.572859472117841050931
43.3125,1.48098333032778484152914,-1.20921999489676257333315,-0.242742752177321524653664,0.0339376019087165858856281,0.042341878878804896368937,0.020417732106813062803452,0.00720738828495947822516676,-0.000597747190556167885475136,0.0249937455636168870398706,0.999661233224400702646051,0.0174013404694870477129598,0.00195163617829491320421198,9.78845769851273850292728,-0.0234578713536764717206839,0.0245523970903871839588373,-0.000275751327132068961307115,-0.0132540359286426427665173,1.77600983015645041973585,2.58787273552061636294752,1111.64311615809242539399,1142.60265789294862770475,1142.70341715198378551577,1126.97562275725613289978,742.744344031000537142972,-37.6806860097419118460493,-821.687995842122973044752,114.746644315041294248658,158.57393660341065810826
43.3149999999999977262632,1.06306694048047245537703,-1.32187393199249925146432,-0.328553953918672037026738,0.0370940783361337483858833,0.0381580735053994105077102,0.020501625547962080975406,0.00724883002376609103523109,-0.000542575145761820258789865,0.0250109626864264446288733,0.999660536303839331040422,0.017495055248004681702767,0.0023659001507101151684509,9.78945068265085183156771,-0.0234052509554132301405893,0.0244478444611872097746996,-0.000402013480525943798365995,-0.0133157449882228291065944,1.77606487211508867751775,2.58787349286746604093423,1113.74558224833526764996,1142.20129590711712808115,1140.71764078335581871215,1127.51165096053932757059,956.284774680272789737501,-294.787695462158978898515,-778.552391448794992356852,323.989992283047968157916,158.574947702127587945142
43.3175000000000025579538,0.540696274468653204081647,-1.32153046924372130632719,-0.487791791259539586622651,0.0386573099140478312896185,0.0333468446052071834651009,0.020413482362177368112377,0.00728920799454608418083135,-0.000496152881148266469008012,0.0250237897449702671737182,0.99965994831282323218602,0.0178743180657147324175149,0.00282593024616710486451865,9.79080450920294609318262,-0.023348540271647903049379,0.0243466713299214654320224,-0.000523824615858822805782025,-0.0133772054493420493315181,1.77612058831065944275451,2.58787214793605535589904,1116.42454003149623531499,1141.12871941563707878231,1138.81065519473781932902,1128.59557271867220151762,950.035310926173792722693,-457.334398792084130036528,-581.65867823420092008746,431.429477733224587154837,158.57607668118299670823
43.3200000000000002842171,0.128257840307883369534991,-1.21707419349677814501831,-0.663044158155675300569953,0.0382743272872047013422048,0.0299368221636135654895039,0.0199274989040579587895596,0.00732493047688992544863584,-0.000456987896966573939588202,0.0250318634040418395991789,0.999659506523865926119754,0.0184880991585289061740482,0.00325443859252891320998913,9.7925035746722421947652,-0.0232873298952329423061602,0.0242486222206796143974206,-0.0006373805775461762477066,-0.0134384491550839091367209,1.77617689142347168207436,2.5878686599959235259405,1118.49575880296856666973,1139.91462391315553759341,1137.80934739218332651944,1129.66879834920655412134,740.617401395493857307883,-497.828652532641910966049,-250.964492064168524620982,402.431348501070203838026,158.576941851198398580891
43.3224999999999980104803,-0.228471664130193263808621,-1.02477115650305705685241,-0.862177712372494742254503,0.0366386840503262131707451,0.0271748463782468668847869,0.01865915910150837964121,0.0073559345786985558257598,-0.000425541250711804219537121,0.0250390329881044100546195,0.999659115909951934142441,0.0193231217423543433220345,0.00363917418971652917303317,9.79452070269016061843104,-0.0232210193043333699980391,0.0241533490524492994167005,-0.000739244604710022519544754,-0.0134990447013552585658891,1.7762345542113893159808,2.58786343423312237277401,1120.12762703847033662896,1138.63957615297613301664,1137.55583273441811797966,1130.60772946117572246294,558.152315586117765633389,-476.602897198683365331817,25.1404126210089629012145,305.535739858422061843157,158.577722660691904366104
43.3250000000000028421709,-0.532323677256839711269265,-0.777659359918315140625111,-1.0564278261888744303576,0.0346329667907228980205936,0.0249192474059367341521209,0.0164946290459177143106206,0.00738374060392467390645521,-0.000397645247077888658055606,0.0250455480104017219611379,0.999658761713921539815431,0.0202736491980806537993587,0.00399926404561752601996005,9.79681890393702303754253,-0.0231491460860810197019966,0.0240602265241711757437493,-0.000826814409212283350780748,-0.0135595877234111136799832,1.77629353959389257866519,2.58785733806275519697238,1121.28652038090058340458,1137.53160942716090175963,1137.93504945528843563807,1131.19647704849944602756,351.295850674889493348019,-356.852935895403106769663,283.772325246755258376652,106.589801937198032533161,158.57842956309949045135
43.3275000000000005684342,-0.784248836758990375273015,-0.48741681765416489113818,-1.2096856446171453391969,0.032759422829490549011755,0.0232516206418097205743667,0.0131406679257868742177751,0.0074090439772653976513439,-0.000371340675141164713868314,0.0250502811827904639518927,0.999658469978005448375313,0.021274604126038147711153,0.00433505654955802788297348,9.7993525142566966223967,-0.0230712556368660830219408,0.0239686802359115845584281,-0.000898041945393569557461177,-0.0136205706942756736566036,1.77635279165126647171746,2.58785138678060233630163,1121.88410629184568279015,1136.85531147349820457748,1138.974694360652620162,1131.14067847086198526085,167.629553301837972867361,-156.790821812098130294544,559.438079722085149114719,-198.700296385640001517459,158.579043062093404614643
43.3299999999999982946974,-1.05442237215514378334547,-0.121340908611690431739838,-1.30682056206330243774971,0.0307155642782875604179793,0.0219696305126450067146671,0.00821072357207783612431662,0.00743385675291558748606358,-0.000348862405571696420226308,0.0250566795890069873853356,0.999658139430795400492968,0.0223423721314345916089117,0.0046689932532743144699694,9.80206796044721428984303,-0.0229866585061930528421925,0.0238786110268895436503644,-0.00095147207381506048243236,-0.013681449254655251787649,1.77641164326349287883033,2.58784624208599112193951,1122.12466814740901099867,1136.74765531810112406674,1140.73223985389631707221,1130.20297556657214954612,48.1596080240005122163893,91.2670953885923665893642,682.823767339974324386276,-478.952191966237080578139,158.579666377657417797309
43.332500000000003126388,-1.27132323931315793785757,0.171425635064970355303515,-1.29897657891717366318574,0.0289064446295063393055358,0.021746823249698055829926,0.00410687710755088062480889,0.00745882801539060613649212,-0.000326251673062477988776497,0.0250650910205029130162213,0.999657756903483352139972,0.0233697656666369754652202,0.00499915425386525391626691,9.80490689826974204379439,-0.0228948393617424417190165,0.0237900730444480686121,-0.000986516649676778302480162,-0.0137425522827374392564881,1.77646943921163535939911,2.58784200101944472649507,1122.12490433196580852382,1137.31164695044139989477,1142.38881319735423858219,1128.74591751102957459807,6.27093101624857141018765,357.101577934553574777965,647.651465421800594413071,-678.919258284366264888376,158.580088614336347063727
43.3350000000000008526513,-1.4890862500801285150942,0.414081464082248773550532,-1.19693161933990688261531,0.0265440020999733773676699,0.0226793837402387982171703,0.000551637799073541931077491,0.00748401645230455277169046,-0.000300469235826378484616878,0.0250717237617287189155313,0.999657417237911793961302,0.0242661253784044739223447,0.00531130651592118252501962,9.80780717288811132448245,-0.0227955699473545887745463,0.0237031585587192013264701,-0.0010030077824823831287443,-0.0138040243636361591866857,1.77652576376089088583399,2.5878385314457195143234,1122.15602280249026989623,1138.53316320777480541437,1143.9704971810069764615,1126.80837927514858165523,58.9719256390789894339832,660.784637217748922921601,629.421007078626075781358,-882.815459612159315838653,158.580406772898527378857
43.3374999999999985789145,-1.74152619660425211911559,0.603626073267602203387128,-0.979768580884819106913142,0.0226366076857337818195592,0.0251400198440034222668871,-0.00311167135838977563719321,0.00751037098381844570038623,-0.000271116194298372649527235,0.0250767716406725370281716,0.999657107794865606997803,0.0249930313911624624179098,0.00560669754597049874167425,9.81070409016918176803301,-0.0226886022394559919157508,0.0236182269724257640208798,-0.00100104515319372235071516,-0.0138650821353409076791552,1.7765812628998736144581,2.5878358110613493003882,1122.41976396016093531216,1140.61557013652713976626,1145.53591823274450689496,1124.33184021297279286955,144.426949891129652314703,832.790990045197304425528,497.208977164173404617031,-866.577094139813652873272,158.580665203028331688984
43.3400000000000034106051,-1.92574810740548962861851,0.652251908360596321934111,-0.737331691805015121410349,0.0182832501366940840259456,0.028053216380685152414598,-0.00573342702528605724365818,0.00753789921142356423439113,-0.000235545042029640898503459,0.0250776258080044819887,0.999656894392418338135542,0.0254676750700984777520119,0.00586951034586451203534097,9.8135330523114294720699,-0.0225740244570538442503427,0.023535462659548235520024,-0.000981018163511981249394478,-0.0139256244663691491902924,1.77663631857592640983512,2.58783315496551002965475,1122.87815755194628764002,1142.69711815800292242784,1146.45654206682911535609,1122.47549380444729649753,224.418387491072053308017,856.725569563075737278268,280.711173588853966975876,-627.367044122363154201594,158.580775988588101199639
43.3425000000000011368684,-2.05493936584839520520518,0.577063770225489047760448,-0.459945473615356037466739,0.0128581315537074341442958,0.0313584436337581290432652,-0.00759865474106553168143208,0.00756407619184618160851352,-0.000192129711480134278151627,0.0250716270148259694205972,0.999656864060715411035574,0.0256271274162541209951094,0.00603418565025906628029873,9.8162313709214803481018,-0.0224521229643663625119565,0.023454927853284686378732,-0.000943327704687593206721308,-0.0139858614410649575998669,1.77669077716982037884463,2.58782979800923307323046,1123.54185589761686969723,1144.89919798434470976645,1146.93947410068949466222,1121.19500499235937240883,282.852633479235805680219,865.126851919026307768945,125.467989556478158874597,-379.147250374152577023779,158.580776638138104317477
43.3449999999999988631316,-2.12099389149884043348493,0.411819481882309545994758,-0.181471215552767212164653,0.00700828136726230118552783,0.0341957558277430004323172,-0.00822760263698208565985581,0.00758695698098813247484129,-0.000143093259742508378991321,0.0250612560626058064605637,0.999656968677992252558795,0.0254865810617530760828764,0.00604505281117893866760227,9.81873900341241068190357,-0.0223231267174908015737955,0.023376734861409197152593,-0.000888454231816315602443535,-0.0140455284895438445302851,1.77674492332591094090333,2.5878255598763568734455,1124.29242071934118030185,1147.02275241759411983367,1147.08388201461093558464,1120.5797575525782576733,297.997511164369257130602,793.449286898206651130749,-10.294633126426750990845,-69.2778537783952117479203,158.580685157407373253591
43.3475000000000036948222,-2.10094944545172390704124,0.179551978513671051107536,0.0627910003576750419540531,0.00133137446646309142925246,0.0352623174833035166186868,-0.00711453743724515304952538,0.00760561418388557616138135,-8.88110154179198982207083e-05,0.0250458824640936335292896,0.999657230811993091634804,0.0250279342989747632941544,0.00586905848842762811745644,9.82100067895616923863145,-0.0221875723918924482036541,0.0233006293532973841886591,-0.000817363769502407527464682,-0.0141050822684247664784429,1.77679892681437268109335,2.58782070316578138857722,1125.03184345343947825313,1148.86644441883777290059,1146.88800093505733457278,1120.84861572346721914073,299.700353973031667464966,711.087451472258180729114,-145.311157812028113767155,304.112909729591535779036,158.580482087557243175979
43.3500000000000014210855,-1.97866091830450141486608,-0.104739418568685210830793,0.285714840609494979961624,-0.0050241069514965677050844,0.0343327145367798847175322,-0.00481429731462429399968528,0.00761766383922375407006244,-3.03063544735206156512629e-05,0.0250240091958560673113254,0.999657706606084661693501,0.0242485114868997084225377,0.0054463228977675581798934,9.82296785067907407551502,-0.0220462091495985390565693,0.023226086727376429874603,-0.000731414336002937171335447,-0.0141649617519604489879192,1.7768528891145178860711,2.58781546914123783409423,1125.79092248920710517268,1150.57818967495722972672,1146.35732622555042325985,1122.10032210122699325439,248.40520570773915665086,528.243711338544244426885,-232.042880207411172932552,575.351327720978019897302,158.580109433907324500979
43.3524999999999991473487,-1.8029524216213690390731,-0.297539745371684094532583,0.410249412993859641218819,-0.00991107608790498494089061,0.032377144215588044007248,-0.00298340159692622600498546,0.00762074507725285857362429,2.74296749374503989369559e-05,0.0249998380639473750941537,0.999658306763542947592782,0.0232282778653279953218203,0.0047174749095774265450487,9.82459957922631410554004,-0.021899749290814073815481,0.0231526150469928623798488,-0.000632380674747885047556895,-0.0142243334882613346042968,1.77690716726826436477893,2.5878104241925896644716,1126.27386948197704441554,1151.50766297552809191984,1145.72778653402133386408,1123.72537236206949273765,160.980406158350376699673,260.62240382948709793709,-281.18253032379635669713,706.408912508234266169893,158.579692095844166033203
43.3550000000000039790393,-1.56626232614818561295067,-0.406880260409389404863134,0.489342015161964627445457,-0.0142059830048177331701664,0.0298485562307031597473195,-0.00171511141614504643987393,0.0076137573107459754692683,8.22430265596385675838653e-05,0.0249765418383918851030767,0.999658957504165224250414,0.0219970087585507276251029,0.00365248878783938635272932,9.82586425477763292235522,-0.021749204208154137435427,0.02307949446182720396048,-0.000522858727958521547415915,-0.0142829043497264031314931,1.77696156291945350780281,2.58780647231131233354517,1126.59582451999926888675,1151.8813016941053319897,1144.9514135739307221229,1125.63236666376997163752,105.374965618230575614689,58.9180566161456766849369,-330.052610634597272110113,757.805005147359906914062,158.579165653998927609791
43.3575000000000017053026,-1.29451774330804325607858,-0.439007182624255254399515,0.552501514714272112804849,-0.0177580450472503877101804,0.0274656742139736294305852,-0.000930114065810997933149429,0.00759758553202194777953515,0.000133104364257707728389987,0.0249570058614861749191061,0.999659578110271396234054,0.0205689400363934307702785,0.0022644963404611917479059,9.82674038269886729324298,-0.0215958195631796509572631,0.0230058650641236477063512,-0.000406155488747850950716212,-0.0143408722699140608880519,1.77701596069112532916279,2.58780435300870736980983,1126.80074431006846680248,1151.80225325860897100938,1144.07752348084750337875,1127.5143973878082306328,59.0377331707341355127028,-129.065081928937672728352,-366.328893013920890098234,693.238090894777315043029,158.578550749461328450707
43.3599999999999994315658,-1.00196202243565357647981,-0.391703378395165613401474,0.620543495593393834575124,-0.0203548711471077774237681,0.025892297877337745737325,-0.000519527767307445976358027,0.00757359977245383123728439,0.000180654222200981744205286,0.0249441112512904829279226,0.999660085222460970122427,0.018931876440187588028774,0.00058091767271760408331005,9.82721775689780407958551,-0.0214410178548970625778125,0.0229307851171650957378123,-0.000286070620967223310411598,-0.0143984246803667281788819,1.77707066388789258759573,2.58780401184925112900714,1126.89101318585267108574,1151.23597628446123053436,1143.11976910886278346879,1129.09855711824070567673,19.1211628326429909918716,-332.63426744980540661345,-426.23774130384867930843,583.087539848995220381767,158.577832468998735748755
43.3625000000000042632564,-0.653856604026735621637556,-0.279038826509994064561937,0.723524527613240375778503,-0.0226234485186339213946827,0.0249912564910568062159779,-3.58075014732419104378572e-05,0.00754287217844075083550415,0.000225818010012689731865268,0.0249391864652684196179688,0.999660437397434931128259,0.0170743542657547028862375,-0.00137222666449708652347539,9.82729789889352645104736,-0.0212864520708521756664489,0.0228532208745801795890529,-0.000166575728134702512762272,-0.0144558590229694299000851,1.77712562949261343447915,2.58780512780016325180554,1126.89635012423173066054,1150.13908192135909303033,1141.94633477432716972544,1130.42983508705469830602,-11.8225288396327865569901,-440.926372275227549835108,-418.801261494731477341702,381.707359690504119953403,158.576856385157327622437
43.3650000000000019895197,-0.384356986956080171058403,-0.168434337120310390067957,0.822561028642976865832281,-0.0239488102316107731581951,0.0249519446734236295670772,0.000726912936672106761715195,0.00750667242106140171487016,0.000269888693691767468652021,0.0249411279300016455739986,0.999660652740388067094557,0.0149845350403822186180491,-0.00356036625788129501568591,9.82699391687373768888847,-0.0211340531988109293914935,0.0227720801968217048671939,-5.1638299094839752072586e-05,-0.0145126586507180934532135,1.77718064367141037607212,2.58780735263969363657566,1126.83190054165447691048,1149.03134442308396501176,1141.02576280138805486786,1131.00709391669420256221,-36.7715233107781145349691,-440.395728567946548537293,-335.497396622200085403165,131.833580570338966708732,158.575952569639298417314
43.3674999999999997157829,-0.157444274224155772445854,-0.0710470983705705771971139,0.910248905303416178114162,-0.0245865122499050910154228,0.0254173837577829873912716,0.00230106819552668368303316,0.00746798469061568572641141,0.000312881249406410009115953,0.0249490437175612055076268,0.999660731686508596816054,0.0126836074026719786145279,-0.00591163114999211647404564,9.82632960007425637627421,-0.020985895711760724213768,0.0226863815177985109206027,5.49374052071433579408355e-05,-0.014568130054560222974569,1.77723556022631279383006,2.58781053337039912420892,1126.7124925076780073141,1147.93710327852136288129,1140.26884779121769497578,1131.0890029899057935836,-62.6877792508027482654143,-432.266711626727783368551,-274.149718205466456311115,-40.0367774237020412897436,158.574961470614027803094
43.3699999999999974420462,0.0404270559529669587517375,0.00859908940435096316723396,0.956186933267087812993168,-0.0242140378397411801247863,0.0260448866273643719893016,0.0054751452685516486390549,0.00742896104802745829709387,0.000354271842474662267824526,0.0249607200505479118191055,0.99966071450571725165446,0.0102098580576739789149698,-0.00836652769617088343245825,9.8253391344585541133938,-0.0208441799228315273462275,0.0225952112344627829843002,0.000149717155640675508290402,-0.0146222952937384419874745,1.77728997923041709405823,2.58781503154265690724856,1126.5184616454007482389,1146.87001086495229174034,1139.65501421036196916248,1130.80691002957587443234,-79.9478311456414587610197,-327.183367020339517239336,-165.327454754248719837051,-129.105018822362922037428,158.573679735505351118263
43.3725000000000022737368,0.127892137301472724741913,0.037573068693181631283462,0.910477559257908297674078,-0.0228200487090576241422379,0.0263441182226886276562805,0.00913797621982340504964704,0.00739127555569071663377212,0.000392531306395701832818307,0.0249732034622628037978664,0.999660664364170226114936,0.00762775391390769358368473,-0.0108714847698005018239442,9.82406568669556357065176,-0.0207110714226484554645324,0.0224977279607322146193216,0.000229778744736695199682441,-0.0146754613373729948799795,1.77734367688445149546794,2.58782085198736533371289,1126.31275335194959552609,1146.30118644341882827575,1139.44221051744602846156,1130.44347789579364871315,-96.9363201011633179859928,-152.813500529431649965773,-17.0662536251624246119718,-125.284705496714678929493,158.572540677255773289289
43.375,0.130542423272841351389317,0.0273054450904586520909589,0.751827835419567103159011,-0.0208001426871560896048052,0.026414529768576160140281,0.0130950030749158313758684,0.00735559025509268781667371,0.00042573475907240881108487,0.0249849459715936125792091,0.999660617389237726726492,0.00501525214527838783529212,-0.0133894838108293140477301,9.82255987806913211102255,-0.0205884851521808062702057,0.022393192703021657513629,0.000292868799275088553465962,-0.0147277386116330330501079,1.77739687120783562690463,2.58782760971827707763282,1126.03378004489468366955,1146.1059433623047425499,1139.56968294223611337657,1130.18048650209198058292,-132.723917465257471803852,-25.6451192669152483460948,106.106298662649450648132,-58.227048967599536410944,158.571334497191656964787
43.3774999999999977262632,0.0776951901270603179083807,-0.014149372612042012894995,0.501518070976941010563621,-0.0191299873210928617073279,0.0263963451805039571451683,0.0163608724483354853185268,0.00732350664441729255760283,0.000453726899737066046141426,0.0249957507385277152844871,0.999660568082474387807679,0.0024214149314876441676514,-0.0158609843907496911308286,9.82087754709833582467127,-0.0204779991474274176976866,0.0222809091243323410813648,0.000337365881381167980260227,-0.0147793147868130834293732,1.77744990511026990098742,2.58783476884382945826246,1125.64913376462391170207,1146.17296084708436865185,1139.97274201075879318523,1130.15234265095591581485,-195.304101673164183239351,63.8649108406426222472874,216.664456221386103607074,70.8614233523441185980118,158.570076947607162765053
43.3800000000000025579538,-0.000573786765944318127852242,-0.092026197658343689145255,0.171495761168876742486233,-0.0190930502317897023145665,0.0260959340855423001237501,0.018067011700563899434524,0.00729291869085808494577172,0.000480008541605004418473257,0.0250063543164497151249925,0.999660512473164564184458,-0.000173919212893565433564191,-0.0182946284685909926759351,9.81907845523187994274394,-0.020380806318218064321357,0.0221601836880121645656505,0.000362487981490105864654239,-0.0148304450674738037135869,1.77750288106543008481708,2.58784197547548755480307,1125.05725953652836324181,1146.42526791650811901491,1140.65300522334359811794,1130.53479361885388243536,-331.278119832598918037547,113.198803482542942333566,334.534862708744014980766,276.78582783045777659936,158.568761952647008683925
43.3825000000000002842171,-0.0587479740092255175998304,-0.228398654958591851293903,-0.251589994419489926258393,-0.0211055019565352421084814,0.0253794936275306866335644,0.0179704584406766947057843,0.00726234600546264100900951,0.000506538175727972383131925,0.0250179726438715561986914,0.999660430855588755250096,-0.00275710772314843519104066,-0.0206851639035343648487242,9.81722284167321390668803,-0.0202976807619062137033605,0.0220303302294953297357782,0.000368347152968516314622272,-0.0148809976149903155917542,1.77755593346829199319359,2.58784923467902139293528,1123.99274316546006957651,1146.73895486449737290968,1141.64541632430336903781,1131.53627179010891268263,-463.618108106278327795735,91.0047015741756695206277,362.655604214762774972769,451.243973358897392245126,158.567122485438858348061
43.3849999999999980104803,-0.0420669108930387877776091,-0.381346425784229836608574,-0.572454843740342056435111,-0.0232444064613928254303676,0.0247774930351288280583333,0.0161083967202078071068172,0.00723432923198645723428246,0.000532957854429885052871541,0.0250304071266134395279401,0.999660310081710523633092,-0.00526524771481457973254514,-0.0229477538465464453443232,9.81536858432521164274931,-0.0202290142152074942094586,0.0218906405347983820663949,0.000355836739295490819302847,-0.0149309778140657191392027,1.7776091226159611569102,2.5878564205409086973475,1122.73916899599907992524,1146.88029142437858354242,1142.46628324441576296522,1132.79101348564631734916,-585.66363307511039693054,12.7103934485993246283897,286.168184533416024351027,561.646388067705743196711,158.565708013717625135541
43.3875000000000028421709,0.0532727346913106636350221,-0.580350164981274452280502,-0.803558331079331056301385,-0.0244544188205943931191388,0.0243234761428084492185242,0.0127156048956251002679529,0.00721018935670394121861815,0.000558198055877119105050443,0.0250420683856418697932344,0.999660181259917512974766,-0.0076216763194417586069207,-0.0250209075209740644529788,9.8135700763340203423013,-0.0201747637632364550108743,0.021740442890464745789858,0.000326780151799862758101034,-0.014980776480661685268192,1.77766244065155687437141,2.58786298706532891245047,1121.06442500008301976777,1146.80250683174040204904,1143.0762572469711813028,1134.3445037304488778318,-826.13863626246279636689,-89.4008643657341224297852,181.354556178164784796536,699.253675710867014458927,158.564246280341933470481
43.3900000000000005684342,0.236749721035915960953844,-0.869621256689665389494337,-0.939422108293825663949406,-0.0243029283367766288370682,0.0233972195526574062995895,0.00791951105032913382775206,0.00719072075529583222552876,0.000579621574679346318430262,0.0250523714455290237579366,0.999660055146550652338533,-0.00972025180845771316628934,-0.0268543134969412705670422,9.81187610708437496498391,-0.0201343186471493428013613,0.0215792743541755038805263,0.000283877886712176862038515,-0.0150308633082902477068332,1.77771619015342818848069,2.58786823190149428697282,1118.60847581468465250509,1146.43328710254968427762,1143.3730560253070507315,1136.28728186420244128385,-954.872731603204442762944,-174.437727508915884300222,24.4983025808546699408907,676.914205388381446937274,158.562440024599936805316
43.3924999999999982946974,0.420937757971129533629551,-1.13862261160152855588024,-0.933230861282837387271627,-0.0230798367137044074803853,0.0216842057145785367666679,0.00434627776612400446715201,0.00717491378178297580653355,0.000597700428836005714060275,0.0250625744686938448091418,0.999659907003748626763695,-0.011519212236180680075659,-0.0284326247673761800527359,9.8103285377265390110324,-0.0201064956060821413419415,0.021407010427874684221905,0.00023042709015583077991618,-0.015081461180882474795717,1.77777020340374991569377,2.58787169387738602566174,1116.29006134207133982272,1145.93031819419661587744,1143.1987487598753432394,1137.72907475738770699536,-943.736607923137057696295,-224.731651616387893000137,-145.453708352459386787814,479.566343613742219531559,158.560893033932273965547
43.395000000000003126388,0.608555522713374208443327,-1.40591010837954422107998,-0.828692733712900642117916,-0.0212546040891128627803308,0.018599024363037959528544,0.00186264617384230613851559,0.00716116562124512710807434,0.000612483214716771527316719,0.0250713010397380919869192,0.999659782576121758168597,-0.012972726235626400731471,-0.0297543807852268527014417,9.80896071688214021833119,-0.0200897972831219906453271,0.0212237968486302212844929,0.000170194709406632155909017,-0.0151325348746826696122447,1.77782424210309186740631,2.5878730491482717646079,1113.88979277506655307661,1145.30962884446716998355,1142.64578748354438175738,1138.68511358227237906249,-934.365664256051218217181,-251.310564202693626612017,-256.384464869511987217265,263.742501115440632020182,158.559305188277249953899
43.3975000000000008526513,0.783825858680999743022255,-1.64412589777537920809891,-0.673215082522158003719426,-0.0191492919992898961989436,0.0144729468176317613292703,0.000291451687210756804451151,0.00714886353448710917812825,0.000622959854625762922755716,0.0250769016846926623420799,0.999659728382343182317982,-0.0140188843221344290601582,-0.0308025830336571271317325,9.80779648384756619350355,-0.0200823895165651751526514,0.0210302348187444247684663,0.000107103228003423969413865,-0.0151839550593082378560084,1.77787807880035142460429,2.58787263106674103596561,1111.61823302078869346587,1144.67376537318250484532,1141.91682643552712761448,1139.04778726296558488684,-824.533121888975529145682,-236.942438291895939528331,-285.286841359025231668056,-23.5891859796753031730532,158.557685779921058610853
43.3999999999999985789145,0.933823076410966734783869,-1.81760989763704250421483,-0.49430146723186962898211,-0.0168183918504948952399314,0.00954082497543858563948671,-0.000425145861705014346289266,0.00713807814549370991952237,0.000629247136186999057178015,0.025079073564223005460283,0.999659751672290264323806,-0.0146238230680778447806434,-0.0315509116673014511356143,9.80685004131179027808685,-0.0200821052071699854280062,0.0208275003563546390328298,4.48797494083861788546214e-05,-0.0152356672166238452104103,1.77793137573833148756819,2.58787051685740365769561,1109.76712716562542482279,1144.12491665300876775291,1141.21935327675055305008,1138.56716765237410982081,-651.829784560398707071727,-196.546039759541088187689,-233.527411966014057043139,-404.294281712711892851075,158.556031659884411055828
43.4025000000000034106051,1.07798798284084984544506,-1.92536463953124226122782,-0.291698339268420148151506,-0.013891102498919860944171,0.00340234888360001295343205,-0.000673314699088866383883123,0.00712706842311035086712234,0.000630790604369193251034498,0.0250774770535358328127362,0.999659873671142507056686,-0.0147486421412365703575986,-0.032014651817967795799369,9.8061265657520877425668,-0.0200865626237889741134701,0.0206173031224639730085713,-1.30153739200193066180566e-05,-0.0152878915885561687121319,1.77798372825686934461942,2.58786691021674419843634,1108.35908409798503271304,1143.69103517438429662434,1140.74918937569646004704,1137.02631585440099115658,-342.8787073669874416737,-107.468112370351761342135,-73.0810414916585528999349,-699.234535520242047823558,158.554011616494221925677
43.4050000000000011368684,1.16539290507678505726119,-1.92259148248669364811292,-0.151373162679824924126137,-0.011339105524524479770565,-0.00162978969429268018276336,-0.000600314977354271203137392,0.00711566826451097422800984,0.000627969773552843881989083,0.0250745180959630886707856,0.999660034383164641802466,-0.0143799036059630257200492,-0.0321846327932374109970226,9.80562246171902884839255,-0.0200931199316290894085757,0.0204019606588923436973904,-6.38108288005180166683333e-05,-0.0153405201029415492325336,1.77803472214116009553209,2.58786240650348364766842,1108.05273362878961052047,1143.58757609115673403721,1140.85394806929207334178,1135.0709949747711107193,81.4860611356666453275466,21.1480286580546348318421,166.352490097975845628753,-867.781519164934934451594,158.552303180356631173709
43.4074999999999988631316,1.21439484555713050895065,-1.8218683785443978706553,-0.0509810030657081580951484,-0.00860904072817491629321385,-0.00661946792073402241751712,-0.000422446782721513621264298,0.00710517488684677539501067,0.00062165786558373485690826,0.0250709208111361825377372,0.999660205285426428645223,-0.0135215727698126519235045,-0.0320303796204517016166236,9.80532650608780542711429,-0.0200991357808232851134278,0.0201841272555157262569292,-0.00010555415604637148900731,-0.0153936075481989551039241,1.77808426823139198447166,2.58785759724260788772199,1108.76651440366299539164,1143.79677531767447362654,1141.58095182618558283139,1132.68740825858026255446,452.102685662289957235771,134.18435924206690401661,388.12686836770961917864,-975.010971714301831525518,158.550574330924490595862
43.4100000000000036948222,1.22650236729066008933842,-1.64426245705751727932409,0.0153285549147713379830593,-0.00560927709860165133598509,-0.0114957221654153618484173,-0.000234018078501647248078343,0.00709653185066162067728968,0.000612810933342489865850722,0.0250660456965961300768164,0.99966039470867973371071,-0.0121880907567086145537605,-0.0315365534357428950462676,9.80522153345655844702833,-0.0201020352048028420888226,0.0199666806183031730892452,-0.00013709014823766937636422,-0.0154475593006886038199843,1.77813244321114605206446,2.58785324176684916608338,1110.31324705710221678601,1144.25849788736741174944,1142.79458241113161420799,1130.19594011619710727246,789.370101259424700401723,233.98568016343085673725,571.986081354069256121875,-961.472353599319035311055,158.548833152662979273373
43.4125000000000014210855,1.18754561573086148129619,-1.38838710867328019027411,0.0443601588593154697037768,-0.00242794916714167072213648,-0.0157677771503692831789323,-7.14221484963707122992083e-05,0.00708962372384081170040293,0.000600886985269584255296704,0.0250603328669976102571759,0.999660592466091513230708,-0.0103737080729972806769634,-0.0307179240404833048261324,9.80528609818622776117536,-0.020099321124062076437955,0.0197526935415600797540936,-0.000157941329401383541083947,-0.0155023298108895330599255,1.77817932192770111754498,2.5878497664468258498971,1112.71336490996213797189,1144.96670371849222647143,1144.4408822329573922616,1127.88004649058120776317,1183.69239094184536043031,345.180910383301295496494,767.134605317885075237427,-910.063304832656399412372,158.547082692192986996815
43.4149999999999991473487,1.07708989802474652819342,-1.02272667811633688472739,0.0439538324219166942619097,0.00141226571558467463643471,-0.019594643154442262927839,8.0891656857142552831258e-05,0.00708401822283811870295533,0.000585680072045788270226896,0.0250543963231353063181306,0.999660786379607202434272,-0.00808785439830011013140343,-0.0296038470802495595757264,9.80549604749657000013485,-0.0200887435753781852521005,0.0195452780883062712802278,-0.000168308768558830037240584,-0.0155575608615151524116715,1.77822475075558905643902,2.58784683222472899899458,1116.23170901180606051639,1145.98440243928234849591,1146.63025543771755110356,1125.64562359203796404472,1329.90971953072585165501,382.147016167332424174674,795.070844323256778807263,-693.711394274268741355627,158.544977970177740189683
43.4175000000000039790393,0.933923894918132546649758,-0.699139385377045896596826,0.0206460502286536645710768,0.00446925826457981404532527,-0.0215196498614552041150905,0.000170657868927817640966257,0.00707945317995943481509391,0.000567606230012745950792852,0.025048532432514567652726,0.999660971030012834859235,-0.00536008017256529856187086,-0.028228151190853825736049,9.80582606994508942932498,-0.0200684276184595715430969,0.019347438899175999071911,-0.000168987711147528885460845,-0.0156129421181490264658454,1.77826864936118211879545,2.58784430901621265164181,1119.36291350761916874035,1146.87743879932986601489,1148.41623645457571001316,1124.41148951920808940486,1208.46529274069348502962,346.470002454457357998763,665.080638366158268581785,-346.761327225435650234431,158.543224799678426961691
43.4200000000000017053026,0.749366948475901462067839,-0.392532393380173094676877,-0.0187379617448866567230858,0.00685506949260036163584786,-0.0221629030423418672823832,0.000210575133592111232282845,0.00707658696866053128771146,0.000547520744571323558086418,0.0250443811665267551669345,0.999661100829315918403495,-0.00223548656663063657901169,-0.0266138223364697085182584,9.80625105725681933677151,-0.0200368716939989567615843,0.0191619963709825646969165,-0.000161298571520065932337687,-0.0156680498184080876922231,1.77831125585813909495414,2.58784243898366073111106,1122.27403547551261908666,1147.7167524515555214748,1149.95565862955004377,1123.911816955909898752,1142.85010706106982070196,340.595255761118664850073,592.803877660246826053481,-65.3002744040943952086309,158.541476836862955224206
43.4224999999999994315658,0.504268515785623483438371,-0.0779208361547277378322818,-0.0751082943758611953910531,0.00861283019696729157388404,-0.0219383886362666778724329,0.000159501668327500075112227,0.00707589470606036566313612,0.000524810353811242360014266,0.0250440811932959410401889,0.999661120006127501547155,0.00126283639562823832291905,-0.0247944473260935382974424,9.80674746405290598261217,-0.0199929897161905296976148,0.0189914138855363755220562,-0.000146875541156796896946971,-0.0157224196891088859040497,1.7783527438120845243219,2.58784136175414136715744,1125.07716404291932121851,1148.58041507813391035597,1151.3802558428742486285,1124.08498814718791436462,869.660448888826863367285,286.188036561169610649813,444.440379147499697864987,161.790321596853573282715,158.539389620214649312402
43.4250000000000042632564,0.300380026830449398111966,0.125160662322670701573912,-0.12199779041434150039791,0.00924050630802478005498823,-0.0213084588789374806960808,-1.89404953669207498959896e-05,0.00707696662538410525139509,0.000499482362155736808913276,0.0250475778236701092371863,0.999661033564424261754766,0.00509319090123880324760819,-0.0228253457141584514822341,9.80729450403646652034695,-0.0199361509807267911487116,0.018837568558555999043147,-0.000127617466896854601368302,-0.0157752493624548177642009,1.77839318222639053423961,2.58784100411262008023527,1126.62233771995897768647,1149.14769263436210167129,1152.1778605252886791277,1124.7207685638945804385,437.28941989061604544986,193.285727003686844227559,239.346267110445637626981,307.430075271510816037335,158.537661514745138902072
43.4275000000000019895197,0.117159056582121751111103,0.260840903135002299961798,-0.158633413799139422195594,0.00900530080708113189746911,-0.0204348811245292499849668,-0.000422127598823709808406601,0.00708137255636704082001343,0.000473773916836136719989842,0.0250542947549606508095277,0.999660843992964953663716,0.00916588390775446848479646,-0.0207249487543696014890671,9.80787450200226196272979,-0.0198659656348445512463741,0.0187017087404679656359452,-0.000105740425013142261560957,-0.0158263540444886288693915,1.77843281990091406363774,2.58784173814942741742584,1127.26361114237352012424,1149.54684371315283897275,1152.57698717842708902026,1125.62213852354625487351,122.064059253600191823352,134.258908838623256087885,98.6132134311888961519799,367.78058997867242396751,158.53594759816451187362
43.4299999999999997157829,-0.0403940787324616676357003,0.342515089299678887613254,-0.179153707796947087027561,0.0081252138614468626814924,-0.0193819392671432909336371,-0.00106983699448897511853629,0.00708956917324804047203513,0.000448720884168951107424245,0.0250610513119692256134297,0.999660627162856529892565,0.0134096237464000830885702,-0.0185350180830970295842164,9.80847362176904802311128,-0.01978215515674853000605,0.0185842814141485880574667,-8.33808725305456221663092e-05,-0.0158763690840492688316488,1.77847185467570167993756,2.58784382631404197283587,1127.23265801622642356961,1149.81898717855460745341,1152.67092659244417518494,1126.55967151378627022495,-128.085638869222833591266,84.8561521892723789051161,-27.1410419218019711706802,349.46637537423106323331,158.534246898777979595252
43.4324999999999974420462,-0.16982425277039725486361,0.367025346314144962356352,-0.173493344656032721928796,0.00713541699251215265353832,-0.0180884880062090816488229,-0.00202363796115015686510885,0.00709942713347057677286678,0.000426320360233688579534861,0.0250651550645026657826442,0.999660464106387869342996,0.0177291693557531590541565,-0.0163466161537859644425907,9.80908233807436857887296,-0.0196842617833769065183169,0.0184849893718815536103328,-6.24529116372869318347949e-05,-0.0159260778666586062801702,1.77851035323706341273464,2.5878472686256315249409,1126.62318294802798845922,1149.97112447409881497151,1152.44128196881820258568,1127.3694704004158211319,-323.579758952853808295913,49.372412842078325923012,-160.354965461701624462876,303.991044266857898037415,158.532563549418256343415
43.4350000000000022737368,-0.312855893389712425012306,0.348349475435883904061996,-0.135823555344255442189905,0.00662639116942026658307885,-0.0163497015272412761499599,-0.00334300580693199173368257,0.00711015618359863744990523,0.00040633775070938804108503,0.0250659956997942336143215,0.999660374754537839336876,0.0220706806007333264374459,-0.014222829945301398990587,9.80969424373474474521117,-0.0195715187317650821108295,0.0184028112801914410512349,-4.44650906592832781188615e-05,-0.0159760912252885599327268,1.77854872255170537442837,2.58785175409437684379554,1125.61475922146132688795,1150.06584924276512538199,1151.86915176513525693736,1128.07962673512133733311,-358.77719796321633793923,26.4093471223851743445721,-243.998156890495693005505,216.730181386608904858804,158.530565202191951357236
43.4375,-0.440562309844071187114878,0.313166403098959378326072,-0.0873181703352908233917162,0.00674465750639927086318437,-0.015049890989528481519133,-0.00421333948399153866010147,0.00711946498708653559978066,0.000390011249547273094410299,0.0250636883361075764320436,0.999660371142665482580014,0.0263484249560555286451269,-0.012250619603438497873249,9.81030628921166325540071,-0.019442938060556500673437,0.0183359400875623759774591,-3.03954312642937902935042e-05,-0.0160268107165228955446334,1.77858736749437928992279,2.58785660797987082659688,1124.82929695821098903252,1150.10317120971080839809,1151.22129118436509997991,1128.45312130734942002164,-248.693343581952547083347,10.7368737070471400585348,-272.069066047626677118387,118.82997521735781276675,158.528919028057288187483
43.4399999999999977262632,-0.589363916215987271307597,0.291109261131770880037806,-0.0425507699821938353834661,0.00689044430050748078764311,-0.0146356200080437100219388,-0.00421641862734092875975023,0.00712397888044772730625764,0.000378622505652684445374978,0.0250569720040925807136301,0.999660507982472856802758,0.0304738026307692852490128,-0.0105313434468244232489198,9.81091788895558281069498,-0.0192975079633232148024202,0.0182817518012302858421148,-2.05514425973861366040915e-05,-0.0160786887604601295975737,1.77862680096635483728562,2.58786097611870635759601,1124.37129250355269505235,1150.11953361130031225912,1150.50880643489836074878,1128.6737766112075860292,-90.3932924125448664653959,3.2193784180419142693097,-298.969831193273250846687,86.4237870001501420347267,158.527293817337948667046
43.4425000000000025579538,-0.780754752421415454399778,0.32032978440908749240279,-0.0226944592348741619458607,0.00617783467102398647918804,-0.0153970575544027168946037,-0.00319813042225782027255798,0.0071212144123523942601528,0.00037131534792337738282858,0.0250442701744946968900329,0.999660842882268418918557,0.0344001870823683192357478,-0.00914169439175070708269999,9.81152942942883399268794,-0.0191343356439232434307307,0.0182369637951147987864342,-1.45676171526442266215134e-05,-0.0161314688374250281288624,1.77866732200018984322298,2.58786438286365960692592,1124.37733049614803348959,1150.11926810180102620507,1149.72644202839796889748,1128.88524024235039178166,100.871713773897923260847,-5.4854726204183990034835,-253.13962370078806429774,84.7439077754664396024964,158.52536893916195026577
