t,ang acc x,ang acc y,ang acc z,ang vel x,ang vel y,ang vel z,quat x,quat y,quat z,quat w,acc x,acc y,acc z,vel x,vel y,vel z,pos x,pos y,pos z,mot 1,mot 2,mot 3,mot 4,dmot 1,dmot 2,dmot 3,dmot 4,vbat
7.3150000000000003907985,-0.293755101078262303992972,-1.2603459418088456267526,1.25573114225571935698156,0.018994495850256545854684,0.000685074383222698509235404,0.00334257670840233276840503,0.00249671842625465330300916,-0.00194420801677675230030584,0.103020409833478446270938,0.994674081522130104637824,0.0164903081821429174647076,-0.00481274643672586349696374,9.74598962207125829593224,-0.0161419904391728423476149,0.0128639324260481271305911,-0.00435581435322204401500157,7.17753488312834608819912,3.78296090262901874012869,1.17957031809391632570794,1114.09523662829246859474,1126.30913855559538205853,1112.30163374321068658901,1117.87222968424089231121,84.0117328259129578782449,-348.489660571165757119161,-676.028736470121543788991,-584.479209025915906750015,151.595701468377740184224
7.31749999999999989341859,-0.375357137489290448861823,-1.2753049115102625954421,1.26569763255412537361622,0.0182726250016866480219146,-0.00168743981282841589916521,0.00764901138215103200412859,0.00251075869252169849368816,-0.00194746151267052663123847,0.103036272274967061202133,0.994672406697904576411418,0.0156480015946255761327688,-0.00407698594322101690035076,9.74620995523023303519494,-0.0161482072197784154443667,0.0128278922909118141965079,-0.00453014361735208127834884,7.17748996019090412801233,3.78298333664973362999717,1.1795581780380162140176,1114.42226661005997812026,1125.39299930571110053279,1110.71242332575616273971,1116.33755620255692520004,166.444715588935565619977,-324.21313909240564044012,-458.130858977675188725698,-534.014543332853008905658,151.595350617763983791519
7.32000000000000028421709,-0.449247869239442376709803,-1.26377417495330957031285,1.18424395041508812020936,0.0171917360071067344684526,-0.00410565253185003319752466,0.0113852825169398954446853,0.00252127414638346654396361,-0.00194538300264704292277806,0.103046624556378335624274,0.994671321698441190939377,0.0145962637937938170817898,-0.00343677748240774419419274,9.74681306092617560921099,-0.0161551406584651002784625,0.0127923936257001626820573,-0.00470130050330641157535494,7.17744484980028030207677,3.78300700153700875105756,1.17954675297918809562248,1114.92746020623712865927,1124.68807286013338853081,1110.01097944832235953072,1115.2021569675766841101,265.246737452440527249564,-278.101902506165515660541,-133.632791196353650775563,-414.004059955104537493753,151.595045184867529997064
7.32249999999999978683718,-0.529127419938329901505369,-1.20493061336115303561201,1.01752174377499193802521,0.0160866676907790891182248,-0.00735736667451140739781845,0.014473174259337657360236,0.00253452606135092135819509,-0.00194108263156797826096134,0.103051694265183249599183,0.994670780907261242731465,0.0134011520882464686688085,-0.00277866782415528770777691,9.74778783987326846727228,-0.0161630672461808358453261,0.0127562157933718764435405,-0.00486940453671125088319638,7.17739922644423788966606,3.78303179964641600463437,1.17953553523969612015776,1115.74850029732215261902,1124.00248979318030251306,1110.04425936977440869668,1114.26753590278144656622,445.217860603052429269155,-307.076577307140894390614,176.741860675614731235328,-353.644357272294939775747,151.594729304253405643976
7.32500000000000017763568,-0.631907574894874368709452,-1.05061968821966611464802,0.741252618187860812248857,0.0150342703218258478409242,-0.0119402623657402645607206,0.017071075246840230338341,0.00255253766293609806597997,-0.00193822851172950551441876,0.103053633137938777108999,0.99467054916900488059639,0.0121318182895273317389861,-0.0020715323579861000258262,9.74912156936291474096379,-0.0161720815012738987348495,0.0127183872358022573290093,-0.00503439917963362324609955,7.17735330137305371778211,3.78305760755162667763329,1.17952435526285359657095,1117.15354950925234334136,1123.15268997359771674383,1110.89468875170041428646,1113.43393518121524721209,583.210975779729551504715,-317.314273192182952243456,425.19155997190586049328,-253.857964627474189001077,151.594343911493524501566
7.32750000000000056843419,-0.719220628135959216820083,-0.84126754704000239470929,0.467471644790564022642343,0.0140371600425608505924302,-0.0155296094236954135975326,0.0184543791815969630831784,0.00257289483881112087185206,-0.00193747191770890503370595,0.103057227180272298339148,0.994670134575275421973117,0.0107911130443905482756417,-0.0013635760257790230376429,9.75080029514038670868104,-0.0161820638065199827460017,0.0126783946556709558456388,-0.00519608452923713253629456,7.17730709814220357856129,3.78308357386881377593113,1.17951308292041279202067,1118.66455517622125626076,1122.41591842721913963032,1112.17021716963427024893,1112.99824607964387723769,658.193439459014712156204,-291.353473733449220617331,590.766839550873442021839,-123.716677710356549368953,151.594023076844791830808
7.33000000000000007105427,-0.794147860248630710344742,-0.555356874801093303162247,0.171831455917125147658808,0.0122184459833915431969942,-0.0180119909219292467783546,0.019054577064514705703191,0.0025947867780513360000394,-0.00194048928040146408634248,0.103064754225048543778698,0.994669298706854498881569,0.00940637553572562859494077,-0.000673584208450598437289969,9.75280815258178890303498,-0.0161928859711708526825102,0.0126360744670759930774473,-0.00535406031406987416992882,7.17726028978096763921712,3.78310933203240562505698,1.17950074966887674676741,1120.44451670654734698473,1121.6959226049305016204,1113.84852294945471840037,1112.81535179266347768134,735.04993846574257077009,-271.672483325397820408398,708.925123141322387709806,-38.3961897875459712281554,151.593710950431074024891
7.33250000000000046185278,-0.844140422734120932091173,-0.22514532681831822547025,-0.125896251448037926889967,0.00959221363850937605577407,-0.0193268352612661793721305,0.0190295675012808751525029,0.00261843774992351428082538,-0.00194703497397204477320498,0.103076053249357535435138,0.994668057362351643035936,0.00797150145050421268799745,3.49153234294186098907176e-06,9.75512746716927736656544,-0.0162044342617822731411614,0.0125916460221014454151645,-0.0055078401127417473195913,7.17721342469710066325206,3.78313456597577024709267,1.17948741337765428127682,1122.33980486854989067069,1121.05755601059217951843,1115.71484278534080658574,1112.80626513070615146717,755.161051518432714146911,-217.279742858913863301495,762.802512898968302579306,27.1543211703380045207723,151.593413535386702051255
7.33499999999999996447286,-0.851630070664968874538658,0.126286413397819041737336,-0.408587607341652447878744,0.00629930396253004440398904,-0.0192001373032729648338002,0.0183912626749085997279742,0.00264403223038465074595793,-0.00195701705811836051615571,0.103089599360148456708153,0.994666568172357212773704,0.00648549383252807615241053,0.000671008863321886916963877,9.75773850948969823093648,-0.0162166579072282844575792,0.0125457268803379172472656,-0.00565683071850779650713292,7.17716629468822464588129,3.78315871017560212408171,1.17947396402662407766115,1124.22032196413942983781,1120.60952389063595546759,1117.66253551394947862718,1112.95112339851516480849,787.627722739960972830886,-135.437033184510426053748,850.854491523632532334886,84.8657343116446867270497,151.593143818118306853648
7.33750000000000035527137,-0.815251258734146055928704,0.530460723273614265238507,-0.708432485752924057109681,0.00215303830870770688057925,-0.0174800057046706584784612,0.0169186758946325670194266,0.0026683633088121667953363,-0.00196898282475913748504337,0.103103893316417394299123,0.994664998028063740420635,0.0049168450928588798565233,0.00126818818570566954617718,9.76061959829790914966452,-0.0162295658240305500086276,0.0124993179626392923037281,-0.0058003317229165778784461,7.17711881501306248054561,3.78318164906874532249503,1.1794610631552842061609,1126.27794348224961140659,1120.38037084466964188323,1119.96911524295887829794,1113.23059380226436587691,702.130516089997854578542,-27.3223435965525283108946,830.767964716751066589495,109.859153481195406243387,151.592864338715713756756
7.33999999999999985789145,-0.76925703965302050235664,0.828028949086045629179864,-0.908365935678029923217025,-0.000685449625146317717376554,-0.0149305707875612512364194,0.0148352244860926237718379,0.00268750720225056525733431,-0.0019804915776425822265816,0.10311800210326579896325,0.994663459694252738430009,0.00321668117718199031429549,0.00172097595461238872527332,9.76374665206133407480138,-0.0162433005237663796727077,0.0124536515334762783874245,-0.00593750321933656042411309,7.17707045157716283512173,3.78320311678215759343402,1.17944846555232762952414,1127.73097454458934407739,1120.47291217265319573926,1121.8163753375331452844,1113.50041916592113011575,515.55958803738769802294,93.5113655648385133645206,717.720690937509857576515,103.754806333474732582545,151.592676101934870303012
7.34250000000000024868996,-0.753543533003713461582151,1.06901825680316342470633,-1.03656941427012294631993,-0.00202358824268416333941323,-0.0117801904590257820737431,0.0118015660390818118846701,0.00269993789435522303643555,-0.00198810245614405769337685,0.103131950841041902799944,0.99466196258446915035023,0.00132536344825373228473175,0.0020025177397162419179466,9.7670927251818113745685,-0.0162582591576940840849552,0.0124100010157836612018079,-0.00606732432331008163933772,7.17702140100836150082841,3.78322311832322677460638,1.17943566483948125700465,1128.85574142243649475859,1120.84792767249382450245,1123.55771869764635084721,1113.74936783393172845535,417.572471453795344586979,220.678578669963087577344,737.883891504741086464492,93.5074199433549324567139,151.592542325742130060462
7.34499999999999975131004,-0.828380949804331967456505,1.29340486531510046042115,-1.09360613536029549486273,-0.00196422858862628588877408,-0.00823875354767159354119066,0.00766152499917371367088581,0.0027066867737756843993735,-0.00198848648568352966495287,0.103142511829837746351046,0.994660845963412754144883,-0.000805094544406005641068447,0.00213428326361684433942756,9.77062776251688092088443,-0.0162753520209190857825909,0.0123693625293284179683662,-0.00618848976263408016157408,7.17697269316958763596404,3.78324207811034041171183,1.179422671459302573993,1129.81883690185827617825,1121.57630506600298758713,1125.5057947950567722728,1113.96795626563789483043,290.540938143346295419178,304.666149963493012364779,687.51328333511639812059,63.3263327659292230009669,151.592452566938391100848
7.34750000000000014210855,-0.994845630267923497491722,1.43375176459031816733614,-1.0615642859841305511992,-0.00109607289760867989379667,-0.00559417744397350258367396,0.00419497174813324071734888,0.00270780785640978814698965,-0.0019822690821390126503232,0.103146287180958848295198,0.994660461147759522582135,-0.00314284566113929089703483,0.00210997738544132368287976,9.77431867778663487911217,-0.0162960230532302081940532,0.0123324372408828968755712,-0.00629918927025431996807869,7.17692496219777353871905,3.78326045897944363005649,1.17940820771060672633723,1130.30844611315319525602,1122.37125842231125716353,1126.9952851143218595098,1114.0659994977613678202,130.958444042678365804022,346.642332989759268002672,562.531748598579156350752,27.1342865106774624450736,151.592441393717791697782
7.35000000000000053290705,-1.2591295908546453752308,1.53052269254193018532817,-0.963183353114141826978312,-0.000915206942405562989296952,-0.00271776850733176705485206,0.00101860381077187854038935,0.00270278319786289777590382,-0.00197182736535092464208452,0.103144259766671853029152,0.994660703077154706441831,-0.00561761812397060592005893,0.00190837902438705658836327,9.77812961658034573986242,-0.0163220391178060530990024,0.0122996443494855240557984,-0.00639728774065133863613308,7.17687881583734732515722,3.78327865483857994632899,1.17939139224607281164481,1130.47362912207177032542,1123.30951673095205478603,1128.31845353805010745418,1114.10362769819130335236,-6.58606873389558522546849,434.784506175137892114435,535.063796473662023345241,23.1962644358650713627412,151.592500563587776696295
7.35250000000000003552714,-1.61588223660335872367,1.58875963865336000679918,-0.804639211873436455135788,-0.00370189541695044570940309,0.00136256292065823226417054,-0.00171272143573523126514058,0.00268969221752203601141784,-0.00196027390878917304531392,0.103138803783430113569786,0.994661325294423526166554,-0.0081419809786605276680227,0.00147991442185812366316711,9.78202245988241791962992,-0.0163553758266593365910957,0.0122709450521553808249875,-0.00648058029831261993986002,7.1768338964312832217729,3.78329676579496476662712,1.17937235430649867140573,1130.27551576948371803155,1124.54518095318690029671,1129.67060409669011278311,1114.18198081994069070788,-142.203460579369988181497,463.078126672381472417328,448.974448478712020005332,57.6347513100257415885608,151.592656312175193988878
7.35500000000000042632564,-1.86455192565304184171282,1.57655113077096653562137,-0.67177798369567198744079,-0.00925823387336752699761089,0.00535826345728584660377258,-0.0028194175328340492954482,0.00266598174204066675277436,-0.00194759966549428961170298,0.103134192553959239124772,0.994661892114239276629917,-0.0106849465667663706680557,0.00077011618244066104566059,9.78595749659771740880387,-0.0163979563449987188195056,0.0122457953690375091759801,-0.00654724494004642679212402,7.17678926150144835816036,3.78331527448032511884435,1.17935166510048095034335,1129.76261181917493559013,1125.62490736431391269434,1130.56332578044361980574,1114.39180145474142591411,-277.064337934104059968377,431.565613705206601480313,298.709808542077553283889,146.110589754156023900578,151.592858268231367446788
7.35749999999999992894573,-1.9682769229595109550246,1.48550536452988390934138,-0.573286788083735676657682,-0.0169805910369607397647496,0.0098448659117203012047792,-0.0031880837857240960052374,0.00263429400274883644683666,-0.00193178607942203818016724,0.103132246782951061958578,0.994662210828532344919495,-0.0132391591914686624492647,-0.000168530907077232838808811,9.78989384241489624116639,-0.0164516423539099419792731,0.0122229489097755595478079,-0.00659618398304423307620947,7.17674467549506278629678,3.78333522652313991585515,1.17933044390396757350459,1128.89019407981322729029,1126.70300902171288726095,1131.16415313940046871721,1114.91253376871145519544,-402.254592033168080433825,422.756416060528806610819,184.732789265039485826492,280.732387743597939788742,151.593136256554629426319
7.36000000000000031974423,-1.90857849145712710203782,1.32343997840592897397016,-0.518810297514823326459066,-0.0247919481541041437921979,0.0142185414699946086752869,-0.00341243912018318303405739,0.00259864840920632101523013,-0.00191387245637443244132558,0.103131485801231187471316,0.994662420835161986687467,-0.0157306656389437221621463,-0.00126055969008629850658387,9.79379076276215343455078,-0.0165182310225351590415865,0.0122006248937645330604473,-0.00662691108276116606218276,7.17670020518070117532261,3.78335707924307929062024,1.17930923393034547963509,1127.75133885900913810474,1127.73868944461651153688,1131.48698972676879748178,1115.79546339345938577026,-503.38692387245993131728,395.022717935270748057519,55.9785945900342198910948,452.870689850497569750587,151.593477812241332003396
7.36249999999999982236432,-1.64692702852539518687536,1.08266375767147859932038,-0.519691071742617527462471,-0.0312785653519810427636294,0.0176986934921000149678605,-0.00372926078024422239659552,0.00256065261738800450247444,-0.00189507561620366488802647,0.10313054571528311453843,0.994662655920644400708852,-0.0180835532280869959453895,-0.0024751453294653211201215,9.79760926856229019676903,-0.0165992373820748467805331,0.0121769127217757917175378,-0.0066396106851043679847324,7.17665615362851649905451,3.78338071445360313305173,1.17928805145296178302772,1126.37325946045098135073,1128.6781226113891989371,1131.44404611235063384811,1117.17688721796389472729,-630.780639786112033107202,381.987081918995443174936,-102.532139155439296018812,715.19999255698780871171,151.593896288643691150355
7.36500000000000021316282,-1.14503186775623477799968,0.727127783804800698064241,-0.568543548814684718273327,-0.0369023591195387842822662,0.0204713754724668815787592,-0.00457736242198643339396114,0.00252200611844570965133783,-0.00187566949560859252445211,0.103128857942634960531691,0.994662969874601676778525,-0.0202380540003629788570194,-0.00377499751456306792407602,9.80131324653551416759001,-0.0166957433119603627924565,0.0121500324470840935509042,-0.00663521871875444053251458,7.17661249306611193077288,3.78340572438606770333536,1.17926730501534948736264,1124.59743566007864501444,1129.64862485421144810971,1130.97432903099161194405,1119.37146335624424864363,-644.418858611711698358704,325.411361480980872329383,-231.627510333424140753777,870.806750808260744634026,151.594487273727111187327
7.36749999999999971578291,-0.628796665804901011576078,0.398577768524518649684296,-0.626687274258979187813168,-0.0394366015992178922666689,0.0216351625988584067572518,-0.00589345988248387523539273,0.00248373811091332852632463,-0.00185661659940150884813559,0.103126973899101748166629,0.994663301411788158823413,-0.0221218859403449971678945,-0.00513464082852151115776707,9.80487072738928588933049,-0.0168082729490292466512091,0.0121185916529751754044941,-0.00661530186690644211172652,7.17656903130292711523452,3.78343141539528327044195,1.17924755003373271655676,1123.15116516739249163948,1130.30517941879406862427,1130.28590856068353787123,1121.53092097200510579569,-538.257241368421659899468,229.00508893786116004776,-312.782245468867870386021,888.464729042035173733893,151.595053357814578021134
7.37000000000000010658141,-0.0946806901792401067741167,0.0635857808051421280470805,-0.670638322293800714923862,-0.0395681955687499087304104,0.0218639372588464372948458,-0.00787951409996525721501914,0.00244898586331546500027834,-0.00183974803408366751993064,0.103124402866604777950776,0.994663689965797792602586,-0.0236429115247114712827781,-0.0064870310689179033758478,9.80825483905620387758972,-0.0169367382861444551456209,0.012081636097350505892889,-0.00658200274264434444931871,7.17652549940690231977669,3.78345730736072427546901,1.17922881775328658449098,1121.90614945323659412679,1130.79365029890072946728,1129.41041780364730584552,1123.81378700145432958379,-468.031984282033192812378,178.251328206142147791979,-390.080999775575889998436,972.25637086119866125955,151.595694943703648505107
7.37250000000000049737992,0.473293320473981538043518,-0.319697823942515890749405,-0.673191732904751871657822,-0.0372438175906022600480938,0.0213468885251679070524933,-0.0108777734261487277200864,0.00241820621717218128127191,-0.00182403058764663331646483,0.10312126892379670783928,0.99466412262401338040263,-0.0247735583397490494172999,-0.00780986044172627888459992,9.81144489722914237006535,-0.01708027295521643423859,0.0120388412458577297864393,-0.00653792865649943048117487,7.17648181131837326063305,3.78348264586481386473338,1.17921144873146399589814,1120.81100524598195988801,1131.1964360598249186296,1128.33550356180535345629,1126.3922028263118590985,-318.768037810020814504242,122.110670585382521835527,-369.00140896669529411156,875.856669112381950981217,151.596550602638075133655
7.375,0.832719201764913319330219,-0.607294821412177721065007,-0.618256904014462205232405,-0.0339047866455980603794806,0.0202819158754707386249638,-0.013496053654587400819076,0.00239122817996630359499433,-0.00180800765886776778311462,0.103118032522607996903652,0.994664554455395588661304,-0.0255010782836652682981082,-0.00909109837779765311838176,9.81442682483673678461855,-0.0172372467790760930395066,0.0119904660626915880033971,-0.00648593025225587590382181,7.17643777166516372290062,3.78350651300345175442885,1.1791957976777114325273,1120.31230926418652416032,1131.40420365182762907352,1127.56541075881386859692,1128.19307034701614611549,-107.776490813241736077543,65.9553666798288276140738,-253.574410515198849225271,607.907187024479071624228,151.597333707787754519813
7.3775000000000003907985,1.03835315731696375962656,-0.843509818637884323244691,-0.502407453466374831485552,-0.0299114111961816218909771,0.0184147576817532271364897,-0.0156917932638998558481092,0.00236574701143354819421472,-0.00179215751213632331836911,0.103115759930426112433999,0.994664879813616509274254,-0.0257864644169319492950088,-0.0103637606266843984581527,9.81719345775012897092893,-0.017405304618828641022299,0.0119372623250630655739046,-0.00642876268865003302338534,7.17639302296170544792631,3.7835285524534101320171,1.17918201368551711638588,1120.27212279191576271842,1131.5262128932240557333,1127.06763150922938621079,1129.43173876143418965512,74.757148639084107344388,46.4802384977711753322183,-139.101986750668629611027,390.620576894261034794908,151.598187710030458674737
7.37999999999999989341859,1.10351555144728274981958,-1.04748880720225923113276,-0.311367475021867567974709,-0.0248562140134971285010401,0.0150616854207219624806058,-0.0173784148352843989537853,0.00233855382028732433630225,-0.00177790699081377704879325,0.103115756266409522301508,0.994664969241801033561501,-0.0255829445577423209012835,-0.0116804691860614116849515,9.81974433978210115014917,-0.0175814294025176572067171,0.0118802405211185912320415,-0.00636889235009117579688898,7.17634765346907244065733,3.78354880245273239580683,1.17916982152827176655308,1120.68609500738193673897,1131.63660484431648001191,1126.86990082506054022815,1130.14617323148740979377,205.899817007689136971749,42.6021717068588259280659,-6.2679227283298555306601,133.781889814284227213648,151.599292364477093997266
7.38250000000000028421709,1.02737491438430872392473,-1.14107413188531325864972,-0.131407295118530637045851,-0.020970978288437025494062,0.0114182181276823984522606,-0.0177718307907766999431676,0.00230865170361492554398919,-0.00176617577951388706955504,0.103116441010177126158531,0.994664987994214655486758,-0.0248596006331751016860121,-0.0130501413245091776871298,9.82208511555470487053299,-0.017762093500954957703275,0.0118202948177724993100712,-0.00630838236944187419341645,7.17630126240366728040954,3.78356779671054210822945,1.17915785861304889259316,1121.30162187695418651856,1131.73922375175834531547,1127.03629189558773759927,1130.10064821050559658033,264.343781887242755601619,49.6332784823618240466203,121.294988201728159538106,-128.956601682150932219884,151.60027792297924520426
7.38499999999999978683718,0.865345524577912361685605,-1.15630668574566852768726,0.0409616786682960656862384,-0.0183546367767466675480215,0.0075652138379149937857937,-0.0171829457268460536467636,0.00227950544580604857330952,-0.0017568417610686435249151,0.103116499944039125002959,0.994665064782815244726066,-0.023608442971002417676285,-0.0143929519515467174706203,9.82422673256095357885442,-0.0179432920609073932871613,0.0117581045539252356663118,-0.00624883829697013906678826,7.1762532759753723254903,3.78358577463630973980457,1.17914569482201669892163,1122.00781391681812237948,1131.8847712367282838386,1127.47637576606916809396,1129.5013902230766689172,267.25601680250861136301,66.6450087683656988701841,203.798411246548113240351,-302.187440679615122007817,151.60132914695410022432
7.38750000000000017763568,0.680329953836110945530891,-1.12067371847385577332545,0.190117257730537114746028,-0.0171374224727002429091716,0.00426435930876220992830072,-0.0160733297847411825409747,0.0022555683035178327247583,-0.0017488717032662711055313,0.103114191300884019963924,0.994665372253735413643483,-0.021849683345638179488013,-0.0156085100691471106992836,9.82618467347138668799289,-0.0181207263181057988410405,0.0116940403187497966863706,-0.00619133487156242178633958,7.17620314680696669284998,3.78360272278258324973876,1.17913337394258777024447,1122.63790196096670115367,1132.07244879560016670439,1128.05528395182045642287,1128.58971100710755308683,204.376032900713539675053,81.5514221579960434382883,240.221907419307825648502,-397.772183155240441010392,151.60243347223948262581
7.39000000000000056843419,0.523685489353515443156084,-1.05329743727908886619105,0.30222582858048641085702,-0.0172595118764529813215614,0.00197206783383622108116184,-0.0149725965990063561439349,0.00223997441024739469411786,-0.00174332007026964169379979,0.103110178247317441080355,0.994665832977085107025061,-0.0195781396885252659267884,-0.0166269430153672959082911,9.82797797628790448243308,-0.0182900079074403872081422,0.0116282282505431027591625,-0.00613629947498210009948494,7.17615113731058595902823,3.7836190826350031279901,1.17912094013865531572094,1123.02969408132184980786,1132.29252834751832779148,1128.6774853031658949476,1127.51252930730015577865,97.6055146374640401063516,92.8470927402960768404228,254.436015440574891499637,-461.543575247888668400265,151.603600194799128075829
7.39250000000000007105427,0.41850346562134255190557,-0.975579994768132285898332,0.39495119064115752349764,-0.0177626787525061967387696,0.00017344090886692425912928,-0.014013764256998025026224,0.00223175016486559362610675,-0.00174134949913454977268867,0.103105867899315931102144,0.994666301002716357615441,-0.0168073901632958822016661,-0.0174595158124802342369808,9.82962816797933314205693,-0.0184469176901747126950948,0.011560496111501228355678,-0.00608358020127705047264133,7.17609790227709876120343,3.78363568365988012232037,1.17910809596602383919617,1123.12592953415401098027,1132.53668425930163721205,1129.32746402902330373763,1126.28199313086815891438,-26.5469771542490171611917,74.341634133817706242553,207.02076317698342222684,-412.956667713123977137002,151.605070276983099120116
7.39500000000000046185278,0.414749125341807467481914,-0.933941506743154903347204,0.44123167219145043027595,-0.0178349724462677251823894,-0.000910932600979194075085932,-0.0130525918387679948362567,0.00223005977249520490404699,-0.00174505998112099453695167,0.103100334576635366268249,0.994666869909207163047427,-0.013544251693452392937278,-0.0181174294394188424572878,9.83115802973484242954783,-0.01858767315858197641254,0.0114902594886972068966013,-0.00603256871886138825583634,7.17604344040101249646568,3.78365320102574509419924,1.17909413590041478592241,1122.89695919555060754647,1132.66423651818740836461,1129.71258911905079003191,1125.44774596873457994661,-140.405278980509393704779,20.1044895050931451407905,114.088830628500247144075,-275.701149603816190847283,151.606352089972659769046
7.39749999999999996447286,0.494224603556720154529103,-0.923014772602517297173108,0.459220766469763397310544,-0.0171925430613171434379716,-0.00205790084279513802584249,-0.0116339984558146442711335,0.00223380043773324177616701,-0.00175456837201258325151243,0.103093745370012895845591,0.994667524011523140892166,-0.00984561701816527058694906,-0.0186137714748898577821201,9.83259068390500168277413,-0.0187089300572132154198979,0.0114167929201790373933134,-0.00598245229443654120277118,7.17598786312331515802043,3.78367162832855186138659,1.17907841269788948856956,1122.42390313925147893315,1132.63720670682710078836,1129.89790818216579282307,1124.90348738284910723451,-235.63837202128118519795,-61.3669877860970132132934,39.9993978692245377715153,-171.701746095372101308385,151.607690616411048267764
7.40000000000000035527137,0.665449571876737699938076,-0.929455025446720206616646,0.455876849650092119681233,-0.0157946453487908360091563,-0.00391981337086091605192983,-0.00985652881764145262499799,0.00224265284775123328875335,-0.00176969162594118895742712,0.103085135126098001445705,0.994668363974498093149634,-0.00578185380899420148237411,-0.018946613781043217250577,9.83394876680795171353111,-0.0188079505885637571216407,0.0113393295097324615233747,-0.00593241344102949860750407,7.17593145128044795910682,3.78369081474586366198309,1.17906028883693370090668,1121.71876733544422677369,1132.35740157925692983554,1129.91258610839690845751,1124.58923723825773777207,-258.3957523202626020975,-147.892582483976610774334,-19.4641294970555982501992,-70.9834275914105603533244,151.60935934447832096339
7.40249999999999985789145,0.852066668370915381025554,-0.927407900459435219353566,0.443124574394041070846129,-0.0142336760395151643715517,-0.00600435484562278007358849,-0.00884563534652520189194291,0.00225508865107696592280928,-0.00178624144753208912231313,0.103073385162337660680976,0.994669516081690852082886,-0.00151145879315056283487273,-0.0191307605657909975127584,9.83525400238898050986336,-0.0188826139198047839029559,0.0112573018766638638377131,-0.00588205807440360297494442,7.17587411778146844199,3.78371066233315600513265,1.17904123914963454566873,1121.13192437765019349172,1131.89774379440723350854,1129.80058753468051691016,1124.54857024489206196449,-209.629890800356321278741,-226.727767030120332947263,-55.3045322877563165775427,3.57119271584459374579978,151.610799418483196632224
7.40500000000000024868996,1.05795157878695400555102,-0.883014890922574791076727,0.435676632536409647045161,-0.0119461569183924760928495,-0.00878094284670289867977822,-0.00848684599179778779987071,0.00226922042120932280703793,-0.00179913853455282934067083,0.103059219982612568222713,0.994670918642938217679728,0.00278370141900386239286469,-0.0191879158570852949294849,9.83652667937765556871454,-0.0189314866386214898652529,0.0111705793807531685024603,-0.00583155713528582964749747,7.1758159425128438257957,3.78373107212951431677084,1.17902307277299134291582,1120.67061788144246747834,1131.22376274410635232925,1129.63606344695813277212,1124.60709320183696036111,-151.298886786938538762115,-332.576512274552271719585,-65.6176024071114909475,11.6043778047244554585404,151.612287272008074978658
7.40749999999999975131004,1.2945511521637771412685,-0.745922772332094030645067,0.443131615399621203721381,-0.00839509953058066235587198,-0.0125719373634003098866296,-0.00814962913886158567267071,0.00228368098414425150718965,-0.00180432699772809044397315,0.103045554535960606767908,0.994672280837021860477876,0.006940001228532822336037,-0.0191339851097250476796852,9.83778508895836445447003,-0.018953922238159223029319,0.0110796208909249502272409,-0.0057816089858599350667645,7.17575727552901465600144,3.78375147756307983470947,1.17900712538558583020176,1120.37542994371551685617,1130.23486123303450767708,1129.47249952264496641874,1124.60659213391568300722,-53.549734040371966159455,-381.153136621477585777029,-40.6572413907278615852192,-36.90975428721764473039,151.614123222064904439321
7.41000000000000014210855,1.46025906674162597731481,-0.549371917531548570323707,0.460306944123312355987565,-0.00483409831348317886590138,-0.0154856328931288356881568,-0.0075216571529492246353521,0.00229604342456922157558741,-0.0017977090920574089871059,0.103034613310029193877781,0.994673386778988199985463,0.0107905504214993279432644,-0.0190083964447435027622646,9.83904508557404966495596,-0.0189501827129090819057389,0.0109854665035963861008383,-0.00573324244237295114340336,7.17569863510815952878374,3.78377081533900394560987,1.17899404385838235675976,1120.40286921124061336741,1129.31799706099900504341,1129.43277724000449779851,1124.42254443040087608097,74.9718870983425489384899,-374.634940503879647621943,19.7125842038955063628691,-130.845650236576602765126,151.615691461874860124226
7.41250000000000053290705,1.57013134943486165617799,-0.273952490637356382841006,0.475522785049217078245931,-0.000537683228934184281183617,-0.0175505701914255678175447,-0.00628365818975657082490205,0.00230513939201352135652257,-0.00177856825656189402803942,0.103025100891435142380637,0.994674375949508027261459,0.0142394457785209559153028,-0.0188360219487291452589162,9.84031913013699366388209,-0.0189215786271590448441859,0.0108895729327181632617449,-0.00568736524031119173444582,7.17564069469415510837962,3.78378895425412453690228,1.17898336363515032765292,1120.75028937920728822064,1128.36168653051481669536,1129.57106244366445935157,1123.95236388273269767524,191.624659599169262946816,-382.664234660804993382044,94.6928004364528703717951,-237.892806822269960775884,151.617294415446792754665
7.41500000000000003552714,1.62223282914635436036122,0.0464287196941164451158279,0.476692784717877515721085,0.00428103931075562646468846,-0.0185287269562478158768659,-0.00460219221492613999452415,0.00231476512809982966703548,-0.00175317908590527041928775,0.103016442633425034380856,0.994675287333044111370839,0.0173423306371322839825044,-0.0185623099565882972161734,9.84161498530727740785551,-0.0188703889055184328982229,0.0107938026413595296315595,-0.0056443037578550198790639,7.17558441142386449485002,3.78380580227038709750786,1.17897485901666754237738,1121.36099250923643921851,1127.40467588769502071955,1129.90624124218675206066,1123.23308039628955157241,299.564843013565223373007,-375.618684175204919029056,188.106006383627033073935,-334.83429942644568200194,151.618922144461805601168
7.41750000000000042632564,1.60355391891347975885651,0.382955251976531130253534,0.450868482749297416756207,0.00899870003875944887705707,-0.0179485333270509653247338,-0.00286352883130296369945667,0.00232895150827171215635047,-0.0017293031026390901123968,0.103009064319966980871612,0.994676053775783497457041,0.0201912957710259528820718,-0.0181348299249107711150764,9.84293526655386941115466,-0.0187996623628574749398368,0.0107002898782192785304135,-0.00560361171142839589037754,7.17552995207326738125175,3.78382088410527250843529,1.17896721053828135161723,1122.24811359427508250519,1126.48359310963883217482,1130.51159247558257447963,1122.27819238560050507658,434.808756177663042308268,-386.008379239873704591446,325.209615294404670748918,-441.707970263915171926783,151.620574969957147004607
7.41999999999999992894573,1.51602261720327047278545,0.751159722829397802357221,0.387333377276516066523016,0.013640233879946429829122,-0.0154065296493648643677554,-0.0012346948334166431456016,0.00234722013923276779864824,-0.00171109351603058470157881,0.10300352603777881976832,0.994676611575950331278761,0.0228073852906678538332574,-0.0175856491348806605323762,9.84427719879349005793756,-0.0187129869879373300634029,0.0106112002534869114683813,-0.00556398967399247303122767,7.17547755414504528914676,3.78383378502834011314349,1.17895895577247955543498,1123.53503629012470810267,1125.47463399149569340807,1131.53228931865874073992,1121.02454054497002289281,490.539045535216700955061,-345.221410459915261981223,409.208734649664222615684,-447.909731946092961152317,151.622581592212725354329
7.42250000000000031974423,1.40803312673503810970033,0.994337549517352314865093,0.313221084095300306149312,0.0167702141328650959628543,-0.0119867352348650545862396,-0.000350360362582776113226507,0.00236827104664468369304986,-0.00169788524591285030183874,0.102999799608692044206038,0.994676968605224032238254,0.0251258209345144693791507,-0.0169561881237380585041308,9.84563197609203477611572,-0.0186142929081426489190676,0.0105283400881954064542967,-0.00552339490622227521909871,7.17542716462435503643746,3.7838446123932878428775,1.17894871999506944959535,1124.70080882195111371402,1124.75748605733929252892,1132.55763614883085210749,1120.03864372587008801929,462.934257705920458647597,-251.10091481001825286512,415.139907779994018710568,-350.4397855302688071788,151.624269211617075825416
7.42499999999999982236432,1.2845022785387261166079,1.14874536284227923843559,0.227522119792305632657303,0.0193366361436628914072244,-0.00804085048927412858466024,0.000119513732969670329400746,0.00239482920547901033739291,-0.00168637851724508149725557,0.102994795522531559783808,0.994677443732676302978746,0.0270496093865939361833295,-0.016205789387868124729053,9.84698394762312112504787,-0.0185077275559569418006411,0.0104526815245256313874345,-0.0054792308875938507128911,7.17537855412835057222765,3.78385469589896450415267,1.17893660550918988327851,1125.84970757865426094213,1124.21912941744562886015,1133.60798885755866649561,1119.27234161731871608936,479.534201342140704582562,-184.841262178637720126062,417.181161001198915982968,-267.05465599298463530431,151.625968507812956431735
7.42750000000000021316282,1.13198201669877507313799,1.23366050380225944493873,0.122055744381102754259061,0.0219219475318499085192414,-0.00384195908684520966852594,0.000367562506417420356737147,0.00242487652360163282588834,-0.00167153397161637590033478,0.102987603926643050966661,0.994678143212233578651649,0.0284497537286640851672548,-0.015384602963691838828364,9.84831073900521580810619,-0.018397337893569561811935,0.01038443083024671864667,-0.00542845452082675507948784,7.17533149985139750981489,3.78386548484823403981636,1.17892295834145488520051,1127.09847982866176607786,1123.83327974644612368138,1134.64354195383680234954,1118.70337044590519326448,425.273695798168716919463,-91.1443731118216788900099,301.139045947417855586536,-151.990679074427646355616,151.628016543777761171441
7.42999999999999971578291,1.00164103513700086800498,1.23653543293981837969397,0.0371773403511416605793372,0.0241428879673817424478255,-0.00106894908102578897052259,0.000418745863995378811775461,0.0024563122306336623336398,-0.00165190344596452759820537,0.102980377729535221842383,0.994678850594845509469621,0.0292792435979136698998015,-0.0145522064145334230345075,9.84958282418295638649397,-0.0182869125128447204686744,0.0103229856314359120378343,-0.00536774701804481387673595,7.17528522603213048114412,3.7838782593868289794159,1.17890690034992595691676,1127.97607605764505933621,1123.76340755188653020014,1135.11368408729572365701,1118.51238822194659405795,310.845859269972891070211,31.2345509308222339939221,62.1915335881580730870155,-36.5220118379064473401741,151.629727542386120830997
7.43250000000000010658141,0.859431227867027192068861,1.19158248092319074551426,-0.0413849475327465743390576,0.0266903589845005825842428,0.00117032691703867195755218,0.000391217268279444359974084,0.00249058835920968300869927,-0.00163183572466143490820034,0.102977661793936442480302,0.994679083433508193223815,0.0296234016589706182498443,-0.0137097982766159025291852,9.8507638753650255125649,-0.0181798525314376228922963,0.0102670460810929606298991,-0.00529383211682243979417928,7.17523925560777886545338,3.78389299700746217780534,1.17888813816601656370153,1128.65270912501159727981,1123.98945250110023152956,1134.9544996217775860714,1118.52076038671566493576,250.879778914992925820115,172.605851820908668514676,-247.562617293949585928203,16.2414170742951746717608,151.631439623350672718516
7.43500000000000049737992,0.665203467655129498936617,1.09996859717939443612522,-0.126335889283296615159813,0.0293276864616988167111522,0.00369630592196956188344448,0.000294322687671831227304575,0.00252994248373778407232293,-0.00161677807148963531384822,0.102982121705816193069083,0.994678550781658010748743,0.0296015930893518582067703,-0.0128436800180956045558389,9.85181266497948016080954,-0.0180790962334993754456747,0.0102147686207157174786975,-0.00520402643707341180240311,7.17519360652566184910484,3.78390950169868256480754,1.17886674362073273769624,1129.23047495222022007511,1124.62643681099120840372,1133.87587100082578217553,1118.59359530731808263226,175.018665557585421765907,293.864878727214886566799,-546.407118361924176497268,13.0084784669637016918387,151.633491755014802038204
7.4375,0.481636968447151092576064,0.995997851317833471362917,-0.187116577104760484218104,0.030489508985531849072359,0.00585485479535273727752509,0.000137199870330475317279154,0.00257460789560668952893896,-0.0016062172761414552496495,0.10299317539782908148549,0.99467731223661803863223,0.0292221864414576766588727,-0.0119648598056445870652098,9.85268574337169766863553,-0.0179869964517494068667602,0.0101640397005511393807575,-0.00509688928728953098701293,7.17514834855602323671064,3.78392819773902422397782,1.17884391730501980610768,1129.52780245279950577242,1125.45877689473627469852,1132.2224640299680231692,1118.58580277905048205866,83.1618204184014331303842,387.705499148122783026338,-793.69967509234686531272,-37.6951393504904288533908,151.635197162255934699715
7.4400000000000003907985,0.274479891039021373089213,0.859524525340904843595524,-0.232026315593704623996274,0.0307104534962192900204858,0.00805301243956723505901252,-0.00016564238744285435375389,0.00262384937860105256490773,-0.00159676001300102562291405,0.103008289297484192936771,0.994675637718349436866561,0.028443704587081172080465,-0.0110947624601491767748485,9.85333922757000557623996,-0.0179052614072321147897782,0.0101128248056352627870513,-0.0049724485457464705565056,7.17510283893262901244725,3.78394851691791123116104,1.17882160041010752848933,1129.64628405431221835897,1126.56496430673178110737,1129.90737262536413254566,1118.40511961056563450256,17.861306146278746354028,476.515282440287762710796,-998.879473991040299551969,-106.554037297885315638268,151.636893944400327427502
7.44249999999999989341859,0.0417020215050586187666148,0.690696823043807861530752,-0.257062012125692129771437,0.0308341570217532633113589,0.0104572125194969407085965,-0.000651589352952496709235619,0.00267445891562187497772496,-0.00158425827902644025466095,0.103022762685729671328083,0.994674029783177537922256,0.0272120354833330045651874,-0.0102989791668842492478042,9.85373096652575597431678,-0.0178349619869342633504683,0.0100594707035606654998983,-0.00483220745342661552046426,7.17505616095811404875349,3.78396943707704602744002,1.17880120470131055654406,1129.61710898353089760349,1127.84135330693766263721,1127.22806666001292796864,1118.05303259256106684916,-49.2230988797938664447429,532.859296837307283567498,-1099.89546313252117215598,-176.238802249330660742999,151.638580362585258853869
7.44500000000000028421709,-0.235957690082101517736746,0.480543533522847898797892,-0.247775792474524414465975,0.0314118091990128259216597,0.0130224596389960332876168,-0.00140940347038604764894065,0.0027212059178312541195266,-0.00156804883640012933214425,0.103036115535194247594397,0.994672553188243879773722,0.0255429995654018922313089,-0.00968765961449157345097838,9.85382240241438189798373,-0.0177765401320102815752033,0.0100031333169110329961438,-0.00467886197625693237012179,7.17500843513743280510653,3.78398972405312239430941,1.17878416783042183624275,1129.40016855991325428477,1129.22926079091826068179,1124.40789530970164378232,1117.52392559931899995718,-140.430404039901333135276,609.575675340478710495518,-1190.17978285912977298722,-252.341392593603728755625,151.640249886546229163287
7.44749999999999978683718,-0.632198160472083658945053,0.195128959694887055276169,-0.184457563309561423103844,0.0325233876884078176860982,0.0151964712115830076488709,-0.00258120724300560811653726,0.00276023140687155004932563,-0.00155194104009312829409173,0.103047942642733078577599,0.994671254293808537738641,0.0235472752768267866441132,-0.00935097525591734035632641,9.85358042313753124119557,-0.017730080168674920010341,0.00994364776420990879868267,-0.00451597841210833565728233,7.17496004333652592777071,3.78400861835017021661542,1.17877085690129801420767,1128.91495696333140585921,1130.88923168363999138819,1121.27716774571740643296,1116.79132562959307506389,-212.137041297005424667077,588.281149729995149755268,-1049.42657807525802127202,-263.133294098730573296052,151.642227444306911365857
7.45000000000000017763568,-1.00334954065067782913445,-0.0443253063231934252286237,-0.083352611017021516204295,0.0326512575013096703613336,0.0155497972301627453844963,-0.00356872539476628869090091,0.00279349187607745054473529,-0.00154186003722023181987388,0.103056883253238626418913,0.994670258815856134226863,0.0213919313510955062807017,-0.00926747856867356223364851,9.85297910546707456092008,-0.0176954787770888626041721,0.00988135699769032184447415,-0.00434768543393074073655225,7.17491176643817407665438,3.78402571026355660777085,1.17876072732276049315203,1128.33948335342824975669,1132.17066653956817390281,1119.16076241932546508906,1116.20825912882537522819,-252.892142864181124650713,470.146666395357158307888,-693.334131010197666000749,-200.717604656043022259837,151.643848743851805238592
7.45250000000000056843419,-1.36993468954237695989207,-0.244760901914903628018294,0.0645462943577155834340431,0.0301031605878249071406305,0.0141850315996931344159071,-0.00405923509757761136890197,0.00282407351209341874603842,-0.00154213259114512253079854,0.103063040745720257973517,0.994669540682867059366856,0.0192168974189417980646954,-0.00938883168647863114442131,9.85200154529552207804954,-0.0176724648664003600173622,0.00981704011112903215940939,-0.00417827574027420257235521,7.17486396994476205435376,3.78404076706416647724041,1.17875273363907839829778,1127.65049624901030256297,1133.23996501561714467243,1117.81049709066587638517,1115.78773760631270306476,-303.488919217085935997602,401.510057298727986108133,-388.684045135377459700976,-122.639798718139786615211,151.645435696762689303796
7.45500000000000007105427,-1.725802814322602074526,-0.40202624334617259593827,0.280374551481192946233989,0.0237209137650054510682018,0.0111439443468467277997824,-0.00384258785850846804749148,0.00285243694505562996738268,-0.00155196205560268916598399,0.103067512901659719126712,0.99466898594321662141482,0.017057212538645557392547,-0.0097063380815983063554242,9.85064099059445119621614,-0.0176606205204898614180564,0.00975165504853537160045995,-0.00401192710838181067212194,7.17481648190530307829249,3.78405371324638339913804,1.17874609914207950644993,1126.82203875734285247745,1134.17821682606177091657,1117.21734219364861928625,1115.5950601352346893691,-282.179364750715308218787,277.373602442463834449882,-49.6530547128269645895671,-7.25221956849979498826997,151.64729205999469741073
7.45750000000000046185278,-1.90424400107027569362117,-0.45527081525842322262676,0.475871395921730167000163,0.0168863929701660968329957,0.00845767927548500379753005,-0.00320349797419273996101907,0.00287926888580956668803323,-0.00156808309980009598534612,0.103070694094460291179161,0.994668557106623052455063,0.0149000107816985964681589,-0.0102002993043514948723338,9.84890055482648030249493,-0.0176594630917920325519077,0.00968595983251296921423545,-0.00385243124286866432670617,7.17476939729782170473982,3.78406482670987998062628,1.17874043079524670751823,1126.23959942525675614888,1134.6268330278294342861,1117.56223181710174685577,1115.75147650847020486253,-189.365335629240178150212,108.35514994664895027654,280.834352708012886523647,134.342118597490440379261,151.648793376646295882892
7.45999999999999996447286,-1.93773138903508712616031,-0.446310909782153930613902,0.664393959720032123428268,0.00994811379977599691271095,0.00686616274366341414192583,-0.00202751447386235756492612,0.00290296844448353344100844,-0.00158770995624832886652933,0.103070810787779784667428,0.994668447237282093986721,0.0127364958696752801625696,-0.010894993882406930896245,9.84679280292416159170443,-0.0176685105071904720308584,0.00962021300677812739310379,-0.00370292948172576972046266,7.17472221415506261621431,3.78407526155392437416936,1.17873473646248694279848,1125.87521207919667176611,1134.7199925757950040861,1118.62151395718865387607,1116.26677072822212721803,-99.9780557157940563683951,-31.1161598091082218786596,569.198924671139479869453,309.260823240181025539641,151.65024188654965087153
7.46250000000000035527137,-1.83540655589579193573968,-0.407768649679781602923612,0.851166548963967484198179,0.00309894755304169610549136,0.0065853974685337740568869,0.000415364577573482628147783,0.00292244185870757164358302,-0.00160557939559256672434895,0.103066859153085360611968,0.99466877200866465891238,0.0105090664873026019832114,-0.0117976855543917638624585,9.8443391357429650412314,-0.0176872234892599226874221,0.0095540898139544645772947,-0.00356605099705468563814348,7.17467471665542522174519,3.78408589589167032585237,1.17872897145433830345951,1125.73970914667779652518,1134.4712522287838964985,1120.40822644045738343266,1117.29778062467107702105,-3.55126574431786412588963,-137.705766005686399466867,688.417323313220663294487,442.736725386530793002748,151.651914645916974677675
7.46499999999999985789145,-1.674712263149951807506,-0.382662311344938721457964,0.951217507646404336618673,-0.00048083111829422476224058,0.00718495236090146288665537,0.00335580100010044769798245,0.00293868351030867128170776,-0.00161892152964688337130061,0.103059585076155327265646,0.994669455695468940348292,0.00821138245054727280991536,-0.0128773725480198601711646,9.84156842629976225111932,-0.0177150596295644023603355,0.00948670668097873273638676,-0.00344380581028323057291018,7.17462646369093715037479,3.78409784420865413778756,1.17872308764293909355558,1125.85745575047508282296,1134.03146374576658672595,1122.06360057375468386454,1118.48045435515473400301,79.722977963958214786544,-205.358955955220892519719,638.564837729259124898817,531.183104224840008100728,151.65325210000625588691
7.46750000000000024868996,-1.49222063498700308059597,-0.381249246911602168719213,0.975143500026770970734447,-0.00251727005618936853365009,0.00738836659458993409016481,0.00692258300473422641396759,0.00295140498768560379655446,-0.00162636098554224165467497,0.103052802646403304787093,0.994670106306007051344409,0.00585948157347916318005154,-0.014128212023494780141819,9.83851614764954973679778,-0.0177514803575966571835831,0.00941684400573854739346924,-0.0033376428220350650571957,7.17457775801278607730183,3.78411151885245899961774,1.17871699855571021586798,1126.1383240364975790726,1133.44445744900781392062,1123.60105062910361084505,1119.95369614579522021813,138.961136371247675924678,-274.118076104565659534273,601.180778794027105504938,698.477279718159820731671,151.654530017165569688586
7.46999999999999975131004,-1.28931197653881146614196,-0.398324968648464783349539,0.91616917793934271596612,-0.00503637605825687714733441,0.00639607990014626724695201,0.0110211387636773815168478,0.00295912908859998977084693,-0.0016250458569345032668052,0.103050153447557787944611,0.994670355781561932317913,0.00343541290226507742278095,-0.0155614553983220854638247,9.83522324290644256450378,-0.0177960150413061443663842,0.00934308373029133810983016,-0.00324862422532355568996487,7.17452936948293729102488,3.78412658762232512188461,1.17871131619129099199483,1126.55226143233130642329,1132.66087336524378770264,1125.069504467724755159,1121.97284075374545864179,151.268822401610606220856,-293.410244334478989003401,458.317065487299942105892,764.26906545563531381049,151.655995514614005514886
7.47250000000000014210855,-1.14319001899782457520871,-0.413506708078216156376783,0.811258513108367829147483,-0.00758093328627572077965668,0.00500028980661583726669006,0.0134698655620173468605572,0.0029609936059894182390495,-0.0016159208328482646023494,0.103052900572187189354167,0.994670074167434803413812,0.000993796325553453901990864,-0.0171807383204808164500754,9.83173440776045914901715,-0.0178482852897217485199644,0.00926397610313676490856327,-0.00317727778730643580992754,7.1744816776235831312647,3.78414232170700426394205,1.17870638870531818653831,1126.89466814850561604544,1131.97740622733545023948,1125.89263595654006167024,1123.7750414730733155011,129.034573515243948804709,-280.083918334868826605089,246.614447155441325776337,717.483905493760744320753,151.657161911316592295407
7.47500000000000053290705,-1.01903832186472032006463,-0.415052195987459737747116,0.681890283745091752010126,-0.0100376536646253917278715,0.00369679280862795188455916,0.0146720525771812156795582,0.00295694829181847567561858,-0.00160125420237422662339544,0.103058006880591454534901,0.994669572501304388723042,-0.00138649664980585243800881,-0.0189734058620853532350914,9.82809689600061453518265,-0.0179079037673509251782367,0.00917813248685154375872131,-0.00312364368138737420743656,7.1744346828015315153948,3.7841578217607683143342,1.17870220636514888568058,1127.19743429990762706439,1131.26045377356922472245,1126.30257670350215448707,1125.56026028121482340794,116.18916292909736398542,-297.778865643528661166783,108.692756925395357825437,687.233093138062145044387,151.65827477676532453188
7.47750000000000003552714,-0.908440671203517791099102,-0.399054095196150371283039,0.55668583978587349303524,-0.0121953218282214170820055,0.00255148527875004174983453,0.0151368701573389979192497,0.00294700419737936635325437,-0.00158400543846479863185905,0.103062073175866200647199,0.99466919882490156812338,-0.0036166462616480758718307,-0.0209243507636716445652336,9.82435924489300482775889,-0.0179742705102730986055359,0.00908441980596077364173979,-0.0030872143445390201610401,7.17438782184977252853741,3.78417278243728727460393,1.17869784969663737861367,1127.47561396315109050192,1130.48851189911783876596,1126.43609974116702687752,1127.21120693876355289831,113.863140089508917185412,-330.850613794889568453073,11.2246939027502445895834,600.244643405234569399909,151.659346033677735476886
7.48000000000000042632564,-0.806635406136088306539023,-0.35819161035116964253433,0.454120209712535471968664,-0.0141523397934944714093852,0.00142042769447134494507912,0.0151950747566441807245852,0.0029290974944726016170049,-0.00156545269633502734558939,0.103063336277368786109143,0.994669141016558122636582,-0.00564894372762906812890371,-0.0230534095532664538852341,9.82057012825363706554072,-0.0180464504476820462863795,0.0089820121474264002364718,-0.0030669823568158210286283,7.17434068288583226546962,3.78418676900861106204843,1.17869233869474365761221,1127.76675000035515950003,1129.6062007045948121231,1126.35870017301590451098,1128.56148349824093202187,144.611811717689647593943,-422.129553559225200842775,-51.3066792444089543323571,496.265485080049643329403,151.660369972745002087322
7.48249999999999992894573,-0.682942142638347293726042,-0.279627373394034373088601,0.358831552397389508257675,-0.0164923736873179675732626,0.000135610887426744594792816,0.015557435674596924862767,0.00290495843105685212434675,-0.00154649746885689837704037,0.103062401577565895816058,0.994669331131780909416307,-0.00743966910495597044672422,-0.0253038616117873087218992,9.81677699489529409504485,-0.0181231858479730910393979,0.00887031240498314423048587,-0.00306158276644686450085331,7.17429247192950381162291,3.78419993498670326204092,1.17868558148825108844449,1128.19867302173952339217,1128.37786413132175766805,1126.17956634494498757704,1129.69253436416374825058,178.84536743991174034818,-479.098681428523605063674,-63.8145531241675527667212,320.317212832749191875337,151.661546896126310457475
7.48500000000000031974423,-0.570858903716261578686897,-0.192789455732397918552579,0.291112737628900830610945,-0.0183651100533660134594971,-0.000776587577976451553553316,0.0162983547732073220937199,0.00288035512483487314908115,-0.00153070250115212576173807,0.103062876464070071746981,0.994669373939576551002517,-0.00888953393327625122910529,-0.0275446052174742259111007,9.81302511634925167527399,-0.0182030062417378769856757,0.00874891507202893436989655,-0.00306935930971653000293164,7.17424293253973210937602,3.78421293153114879359578,1.17867751906505380254941,1128.66097683755469915923,1127.21070729745224525686,1126.03962740739507353283,1130.1630695624046438752,204.01619849581473431499,-486.900616494050552773842,-47.767391065282133411074,85.7168937359365514794263,151.662486039458514142098
7.48749999999999982236432,-0.444674510413187840107696,-0.0930382927680446503160283,0.215948410689994346745024,-0.0196122274694259628169402,-0.00143164981104740469952663,0.0171783673580394972979501,0.00286185794910751630654167,-0.00152200725859563896005811,0.103064950907579139238734,0.994669225067875140133822,-0.00989472046229808790962501,-0.0296296214362070445269559,9.80935706544125274319867,-0.0182844833662756493797286,0.00861739677087777940223123,-0.00308859685746435764022721,7.17419241499434079400999,3.78422627597544103394966,1.17866833405485582630945,1129.21875401421857532114,1125.94336104885155691591,1125.94072938961858199036,1130.12111883284342184197,247.371266020450832456845,-554.566912345456330513116,-41.3667730312235732981208,-127.733738744203037640546,151.663383134025991694216
7.49000000000000021316282,-0.275622234041882963051506,0.0238841218813311134683275,0.0968778847831474332341628,-0.0201036741718177425219949,-0.00170502115065686190957528,0.0180861450934601333817575,0.00284963461235408950511516,-0.00151998176904532557827954,0.103067950089611781727683,0.994668953910302633403262,-0.0104540456618334512417512,-0.0315298202630446972039024,9.80581235052051169986953,-0.0183662813803445353066923,0.00847553830961614816652538,-0.00311779027194761942931578,7.17414168019547648924572,3.78424032336100468754125,1.17865818757996976273716,1129.89783316765692688932,1124.43787273572502272145,1125.8327935422389600717,1129.52440086868364232942,225.055811393763434580251,-522.01674336130258780031,-47.5063019157924983915109,-293.958349899737072519201,151.664411510396945459433
7.49249999999999971578291,-0.116126243486660118975351,0.102728352138869286069855,-0.0365684675429084685149839,-0.0202946944231036686956404,-0.00139298997650465824355015,0.0187660036400549186386133,0.00284032711675625496733355,-0.00152040344476875636213486,0.103072217995074405516576,0.994668540457256500353367,-0.0106516456968862791021557,-0.0332787829054790040839151,9.80242695444623279854568,-0.0184471742217378366357483,0.00832351507593241841942433,-0.00315581285122405741372376,7.17409107922478561647495,3.78425462586753047489196,1.17864832817275000387269,1130.34403307118736847769,1123.33327733204509968346,1125.70319788003962457879,1128.65132708334476774326,116.419087044689817389553,-374.444447114054810299422,-71.3251151451019467231163,-399.954297620669763091428,151.665228145567226647472
7.49500000000000010658141,0.0736723541079533916775546,0.143007814897262719444626,-0.209516092350689187018276,-0.020935108610911246085351,-0.000732027555654439130404521,0.0193279841082398713691948,0.00283211842500620970125569,-0.00152015457269212127949798,0.103078872539305768651907,0.994667879326099013681528,-0.010550899045936663195322,-0.0348847224333305727661525,9.79923307203200977255619,-0.0185260622018975987246314,0.00816197805614687563191545,-0.0032018376961829328290754,7.17404011436372446297582,3.78426823164355985440466,1.17863913245434570598036,1130.47992860288036354177,1122.56565050015478846035,1125.47616796651345794089,1127.52462938058033614652,-51.5831765108861262092432,-224.622143972793679722599,-133.234873416519889133269,-518.861257769513827042829,151.666001951739190189983
7.49750000000000049737992,0.345693162092770234217198,0.12991765423742601681667,-0.451878123416110666354939,-0.0217620527224341685224029,0.000191391168945737510844601,0.0193940173530825869796512,0.00282300589269619730398153,-0.0015177034822736288222772,0.103090108461192125899331,0.994666751770834300927504,-0.0101883241609054923937361,-0.0363660802982964936891364,9.7962591364492368484207,-0.018601971353175403983693,0.00799210645987759663033678,-0.00325522513942650641022292,7.17398852702131684111464,3.78428053974817979465683,1.17863037641029166913142,1130.08611718863289752335,1122.21016661218095578079,1125.03702351295692096755,1126.05702079449679331447,-255.124917002245609864985,-21.8664108969737860377336,-195.903356108151086800717,-534.459446541779925610172,151.666879216893505599728
7.5,0.603393867822038743042867,0.0610805112764396321289873,-0.662925276950302788669944,-0.0219857509888463503733291,0.000942701733317517927800144,0.0185943830856507702486979,0.00281613947581326557953463,-0.0015148558740122582480514,0.103103877468760915525614,0.994665356575218595480692,-0.00952807748163877685221301,-0.0376519478269291621441717,9.79352987389985152333338,-0.0186742181082147420956296,0.00781531446673118003476421,-0.00331541495194433676052537,7.17393659902740754574779,3.78429173840882393520246,1.17862213140180438486482,1129.20430401786916263518,1122.45631844566992185719,1124.49665118597272339684,1124.85233214787149336189,-467.536634210965473812394,209.582473442564975130153,-260.39860488299939333956,-459.285589645661048052716,151.66756593581467882359
7.5025000000000003907985,0.865329117772071443326354,-0.0680409767389455605313131,-0.84844448966892094254888,-0.0210492404299285063018488,0.00150599466408678499436402,0.0165908108370342970150357,0.00281522718542264816302123,-0.00151389666445801945697525,0.1031200459182341211406,0.99466369166613033403479,-0.00852701834463841928934968,-0.0386665483039371066231737,9.79106643556152533847126,-0.0187423517573656155110751,0.00763341212354737806700111,-0.00338187839366509363295266,7.17388526322182595862387,3.78430209796059724425277,1.17861419030735259383391,1127.74843401757811989228,1123.2580789793937583454,1123.73503048854195185413,1123.76059284626853695954,-658.83510369827990871272,397.931154454508316575811,-345.980088505401113252447,-411.309209331429542544356,151.668204470715352272236
7.50499999999999989341859,1.09593923547790472738939,-0.240518062547589311916951,-0.984156171178732663840094,-0.01862709019377587274513,0.00170111276924489701438403,0.0135079347965098017780861,0.00282109247915401538039926,-0.00151738396052469447401745,0.103137647790217279464287,0.994661849854845958596172,-0.00714519585435653345473206,-0.0393963676018873609763205,9.7888863788302558077703,-0.0188061783390321250741817,0.00744843925772234634330449,-0.0034540110701102339114954,7.17383490670237211617177,3.78431159406087269658769,1.17860568953396249725074,1125.91012849937783357746,1124.44597421794242109172,1122.7667507434457547788,1122.7957861012143894186,-785.286806345964919273683,537.44853065292102201056,-437.803092294334646794596,-354.64988696672509149721,151.668801224061724042258
7.50750000000000028421709,1.24133317018436128975623,-0.448910776813099210436064,-1.03356292631627333378219,-0.0144683353134223875724462,0.00108454338939170127041611,0.0095416511174302998110619,0.0028312544779746959093536,-0.00152585556083960111224684,0.103154496577888013519875,0.994660063602876398647368,-0.00539105222665607272669597,-0.0398938547916305383256308,9.78700371956866455036561,-0.0188656403371021547110686,0.00726256455357309795017873,-0.00353122174293358940047605,7.17378568435622820942399,3.78431999198823243446554,1.17859606917627579569796,1123.82199998584837885574,1125.9453216326583060436,1121.54601502707032523176,1121.98734341143494930293,-909.135925594565605933894,683.761409295644625672139,-584.867702681698347078054,-324.194797511979800219706,151.669345133311082918226
7.50999999999999978683718,1.27176368451827492833672,-0.712423164362421812434434,-0.983862597401253369255869,-0.00869040925537200963091333,-0.000732756720931368953596274,0.00507626423602763887643619,0.00284230973497137098457421,-0.00153878134355740010981439,0.103168372543510869498995,0.994658573705459958524955,-0.00329793335669359075068563,-0.040232875750560954941637,9.78542893496583054968596,-0.0189206588949879482564054,0.00707800378399585025657181,-0.00361301682616462730562867,7.17373728699561130639495,3.78432709614674100961906,1.17858543533802540004274,1121.3644488714051021816,1127.86478126442057146051,1119.84241223003732557117,1121.17481211365452509199,-845.482518046282962131954,688.323920662756904675916,-645.837324856679629192513,-276.181025541024155245395,151.669933226571515660908
7.51250000000000017763568,1.1660909530812890722018,-0.922194676340715058238118,-0.864974051655887810063916,-0.00427846702560502958889721,-0.00298591781365778593734794,0.00228763755562124684525549,0.00285497879770665831042353,-0.00155592743580926728096114,0.103177403364260664164753,0.994657572575433412964685,-0.000887275071489116579082079,-0.0404129240424757341099138,9.78416895230785499393278,-0.0189710171919707515364451,0.00689686441474384077932047,-0.00369911648034707430526824,7.17368900448860724594624,3.78433308199645868086236,1.17857460240994660338743,1119.59458739561705442611,1129.38694123597201723896,1118.31682840278699586634,1120.60643828372985808528,-607.938733854958172742045,555.255282688908323507349,-596.739756413351074115781,-209.082119836433832915645,151.670366678977529772965
7.51500000000000056843419,0.938909021108283781131831,-1.10062873609438427457974,-0.697203018784451566958182,-0.000832918905325011446789951,-0.0056921873736148608652341,0.000606072336447161289472996,0.00286889149115228175510039,-0.00157625544502482204528571,0.103182124275135359003919,0.994657007584040409042814,0.0017993071021426450262215,-0.0404578779790495252077775,9.78322703243875935186225,-0.0190162643024727774643257,0.00672112956814180286663207,-0.00378949071837235765269902,7.1736407866209495054477,3.78433761189998119078837,1.17856459944643110482332,1118.32475520212983610691,1130.64105767786554679333,1116.85871344797010351613,1120.12940151447219250258,-421.816264219396430235065,457.079946677968735002651,-572.584812409207529526611,-192.044985508350237068953,151.670737765194672874713
7.51750000000000007105427,0.56843201900887851962807,-1.26032216026582322143668,-0.480209818862452286758469,0.00211173334306587884290352,-0.00914207135418201345677947,-0.000401346321941021058621324,0.00288159416077802144756648,-0.0016003009456063757836447,0.103183794771655887312356,0.994656754851339086620499,0.0047444031874564890349788,-0.040439271737544871254677,9.78260244406716061860152,-0.0190557577276486249384657,0.0065524738094456620382533,-0.00388418058698362543210147,7.17359261145093896061553,3.78434077441603688995997,1.17855578868167643058484,1117.48550607452011718124,1131.67234096936181231285,1115.45390434074101904116,1119.64621335618812736357,-197.77704296903232261684,283.802914017093485199439,-416.171857181652512736036,-164.675104789697684282146,151.671106826288792035484
7.52000000000000046185278,0.220527503146270426048758,-1.33702017749902690724184,-0.310951504323252192474314,0.00335573240031678638947699,-0.0122895677955430493444311,-0.000669155742945806383294161,0.00289281202248996760148514,-0.00163083609589515627323608,0.103186187176577931490229,0.994656419822572135380767,0.00797615771983467905514864,-0.0403936586116373647081801,9.78229010713812918709209,-0.0190886682457500692078334,0.00639216093736062057617531,-0.00398312508310360354618629,7.17354447482935864144338,3.7843428904560174608207,1.1785486566458129864543,1117.33586998728469552589,1132.06007224795098409231,1114.77785416206188529031,1119.30602599052372170263,29.9166522386264652766386,48.2210610245157411668515,-124.161581637829755209168,-127.723850365012367547024,151.671348186833853333155
7.52249999999999996447286,-0.110038942742803888541481,-1.34289989859348013467866,-0.17244229392820303869982,0.00311353197970330427060692,-0.0156866776673417300524971,-0.000627108092809945194892607,0.00290237388111622531330913,-0.00166862807889104226150012,0.103190284116521147073087,0.994655900559642480729394,0.0114819403646680175123951,-0.040353098504092257958753,9.78228033364352356215932,-0.0191140315394226247003306,0.00624074194291305076043308,-0.00408604397260633588756518,7.17349632600612352462122,3.7843447396849909658556,1.17854349619390785797179,1117.63508933571324632794,1131.91344627448438586725,1114.83309643255188348121,1119.00759410436307916825,192.693199713589393695656,-188.556010992446687168922,224.153271879781868847203,-130.476403137711770341411,151.671518224726582957373
7.52500000000000035527137,-0.420469868691443759978199,-1.25645340758790058366401,-0.0498605673403914248509317,0.00098980031871583051827912,-0.0196319546083914900358458,-0.000443627247208380217323442,0.00291029839341307031488904,-0.00171110840623747251058873,0.103193027330037448430211,0.994655518923583281676315,0.0151828186292474014151832,-0.0403393023266456485220743,9.78255844065947322008014,-0.0191307600529431950930892,0.00609796737983803269905758,-0.0041921824627124603876438,7.17344748391511544127752,3.78434654947172699479552,1.17853953574376268953472,1118.29933598585262188863,1131.11729219298877069377,1115.89862052146077076031,1118.65364397483517677756,262.040611382877727919549,-389.894939150926006732334,559.81812067249222764076,-137.565139797382670394654,151.671637470720099827304
7.52749999999999985789145,-0.569329943226075885220894,-1.10055453056728502758688,0.0171584265764110899255002,-0.00189015288853808531739642,-0.0226748948057294112679028,-0.000275699835583271537706174,0.00291432247049427895976836,-0.00175243106679216515547681,0.103193944111027099963529,0.994655340326013548413187,0.0189294159277283331743735,-0.0404106328744323201052069,9.78310427443945940240155,-0.0191376065643026685436645,0.00596310296266398375680806,-0.00430002502547403592930708,7.17339755492830644101332,3.78434840955201101664329,1.17853523530358295090537,1118.94529239262760711426,1129.96397157872979732929,1117.63218703591428493382,1118.31976840537618045346,247.435449483151217009436,-549.910898100336339666683,846.551659514734524236701,-152.777844203777561915558,151.671664925082495756214
7.53000000000000024868996,-0.582669568495307821365259,-0.853694660175924324718721,0.0543296664315464222783092,-0.00495410880077870423299213,-0.0253798817472650310722582,-0.000145222416416601504381492,0.00291220697123258966121373,-0.00178823279580092434938587,0.103192207303501232162901,0.99465546467115240059087,0.0225997224849178203476274,-0.0406254780051709951660399,9.78389143559566853980414,-0.0191333620313824809278103,0.00583489304623699325119679,-0.00440703508477930869235983,7.17334649157293124943635,3.78435098879387732395685,1.17852853259461354262783,1119.53651323326835154148,1128.36773770248714754416,1120.13137881903435300046,1117.88975475381630531047,216.697459398806216768207,-697.155326815042258203903,1094.20533158011107843777,-195.886760809484798073754,151.671616781816339880606
7.53249999999999975131004,-0.488747637418922353802486,-0.532085321520343934587061,0.0733671867183994935723845,-0.00743430153985785453080171,-0.0275539113420053723146896,-5.56314096838192548473423e-05,0.00290381402214241355827506,-0.00182028125260460431691922,0.103187296632910568972008,0.994655942188190311803453,0.0261942018012967757500942,-0.0410100780816604199019437,9.78488652112700485474761,-0.0191170409150437613232665,0.00571171677391440080900908,-0.00450966415167338915970241,7.17329448590275031705232,3.7843543802615302595882,1.17851746764525322497263,1120.02877968962161503441,1126.47819494465466050315,1123.10321369381472322857,1117.34033460132877735305,178.129968670877303793532,-802.820807728557042537432,1252.22394973095947534603,-255.919256884368223836645,151.671505644960461722803
7.53500000000000014210855,-0.293154534022622814681824,-0.127658091243755433819018,0.0783301746896709893963617,-0.00868190086226050886097916,-0.0287026589113316549228827,-8.57249540780254301304639e-06,0.00289100499435171682041656,-0.00184872892032813184934326,0.103179609267507549352771,0.994656725457894963504657,0.0296854438094483093213416,-0.0415439479572151243447209,9.78604986525844644518202,-0.0190879531476094918551745,0.00559178509716104586019236,-0.00460411153122066395260159,7.1732413898587701339693,3.78435804593643432269801,1.17850212851623425969194,1120.42716307662271901791,1124.35363366384444816504,1126.39249856768901736359,1116.61015846939449147612,181.196471578977110539199,-952.273455032433389533253,1452.14814133401023354963,-366.322601080889455715806,151.671318671369135699933
7.53750000000000053290705,0.00996618764958352720828572,0.435595092296385377750312,0.0759841985006650122436156,-0.0085504815111709479846791,-0.0286687529020789866329721,1.66227766787439403613387e-05,0.00287647192694382098157591,-0.0018703110031723156440886,0.103171497428315758759787,0.994657568810341841114564,0.0329813930595930226985502,-0.0421783470325752321561374,9.78733640826406947610394,-0.0190458182428692342214038,0.00547334179798756106927193,-0.00468698350082591766452289,7.17318775751457682332557,3.78436171566726109460888,1.17848322826761986448219,1120.93476204751664226933,1121.71682766949174947513,1130.36395440048590899096,1115.50872159592404386785,220.202158667966756411261,-951.473420033764568870538,1414.89320246599459096615,-436.601307221563047278323,151.671007418794005161544
7.54000000000000003552714,0.28475780097446201644118,0.951931519049525776132725,0.070778938895756815519178,-0.00743799274717389397731937,-0.0274172902782257900400342,2.57742389635183702476396e-05,0.0028630246271776596707348,-0.00188110730626296390917418,0.10316390793494580047085,0.994658374151973223575851,0.0359787298440392144804889,-0.0428550532529954203431188,9.78869657517201829932674,-0.0189909499100789219694363,0.00535463531053205141208018,-0.00475573372101237203807278,7.17313426688613287041107,3.78436509966799272675075,1.17846228622244564299137,1121.52817386996252935205,1119.59626656367572650197,1133.46696458001883911493,1114.42715193328672285134,305.543942643778052570269,-795.924892238889356121945,1157.11285454479093459668,-450.142922458108444061509,151.670676666918694763808
7.54250000000000042632564,0.551736973185590562351877,1.49013561483039769228753,0.0637648041919625513385128,-0.00595691658593684725264694,-0.0247474177122390809335784,3.76474410163003090517599e-05,0.00285610804045211127619175,-0.00187828788310441595170441,0.103154479183715425127943,0.994659376938825556813129,0.0386029476903163998313673,-0.0434604322457527239564889,9.79007762070488851691152,-0.0189243442984499098125095,0.00523386025362016903822449,-0.00480900401425202964761363,7.17308163017013988849158,3.78436844815681494580417,1.17844088174819972003604,1122.46248176073549984721,1117.73720320829738739121,1136.14951867320974088216,1113.25800698363354968023,508.597492312594056329544,-719.23182760817041980772,1056.87478356096539755526,-502.726088119481403282407,151.670273594711375153565
7.54499999999999992894573,0.840470211445718096143764,2.12358145227391137410677,0.0517087298714198895233096,-0.0038412506878148667405215,-0.0196614466311799546138772,6.79113903230530477177218e-05,0.002860158385149083864335,-0.00186045442986766717055613,0.103142516782401175157169,0.994660639908931609731724,0.040808084987068893312312,-0.0438974348039814499244926,9.79142532695813372356497,-0.0188475766551539705706553,0.00510939460042488923646742,-0.00484676072709792644249704,7.17303050821695187266869,3.78437190590969141368305,1.17842007909232782125741,1124.07116133152544534823,1116.00010742563495114155,1138.75133849782355355273,1111.91352149268936955195,664.114873408303196811175,-531.805898554750910989242,846.417169755541067388549,-454.473894073235555879364,151.669709026599662138324
7.54750000000000031974423,1.04217435502650945799985,2.61116038960658114476132,0.0356409922596770609160011,-0.00166641019309528705220902,-0.0138006456123915613454223,0.000111228070099486585592223,0.00288052266865117603811264,-0.00183107431497346768989321,0.103128722786302973180028,0.994662067617193557111932,0.0426481734555502617345368,-0.044055422552817295744898,9.79268544261180728938143,-0.0187626905468325465287105,0.00497979224658185674196043,-0.00487015648597156815963194,7.17298122327051324020886,3.78437578099868243697301,1.17840060844859340072333,1125.783056127776944777,1115.07817371552368967969,1140.38160452198735583806,1110.98563751326742021774,727.184454206614645954687,-239.936081660749209731875,547.748844421278477057058,-296.282726165151814257115,151.66917359378490459676
7.54999999999999982236432,1.18906462647354294048796,3.02301250627877227117324,0.00827221051975804422262684,0.00124351021908448967044636,-0.00643583226949078195805454,0.000169761008111006051271574,0.00291546920207627667867567,-0.00179304943992674380680297,0.103113916430365520904289,0.994663571767373078102992,0.0441558595748110238599082,-0.0439552131506828064333448,9.79380610561571174343953,-0.0186719267050523274331653,0.00484384272732000381589401,-0.00488152305878393390908832,7.17293363420701624022513,3.78438007698768386077859,1.1783840641990539488404,1127.70708360255844127096,1114.80042701733123067243,1141.4900827199298873893,1110.43210786186364202877,829.773126850040625868132,38.7435927190844324741192,383.33456525725432584295,-123.536756993737881771267,151.668574186041212215059
7.55250000000000021316282,1.2873621931088137237964,3.39961721421013329802463,-0.0440879927354827991226038,0.0055843425184365132890596,0.00346511452155333484967392,0.000233973342016570125864033,0.00296047210125928179219601,-0.00174877786403218322790198,0.103098115530336903455932,0.994665156696350916121219,0.0453524816585768875132345,-0.043666344607587559423223,9.79473952743440356982774,-0.0185774897907783481665334,0.00470054847564293186434892,-0.0048840539620442083648677,7.17288766904825791925759,3.78438452698486971215175,1.1783717127420390013981,1129.9319217620270592306,1115.27189167911910772091,1142.29827734827358654002,1110.36795372829874395393,746.783656222821718984051,307.139425178326916920923,220.438149252008912526435,91.6362094918005283261664,151.667785620981703686994
7.55499999999999971578291,1.29995631013543166965007,3.60186625968265383690436,-0.108002160662136290070201,0.00939818423989707656118764,0.0121196124346179823216829,0.000245722430071513425753338,0.00301209002538704992066321,-0.00170117890731418604406688,0.103081792345000755606321,0.994666776658493567708774,0.0462756673710775640051551,-0.0432344804799222326430197,9.7954431536811874536852,-0.0184813208175482433792691,0.00454917964667302630876744,-0.00488125090669945787408279,7.17284302404012930054478,3.78438905362992539238576,1.17836362366511693267057,1131.44100188367247028509,1116.33612414322283257206,1142.59227346618990850402,1110.89028890932263493596,473.448284315064597649325,552.782385410649112600368,45.5252991551797734359752,331.289375179274202309898,151.667074617651195467261
7.55750000000000010658141,1.24695157365537445670611,3.67971554366188957629902,-0.195450408220712718021517,0.0126845169256772985488801,0.0208132079463974779820479,0.000140260681781617749805738,0.00306699918132636315318273,-0.00165165238796971731473351,0.103066439719740235436696,0.994668283571826128408588,0.0469372191676733913068276,-0.0426970913129175733136123,9.79588073592598007621746,-0.018384889023235328336936,0.00438932497009018787043066,-0.00487636777451302093344676,7.17279879331192571356723,3.78439281531478188824735,1.17835855503469844052233,1132.29916318360233162821,1118.03580360617229416675,1142.52590384404948053998,1112.02440060419507972256,206.896039573861742155714,765.942032289484245666245,-88.094303180318874524346,544.341510422151714010397,151.666312653420533251847
7.56000000000000049737992,1.15071703109628953320964,3.65028422032662502871858,-0.301545700812425543357875,0.0154797196230987334913953,0.0295972108864327315691511,-0.000140285001576755276450278,0.0031206732756268434209046,-0.00160060429638062690083089,0.103052778716979057116454,0.994669615649403815460516,0.0473303007301252853800122,-0.0421110633134470363492241,9.79602260784509759616867,-0.0182891326741671939037914,0.00422081979112543578119832,-0.00487185308612485008100679,7.17275419196244623520897,3.78439566701857899033712,1.17835374288651872909384,1132.4754820815419407154,1120.1658343046708523616,1142.15180195028824527981,1113.61199646143381869479,-100.578609519200071531486,921.650548197132252425945,-232.766178590104999557298,716.319308075996332263458,151.665512068463129935481
7.5625,1.01731023022846178704981,3.48705409560432055826595,-0.424845568141713370025059,0.0179226113751669788309862,0.0386522899259133800864419,-0.000739514631770019472203903,0.0031713350258703743717037,-0.00154593049876660163476083,0.103041989952905505001368,0.994670659326450712356404,0.0474071495935101672181133,-0.0414738202327117888579266,9.79584593632016442654731,-0.0181944849311521383850021,0.00404369507118292146469196,-0.00486917390434297037843381,7.17270914102442969095819,3.78439758864680397820734,1.17834768599493533436373,1131.79627013600634199975,1122.64405634715785708977,1141.36207295109898041119,1115.60599714457498521369,-467.003348711988053310051,1119.49358057966151136498,-455.954518031931627319864,920.027786576039602550736,151.664669055903402750118
7.5650000000000003907985,0.831432583746413489400595,3.1372141639418513747728,-0.580325661720509922147926,0.0204757866246622968753321,0.0494228956780407360782625,-0.00192868718694602777827263,0.00322191916897355060123154,-0.00148619496557785956553088,0.103034626336549875458282,0.994671349214956923567854,0.0471444289402829924684468,-0.0406924959195618246576842,9.79533406459176347880202,-0.0181010303379738231310814,0.00385806579036686346853569,-0.00486875344842114046728376,7.17266395174522575217679,3.7843990939261753503331,1.17833952749427006700955,1130.14046533798205018684,1125.76330220756904054724,1139.87202936012863574433,1118.21213539431391836843,-701.756630575406688876683,1131.46052816994279055507,-639.410718455214919231366,947.827551138263743268908,151.663613407833452129125
7.56749999999999989341859,0.666137598302000477623608,2.72937935841710954676387,-0.703748898121906774072443,0.0221560095434887686927095,0.0575394563590629834481938,-0.0032910226785454188558333,0.00327089391929397121927536,-0.00141980049757336091072191,0.103030626029270863663889,0.99467169724433412980602,0.046507956498797201061457,-0.0397622978129943960290404,9.79447636207589056311917,-0.018008588126066028128891,0.00366419925246311371097585,-0.00487021456752755911578934,7.17261869251440220551785,3.78440054444776086128854,1.17832845153214260669472,1128.28748698312938358868,1128.3013589880074505345,1138.16501935882297402713,1120.34513490026620274875,-767.677143514009003411047,968.425650907395493049989,-768.458281369856194942258,794.84386928613150757883,151.662700428083212500496
7.57000000000000028421709,0.501520263249149111928205,2.23296148574437758327349,-0.802994619847833268622139,0.0231781790773619641998771,0.0637937462869590105052353,-0.00494869048676951830273429,0.00331591865853698639088343,-0.00134774691303363169936347,0.103029285060286787678585,0.994671781066361004874921,0.0455133474082391187298668,-0.0387019711706218516589217,9.79326778690107602187709,-0.017916809930108478637889,0.00346251588365931997279268,-0.00487268946200913790484099,7.17257322503083827314185,3.78440206694715985946686,1.17831378554508181544236,1126.30207962041208702431,1130.60543046210591455747,1136.02973795327943662414,1122.18635474074449120963,-817.603910616725556792517,939.12593273628044698853,-1007.33530998470416761847,696.5759111717637779293,151.66175671350771381185
7.57249999999999978683718,0.31294198506043691132561,1.58728673116682861277127,-0.870292203138271158735506,0.0236605993852670379307135,0.0687265495814670390739565,-0.00736773120207482277999045,0.00335494658547571059092895,-0.00127088186388812918181657,0.103029677822927379082785,0.994671701795995288897245,0.0441742639632567712926203,-0.0375279994543639347504005,9.79170943849201336206534,-0.0178252048977250651673465,0.00325366872046858575731609,-0.00487542273849041196687182,7.17252794003298177472061,3.78440404497178395359924,1.17829571011111022826867,1124.19946743004584277514,1132.99698865168875272502,1133.1283428088995606231,1123.82801445612494717352,-671.463814632366620571702,813.168977577260193356778,-1089.71593385847472745809,487.143820550646921674343,151.660592785472175592076
7.57500000000000017763568,0.162679915014819154173153,1.04534512389572653567882,-0.864837483597241329924543,0.02373963151154753759009,0.0709824121001482594151,-0.00980806371334730538180668,0.00338677502966419977092905,-0.00118857218863851793640152,0.103030064862236481193491,0.99467164519284967383328,0.0424774839304890988733732,-0.0362423354248760584694899,9.78980912449952711540391,-0.0177331612593207843531218,0.00303862455539282089525543,-0.00487834695377107468994282,7.17248280171559304818629,3.78440609193121435538387,1.17827509885027037483951,1122.94476054725032554416,1134.67127534999212912226,1130.58115828398717894743,1124.62207384349767380627,-359.270984637885931078927,613.489070594591339613544,-1008.97706330745370451041,193.630754852044191238747,151.659599356476746834232
7.57750000000000056843419,0.00984035917138698090766979,0.532701262900729277660616,-0.776829636470754758548196,0.0236977036181591944885572,0.071892905159817596660865,-0.0126490728807383632364969,0.00341339919835943056414251,-0.00110009098861882717579341,0.103028480843101274966322,0.994671809905373516258464,0.0404146048558756132429437,-0.0347905982715213946132593,9.78758171049127057017358,-0.0176399803600486987376073,0.00281876486023493804874973,-0.00488247649760590630985124,7.17243683383363794803245,3.78440734198076444982917,1.17825388210893744478369,1122.40311250685613231326,1136.06443400466218918154,1128.08345749236150368233,1124.79616823038531947532,-65.1997627519008631225006,564.269785619229196527158,-1056.23457753902107469912,-48.679746835297137863563,151.658584546695607286892
7.58000000000000007105427,-0.195503546117879511978543,-0.0293295706908691389269705,-0.567404953332623196438078,0.0236786165808954909839379,0.0719824820900915735011338,-0.0159958783161613139756074,0.00343362379407007858519996,-0.00100179305818360003636769,0.103023801990039937104271,0.994672321538155879139254,0.0379142650476612247389951,-0.0331819722246084122807552,9.78505011177955630330416,-0.0175449360267723557249564,0.00259601587934130432697155,-0.00489021146621003346272039,7.17239003823240217627699,3.78440710130395174815021,1.17823480876873198930355,1122.61876173349082819186,1137.49262427808821485087,1125.2999853962921861239,1124.37867510932119330391,204.416433238297742036593,490.985777476281782583101,-974.313192533029791775334,-232.190959391214562401728,151.657345208411868497933
7.58250000000000046185278,-0.398988032659998770323995,-0.449373706103246395304751,-0.314790566089597989574145,0.0237258728719931255568554,0.071420561174293073491981,-0.0181197194802200679808468,0.00344769208350720855749127,-0.000892467022611580012778076,0.103013586764490489011692,0.994673434877733408931988,0.0349562320039873003496567,-0.0314105187851052292113962,9.78224506003896365768924,-0.0174475293788917754089773,0.00237267902753821209593799,-0.00490503353203451675224045,7.17234217544937280308659,3.78440529097300215610744,1.17821994787122452663652,1123.42519467304759928084,1138.51936289204354579851,1123.21189152969645874691,1123.6352134334292713902,406.245205834292846702738,375.556362117330365890666,-788.460348244205761147896,-342.053640723050193628296,151.656296540057695665382
7.58499999999999996447286,-0.645071767005733986977134,-0.819001738853470717671712,-0.00966049577989482738393789,0.0234951759223782814800519,0.0701791645241112149733453,-0.0190520767460540495219501,0.00345945094918671727096671,-0.000778999845219464242575269,0.102997664238931696534252,0.994675146544247712476761,0.0316861943405389173689102,-0.0294254986836429976992946,9.77920466783245245778744,-0.0173477467866502942095419,0.00215143439014470498268916,-0.00493084638467697691788239,7.17229385095659921489641,3.78440180294042916031572,1.17820922198098987365711,1124.64998776266224922438,1139.37040608867482660571,1121.35768365507124144642,1122.66840690570597871556,514.114345014388163690455,301.726608954783898752794,-710.348409933218704281899,-395.587102921362429697183,151.655233621657401954508
7.58750000000000035527137,-0.922385659182892614360583,-1.14509770057599369330603,0.307276569920581332784337,0.0226259248295557179042614,0.0682233259982793632802966,-0.0188309756696030464184766,0.00347094572450765050802834,-0.000668641759976527764487708,0.102977797177683016993655,0.994677259204654995450312,0.0282548953949663082807486,-0.0272212697598501821016903,9.7759752665075279054463,-0.0172461749770598631037455,0.00193524142438426739916413,-0.00497163339866297116637073,7.17224600766327480272366,3.78439710743003399073814,1.17820113440785401159872,1125.99576639811948552961,1140.02799593681743317575,1119.66014948003044082725,1121.65727791882250130584,512.345348724022187525406,198.786744313615287182984,-650.53242906421041880094,-386.495820416947992725909,151.654160376125531684011
7.58999999999999985789145,-1.21735337660044584673358,-1.41163800886381629595689,0.595065140416846105608784,0.0206674149513464550098618,0.0652164527692929985036585,-0.0171590890593061214108861,0.00348160877520656362321683,-0.000566693687680886468496788,0.102956252038574877505361,0.994679535344923038131526,0.0247723498077537553074823,-0.0248481968960740165486278,9.77261087720496490760524,-0.0171440647957263637979342,0.00172716851775945473036755,-0.00503102198354843377359202,7.17219958322588713173218,3.78439170043897465944838,1.17819414780910536322267,1127.21171450628230559232,1140.36433981024288186745,1118.10502150975025870139,1120.73592780362127996341,448.748738002641857747221,52.7868145198237783688455,-655.040355334736318582145,-359.04631080030270595671,151.653076262634584736588
7.59250000000000024868996,-1.55092002497885794731758,-1.64963835140162906611749,0.856218890687592493193847,0.0169442094381604055342017,0.0604722359938278525293143,-0.0136364879828304221692781,0.00348942115880929723883974,-0.000473869457897443675364196,0.102935250996405255885513,0.994681750669483055737885,0.021259703445097224289162,-0.0223842722326977883184895,9.76917201919918731789494,-0.0170432389826885855033112,0.00153026311228675912338992,-0.00511204974376434570504379,7.17215524214978827899358,3.78438553106346109444758,1.17818822830471758855708,1128.23951008813264706987,1140.2919300094165464543,1116.38494770335682915174,1119.86204636482102614536,282.629712982913247287797,-114.493740228729336649849,-600.064990040085945111059,-272.452318944175544856989,151.651764539395941255862
7.59499999999999975131004,-1.77632216242624529911609,-1.77182726721053196428102,0.979262227815064556502023,0.0125081965452866414323374,0.0559781436889195474493341,-0.0098934183706770473937242,0.00349416480873385778410656,-0.000390346742304575465998956,0.10291576621611013553359,0.994683805242336016583238,0.0177352232009356895747754,-0.0198792236486726829614025,9.76572328614487261688737,-0.016945948313792619233098,0.00134738581384084084476005,-0.00521680790681453877832841,7.17211300885625391288158,3.78437805224849377339069,1.17818343982788453772059,1128.62486307119684170175,1139.79187110909924740554,1115.1046965595498932089,1119.37366620890043122927,56.1399524832734755364072,-290.627586229090240976802,-462.890270865692286861304,-144.517634488514318036323,151.650663553130044647332
7.59750000000000014210855,-1.90724726305597314102158,-1.81151084272637463712385,0.998090629846946519876383,0.00685620921765447283169337,0.0514456614017710575637032,-0.006237122728365818505325,0.00349704978200677521135709,-0.000316345856628255574661407,0.102898809925170309220732,0.994685590968293342761797,0.0142250244797007992236804,-0.0173619711741746923783225,9.76233102928625839922461,-0.0168546312364505485037469,0.00118110720468755881970568,-0.00534622010382460217947642,7.17207305098385461405996,3.78436881014993353744558,1.1781793310285306741747,1128.52020985054900847899,1138.83879207827112622908,1114.07049634902841717121,1119.13945819237846990291,-130.356012291647488154922,-511.063027840384336286661,-371.66805920813760621968,-52.099816841692742741543,151.649555481421970171141
7.60000000000000053290705,-1.92719365592614177984387,-1.76677219371601035291519,0.923055253966842625956701,-0.000394133959653931911087943,0.0461210130413763699785967,-0.00283932958168102000245936,0.00350076632578750091689956,-0.000252212234631144296970184,0.102885598688203044881462,0.994686973981907973652028,0.0107647831594406863386926,-0.014838347049293078294685,9.75906086001697303800029,-0.0167716673842012164996618,0.00103348929146684703414549,-0.00549986115942131034012297,7.17203518146991125803424,3.7843580953975406444556,1.17817541694971983368134,1127.97308300973850236915,1137.23655596989692639909,1113.24635626350891470793,1119.11316712469192680146,-237.810612742037449152122,-649.27498039188799339172,-214.841384630613021045065,24.1291555347293673605691,151.648218603445798180474
7.60250000000000003552714,-1.82811287534040478597319,-1.65757403225815802549903,0.808577508009147294387731,-0.00621066739324412000339271,0.0417820091123903489260805,-0.0010090540743897997728179,0.00350610597151558610676259,-0.000197909750891489387035135,0.102878045924363531460344,0.994687755347096524971562,0.00738281571803213465532423,-0.0123539030022038719136557,9.75597528412270165176778,-0.0166991286691656505569714,0.000905899749740755638911793,-0.00567586254832952441518046,7.17199878622426467700279,3.7843464909749089386537,1.1781708995387016880585,1127.33115678683884652855,1135.5924171763117556111,1112.99628942587537494546,1119.26010397005211416399,-252.942368598365590059984,-701.645177264269022998633,4.34723927091918227461065,82.6516811330311043093388,151.647099097539040712945
7.60500000000000042632564,-1.63045782482212997521742,-1.48301034970102718624219,0.677445423106306288119072,-0.0111095028158133754536685,0.0378171999411062095819425,-1.02268316678880740854679e-05,0.00351198523820244129858836,-0.000152036743197347690723445,0.102876631521588074447138,0.994687891440425686617743,0.0040805520795353517060633,-0.00998922533057783335053159,9.75313139072514267979841,-0.0166385738309667990941776,0.000798768460885579205908724,-0.00587093234629971864879661,7.17196316365759134470181,3.78433475488426118715779,1.17816420766080831583622,1126.70837116674670141947,1133.72833008357565631741,1113.26809245986351015745,1119.52642553035707351228,-229.056215599535221372207,-846.334219815725987245969,241.556844121719819895588,132.288880142826286601121,151.645974398382065828628
7.60749999999999992894573,-1.32645123410160259425083,-1.21366318403251582935809,0.533434523404526905743239,-0.0153636864549603173457637,0.0338388971978930350181791,0.000669715323280679550310701,0.00351436529781289259954935,-0.000112293106552989051423463,0.102880438960614550847339,0.994687493497379504603373,0.00083862432282879456613145,-0.00787960064407601523672753,9.75057882604424719374947,-0.0165909220582603419980039,0.000711537472660355449841085,-0.00608050704867366554468022,7.17192761932041733530241,3.78432315110052952533692,1.17815329690352932345832,1126.18587570884119486436,1131.3607460772332160559,1114.20407364648394832329,1119.92154837076623152825,-135.669196050142261356086,-871.005572009308139058703,434.445396263308964535099,148.516434221122352710154,151.644619030381278435016
7.61000000000000031974423,-1.05739426336565922603938,-0.953018776004084577913034,0.436791296502770431953167,-0.0176268159462092816047729,0.0312245314462363567076242,0.00112964711407177232672938,0.00350878507381829256653316,-7.39440011445856830310866e-05,0.10288774939061599844603,0.994686757208495531124015,-0.00240884106802041753070398,-0.00616055751729818051876109,9.74835819190436758674423,-0.0165563868399528878183613,0.000642677666391920404849458,-0.00629921186325387450627433,7.17189176109949411141997,3.78431239532971197547795,1.17813738969154280233909,1126.03002518649600460776,1129.37330222352920827689,1115.44031944118000865274,1120.26900770146266950178,2.6152090773849172578025,-773.847261891449420545541,564.35771999255234732118,132.1473973087023239259,151.643484820856855321836
7.61249999999999982236432,-0.814524784435622262179777,-0.671859779540459278734943,0.365758424310845375870827,-0.0187522613504767232672776,0.0294355244495516921166001,0.00178186140920984486396561,0.00349485819033921139842302,-3.31474736622484273730095e-05,0.102896708395643271538589,0.994685876991980300054763,-0.00570172135189691772771958,-0.00488525110699357736909754,9.74649972572554901262265,-0.0165345385922338536377474,0.000589769886254690048690841,-0.0065213452767861950984396,7.17185490742157227828102,3.78430304204666345668784,1.1781170362432231701888,1126.19895175422811917088,1127.49150976777605137613,1117.02586224644664980588,1120.58228535730972907913,116.417110913746668643398,-716.049943736804152649711,666.814347971799747938348,113.161044005530726508368,151.642345552907499950379
7.61500000000000021316282,-0.614901532619317681138682,-0.38576787735578149662885,0.310398476417455382314614,-0.0191993208437526291509911,0.0282965920929292846786041,0.00270579906697613952956671,0.00347371186220293663715619,1.04472031947498393550508e-05,0.102907040866859492145302,0.994684877771024766879293,-0.00900976085526884046261742,-0.00407750802708827658760171,9.74502324543213482854753,-0.0165244204806682219721647,0.000549793741707134864422912,-0.00674143610564536394091917,7.1718164562647759296965,3.78429484262098458913215,1.17809271930889458701586,1126.61211074106472551648,1125.79305250484526368382,1118.77439118103893633815,1120.83481292149031105509,208.245665187773624893453,-611.982093927703658664541,704.720098501290067360969,84.5666621293748761445386,151.641201847076843023387
7.61749999999999971578291,-0.475681264648446955334293,-0.106364817690281304729538,0.265886567816097596494984,-0.0193377212428821193546113,0.0276971858887777172553157,0.00386890349997405643897586,0.00344801741709256995283006,5.51984160042608064822983e-05,0.102918306381050955744527,0.994683796140172438171589,-0.0122625304001261169195569,-0.00372652174674132502518731,9.74393889926451706173793,-0.0165246984859683428148447,0.000519304358020415777336121,-0.0069548516730008292860421,7.17177640950200512293122,3.78428752875164331470614,1.17806608762918330057801,1127.24018008016696512641,1124.43159929813759845274,1120.54946273895302510937,1121.00511866795659443596,295.18990291686071714139,-493.876618696014304532582,746.088343838634955318412,67.3216583791614340270826,151.640052334494015440214
7.62000000000000010658141,-0.365778137296559613389491,0.205633400178692082871379,0.220904471212799352608513,-0.0196840420407905607180776,0.0274591905499933196244111,0.00505666901762041008649984,0.00342041808010422332397837,9.7281905832776672713412e-05,0.102929736125153770132101,0.99468270268554459523358,-0.0153496883893462447018274,-0.00381642922662478109585571,9.74324857397681576287596,-0.0165338673609728738223001,0.000494661998406181052656549,-0.00715818404080931659089204,7.17173533297695886545853,3.78428076020230941267641,1.1780389999742091333701,1128.08806025564899755409,1123.32366941136524474132,1122.50483290023203153396,1121.17142121338611104875,297.83096920455028566721,-302.679273892861601780169,664.252996848232101001486,74.3148421298767374310046,151.638665419130006739579
7.62250000000000049737992,-0.299636410353121829253098,0.432245595047384245646072,0.193827358548992495501651,-0.0203322999870685638956758,0.027801118582136057771903,0.00552911193159649500677988,0.00339170599016458710825428,0.000134761919952986462291344,0.102939031079464629603315,0.99468183220852379733401,-0.0182041147024855562430723,-0.00435257113254803457147446,9.74294779096472929325046,-0.016550364991941016873378,0.000472179074001918830383318,-0.0073495292007277864335113,7.17169358978370752311093,3.7842746546004182306433,1.17801267122714414803397,1128.72933492618994932855,1122.91820292867305397522,1123.87072772319470459479,1121.37669287860603617446,204.447815662028716587884,-43.1005621810991286224635,474.037176584907797405322,129.205261993004597798063,151.637502692642129886735
7.625,-0.226400555587346480335142,0.601451986746907363290404,0.184886216952196508200856,-0.0214447213722773061261861,0.028915250111442396957484,0.00545731229269231111339566,0.00336260358867669639781894,0.000168120799070886292082838,0.102946174600726636505499,0.994681182964645027588801,-0.0208090028128324958101025,-0.00532543601913497421929122,9.74302748493592929435181,-0.0165726616882975429090319,0.00044835988636661113816706,-0.00752841156050780384301202,7.17165185014001238528181,3.78426946463663194109017,1.17798803545960040217722,1129.11029933395911939442,1123.10816660045975368121,1124.87501878315651993034,1121.81744752335112025321,65.483284071707686280206,221.591691455983152536646,350.343327282014968204749,287.311621012265050012502,151.636331726956484544644
7.6275000000000003907985,-0.0951647700721495598541466,0.706086609127264619445441,0.197956761739617015383175,-0.0229573971550557989762531,0.0310716526883683084869769,0.00514094167719124361948246,0.00333105513387373531469793,0.000200792066028237766242559,0.102951547207329435762446,0.994680720772366355753036,-0.0232138137489420956494079,-0.00676193287825503641652602,9.74347605175632658358609,-0.0165992686206454451158798,0.000420019458016171367675112,-0.00769556449207812152957242,7.17161011527006930776906,3.78426514881363207365439,1.17796473936574930263532,1129.05675134654848079663,1124.02616138595294614788,1125.62244435960474220337,1122.81325098366733072908,-126.517904153072748840714,440.725024683715957962704,197.751369148140497600252,460.917525419027526822902,151.634915674603945490162
7.62999999999999989341859,0.0663314284881326571285953,0.688364703309356507077155,0.222001317381203239209597,-0.0240251142032219533462012,0.0334598469537900899961613,0.00519676833775001723730869,0.00329617150861266855824128,0.000237065392129621235186784,0.102955240477713566571438,0.994680437538339567993262,-0.0254858215183130475123274,-0.00865339280576310487802516,9.74428090403552538134591,-0.0166287513246531105937098,0.000384345840619842798405875,-0.00785256042716705668360611,7.17156789945418182696812,3.78426099072244781496011,1.17794266324946272916918,1128.47770981319376915053,1125.3117917238782865752,1125.86377562889720138628,1124.12203515044620871777,-350.167212280856062989187,594.852971938838891219348,20.7788850350884679585306,620.697127009511405049125,151.633725430032257008861
7.63250000000000028421709,0.285174856835767709384299,0.542251847247151030906309,0.241989330737494678924548,-0.0245878977157069841807946,0.0362124561584623305687813,0.00582841764302034076594694,0.00325853452040921484980651,0.000280199910047284619311198,0.102959534479827322095424,0.994680094179376639296208,-0.0276729160487670169943364,-0.0109540040288085352426783,9.74543002414170445035779,-0.0166597736989613463831628,0.000339065215326560015669799,-0.00800147845324537636269024,7.17152491200525599168714,3.78425580473634237677061,1.1779218328285727679372,1127.30591528514423771412,1127.00042624564707693935,1125.72633878478018232272,1125.91673661871482181596,-633.296089811405977343384,788.690209071608933300013,-141.381093775047077087947,864.203345401865817621001,151.632523114656521556753
7.63499999999999978683718,0.596616581847835503182864,0.216955532645716930861823,0.236865259396391580892782,-0.0242374317818166186422335,0.0390641129262213754325117,0.00686940080950783783092506,0.00321938886952919528505745,0.000331012203419131902440431,0.102966072639783801090374,0.994679516108071815061464,-0.0297776146532371180364329,-0.0136001145380616125790674,9.74691321740642990789638,-0.0166912058890435338609493,0.000282342482908335974233632,-0.00814459991672697447562257,7.17148173128872379322729,3.78425001404895722245669,1.17790248496316762860658,1125.31122936413680690748,1129.25524276923624711344,1125.15687016002198106435,1128.44305187745544571953,-797.971067867609917811933,824.477312029939071180706,-268.557372260971817468089,941.080423971627169521526,151.631064487887158520607
7.63750000000000017763568,0.871734227117414106622562,-0.160927363117138344517087,0.193112798268129520762315,-0.0228373299502610226097143,0.0400439105397421210574826,0.00779433034863866169850155,0.00318341962632731102778028,0.00039034118663833320154663,0.102975778066957873724263,0.994678592007131934238373,-0.0317989426787345236258275,-0.016452424705719653069691,9.7487227365714979043787,-0.0167221665961214543960622,0.000212651453278839736070818,-0.00828420405357344590002722,7.17143882606586746675248,3.78424365719733746260545,1.17788504718737119247862,1123.31605994580627339019,1131.12281280579668418795,1124.38355192347535194131,1130.62213873857285761915,-816.017242174993725711829,697.266148418639318151691,-357.324441135495874277694,817.896560421704066357051,151.629834267278511106269
7.64000000000000056843419,1.12416549661470499543725,-0.608745575122548676638701,0.0962136136025411037309141,-0.0203778614027777596473534,0.0389374421819756733054163,0.00903107288321323802005036,0.00315314021292307502739027,0.000457416944479971648157557,0.102989109370228273943049,0.994677266709461993521302,-0.0337116729282880833729052,-0.0194091918310722900964382,9.75085376204728326854365,-0.0167520477828021832622518,0.000128797835890516167373435,-0.00842221907456257475044215,7.17139640588361704232057,3.78423621728212911108358,1.17786883495546823574784,1121.23114315326120049576,1132.74157351132998883259,1123.37024795434422230755,1132.53253467956460553978,-807.676432972329052972782,576.302157330531827028608,-431.441512373121554446698,668.106609133033657599299,151.628586885868202216443
7.64250000000000007105427,1.3268237413763293019997,-1.07890793622282088470854,-0.0460133090828986138220991,-0.0172638953187321912696728,0.0364778796371307972856712,0.0103821929968300943197823,0.00312788773530883051909868,0.000530214162423394493213469,0.103005722331240570643907,0.994675579503666029701492,-0.0354747414384962295175185,-0.0224262930344039657093447,9.75330412025254922525619,-0.016780468470957283361189,2.98216015992609924899204e-05,-0.0085599642275016527004361,7.17135457878959847732858,3.78422794811539109360865,1.17785227023737593121666,1119.27767778094471395889,1134.0043235924492819322,1122.22634436160979021224,1133.96267178423795485287,-706.325768419871110381791,393.674252219952222731081,-470.524402345482485543471,406.278894774740820139414,151.627323761692025527736
7.64500000000000046185278,1.43411429130604983761543,-1.53761151713943244878635,-0.228148710708536844871119,-0.0132534269754227794491097,0.0330557231972439385936369,0.010904546571099491686363,0.00310883927397597771558058,0.000602624519999650715487705,0.103026163354320299259115,0.99467347395344696270314,-0.0369659274390069098048528,-0.0254269159499374078348133,9.75607358747381603336635,-0.0168072747835413469075228,-8.51415223522566401697514e-05,-0.00869791342929578277509695,7.17131299337417349448742,3.78421911327819682213658,1.17783499924419321480684,1117.69951431116191997717,1134.70994477242970788211,1121.01762594261685990205,1134.56392915343826643948,-570.075138107461839354073,164.328887502600849757073,-522.116574212179557434865,35.8889242734229299003346,151.626039721073226473891
7.64749999999999996447286,1.41660153514831232968163,-2.03249000880479613329044,-0.453640635151074667064108,-0.00738908860671706919920343,0.0279781176081484311835013,0.00965986084012783637053889,0.00309862258446832582875485,0.000666185365101493762000906,0.103048409742937219224501,0.994671157208063427823674,-0.0380155393590657780800157,-0.0283070786186787118343666,9.75916299715512103318815,-0.0168324707738735125650553,-0.000217046228282210390807955,-0.00883575200678114042185385,7.17127092300406587810357,3.78421062548857989327189,1.17781765031140306376756,1116.42730209040746558458,1134.82596802996226870164,1119.61576149054894813162,1134.14211640560506566544,-352.297449701798768728622,-79.87425896935917535302,-487.631162336093836984219,-348.082756577067073067155,151.624472069157405940132
7.65000000000000035527137,1.26920725509593101953953,-2.3693103584981027864842,-0.614343865288151769199487,-0.00228661949828920432054025,0.0227389333398595842872236,0.00732947039387364229073851,0.00310124584049269094027101,0.000714655463741271316374659,0.103068473579325525779637,0.994669035271988355439987,-0.0384949771013893618509805,-0.0309292310996283591195688,9.76257299839479131264852,-0.0168561382318305232053124,-0.000366887222540663616998646,-0.00897252878765257902426988,7.17122866135223624439732,3.78420349436836467305056,1.17780042948929564161631,1115.93802706265296365018,1134.31057347758292053186,1118.57947013093644272885,1132.82351537055296830658,-83.8448046798493749065528,-319.622088771263861417538,-365.015900122678942807397,-701.739246707908478128957,151.62314135832116335223
7.65249999999999985789145,0.999000479575338551363473,-2.59277574548956479816297,-0.718406139695063394867702,0.00199173306011404295523537,0.0163236249946450348580207,0.00470654138428831803064867,0.0031171950364031627243866,0.000745869008402070296330499,0.103082023909751893664399,0.994667558617351121874606,-0.0383625066640692832797832,-0.0332152420088852873281127,9.76630273844151020057325,-0.0168783853926935227540707,-0.000535380408351441325169595,-0.00910670185321565441027847,7.17118698687637401434358,3.78419802577511754648754,1.17778243272953564435568,1116.00807806700822766288,1133.2278575861059835006,1117.79068198993559235532,1130.63342017206559830811,134.388829677575955656721,-576.13278584423233041889,-265.597722281796677634702,-1100.28606616890624536609,151.621782909504474901041
7.65500000000000024868996,0.58673088758204838821797,-2.69489962440807317989311,-0.766645636994628620897174,0.00566756305838323447277016,0.00740149706946615845715165,0.00199052144994404196440274,0.00314444144645610644886458,0.000761516680670822933285624,0.103086292748731961355091,0.994667021362353631630526,-0.0376571666012151182179046,-0.0351289950689423133289857,9.77034861660368747493521,-0.0168992640110937862585327,-0.000722658363947567116553072,-0.00923613896331897804570232,7.17114627233222279301117,3.78419291218971665102799,1.17776326416732346480387,1116.6099712110408290755,1131.42990954836182027066,1117.25148151952748776239,1127.3220850397085541772,282.129967937732203608903,-712.599914079980180758866,-116.578606954820074292911,-1263.88271071366898468114,151.620117722330917331419
7.65749999999999975131004,0.228650364686546508918852,-2.62724623693246295275117,-0.745363530590292255872953,0.00698576373123815496518629,-0.000536668733339325048324608,0.000149834877371063200776277,0.00317479708849102574066969,0.000765376075711833082394764,0.103084789659374134740411,0.994667082092516974256569,-0.0364722878330096533794347,-0.0367526175997612142287707,9.77470329729121800710345,-0.0169186634462530557931892,-0.000927853926641335029212865,-0.00935818712831042696931316,7.17110573141305618349861,3.78418708692668737114673,1.17774180746339363068387,1117.41872790669685855391,1129.66485801570615876699,1117.20778895516150441836,1124.31400661849738753517,357.368029945890498311201,-723.342983736772112024482,71.1395765059493641047084,-1169.58530748113616937189,151.618698771157141891308
7.66000000000000014210855,-0.0622125381516157871519823,-2.4063682278389744162439,-0.667370273903833632900273,0.00592753920640355039944902,-0.00796248395111362472498229,-0.0014711996338912878418137,0.00320101711342463818299464,0.000760252324253993770619697,0.103080390135057528566698,0.994667462415854464197196,-0.034881492987272402772625,-0.0381567740777205149926843,9.77935517785809516055906,-0.0169362975689668904255569,-0.00114941612045156636538745,-0.00946977434311247097398212,7.17106471559064129195349,3.78418003445889050695428,1.17771677846977373960158,1118.39681136077024348197,1127.81319462967803701758,1117.60717940205722698011,1121.47415850230299838586,440.588023122995082303532,-793.558167567892837723775,263.722899128110555011517,-1118.96220962467646131699,151.617245590583650027838
7.66250000000000053290705,-0.248001077127905200647717,-2.00195717309567866593056,-0.516351544424851982562075,0.00261816276834506969292682,-0.0152774729137392442646082,-0.00344932626457632564645484,0.00322234481736580159402794,0.000747299446081182180794122,0.103072921814470322421364,0.994668180430798187785513,-0.0329142406986350777309269,-0.0392959291859249840173085,9.78428821090895439738233,-0.0169517548170595132306371,-0.00138536242436246097818608,-0.00956774211524769047088057,7.17102348270831235765854,3.78417112873584571275387,1.17768858228434414314734,1119.62166802231217843655,1125.69706717786607441667,1118.52640345080226325081,1118.7191955703731309768,441.849990406863412317762,-732.620322110294296180655,387.396927032258702183753,-851.980811025141520076431,151.615461623016301473399
7.66500000000000003552714,-0.229664882553437171841537,-1.5922633681187869925111,-0.349762740616245626501524,-0.000870823573151054239512014,-0.0196392121380644414652128,-0.00515519378081002056096738,0.00324211174800810792220873,0.000726381683114016535145196,0.103061424911970678230944,0.994669324551595068761856,-0.030567977504659522153263,-0.0400556520498331208868237,9.78948194317837128153315,-0.0169645637490501328958903,-0.00163330188095256239808051,-0.00964930901015176485657765,7.17098288386849791464783,3.78416047241367392572897,1.17765843387449331558514,1120.60606131280451336352,1124.15009301912664341216,1119.54416403721847927955,1117.21425444717738173495,372.841519771153571127797,-549.79998111099382640532,423.221571737767533250008,-411.522383444398315077706,151.613942101797988470935
7.66750000000000042632564,-0.0315014025405274955549118,-1.16588099096254294018138,-0.156684202710396264235371,-0.00396009389008530887643644,-0.0219796451157501238071745,-0.00650793442586003380995185,0.00326287564607858791496109,0.000699681399643671412050261,0.103047969546981962873922,0.994670670958347935552979,-0.0278887447580628902721323,-0.0403412820665680280085574,9.79491175447103934459392,-0.0169741393159557607539512,-0.00189040771415607345221077,-0.00971256229803712546611028,7.17094362239821236926218,3.78414808736921903786765,1.17762781723423981539156,1121.4858756211679065018,1122.94806727231116383336,1120.64251130949105572654,1116.66158365315118317085,327.61559267178898835482,-411.620544132083182375936,425.826519860092957969755,-71.1657168008529623648428,151.612390331339071281036
7.66999999999999992894573,0.280119708671682510203738,-0.764738138144040902055565,0.0377727502959527283721286,-0.00548699248335138538984479,-0.0228525098491666363298425,-0.00687684483914308575941421,0.00328442080603771110330902,0.000672479509234709003570596,0.103038622659968395756103,0.994671588599291389698465,-0.0249909208393585095808742,-0.0401166418223468726478309,9.80054949239560002638427,-0.0169796972273815183207546,-0.00215354582642041667353561,-0.00975665803185572430566985,7.17090480781421213407612,3.78413390232198842966227,1.17759776641847913047911,1122.24413927616342334659,1122.09199029846627126972,1121.67329663651889859466,1116.85842586317312452593,269.052585543892121222598,-254.443357600626740122607,372.831223409783660827088,219.942948470911829872421,151.610814118285077256587
7.67250000000000031974423,0.651344822121208810727921,-0.423381119860839705282274,0.202025417964799031134149,-0.00414134424575831987247465,-0.0227117424865455538873782,-0.00562559604343456504116361,0.00330571816814493333117064,0.000648283149952193172779746,0.10303713864439964509323,0.994671690061549873540514,-0.0219581032905508226338309,-0.0393767872688945558268259,9.80636435266654160614053,-0.0169802705539745454887957,-0.00241970264675707945334349,-0.00978162117537983120951761,7.17086541586906012213376,3.78411855077389569501634,1.17756917259977322842701,1122.83113854888733840198,1121.67585048430805727548,1122.50666742653993424028,1117.7612983955057188723,219.332767038672614035022,-91.2353223300234645876117,310.784910329591468780563,485.26931873644696224801,151.609212304402802828918
7.67499999999999982236432,1.05327767792222104503708,-0.0916302467065145814784088,0.33159212597031334501807,0.000127130625958899769190058,-0.0222198305209790163139427,-0.00326116880089049590227268,0.00332897397124995008538262,0.000629602571451169960511929,0.103040616715657923352367,0.994671266086183281096567,-0.0188498199716219186350408,-0.0380680341951503686814817,9.81232368450227454559354,-0.0169747174913544782159924,-0.00268631772986709571257591,-0.00978816213055997731695701,7.17082533561328894222697,3.7841035257332946706299,1.17754293351241656750972,1123.34080311135676311096,1121.63581368681616368121,1123.22722118816682268516,1119.28477245685530760966,162.731591889636376890849,44.0270063807484177687002,225.153477118424490299731,571.579174814645170954464,151.607266931870839243857
7.67750000000000021316282,1.28222068550348988758003,0.131302496739616469945133,0.375558406051396065361558,0.00485051304707318029635355,-0.0218705422571314027357925,-0.00156819692202840436402733,0.00335491573107403765960366,0.000617173389645089571359238,0.103045591231437402846005,0.99467067235955053394747,-0.0156964533355297315708743,-0.03618180335935338581832,9.81839352630897899132378,-0.0169618417526149374563449,-0.0029509170082994522210651,-0.00977739176442193880234299,7.1707845797772886697885,3.7840899939138381569137,1.17751896724636595514824,1123.64479650833550294919,1121.89598551621179467475,1123.63243481213203267544,1120.61919426957888390461,117.523450449291658514994,137.303778309299758575435,143.548961416130055113172,483.010243667068891681993,151.605632065430995680799
7.67999999999999971578291,1.34746740262038544599932,0.323303032935489953469954,0.362182915914261660539353,0.0100998996496163596925388,-0.0216728640717988689512463,-0.000499187065215099816557764,0.00338437004196794066768206,0.000606909166324700959614658,0.103050421597154925890116,0.994670078392630108155004,-0.0124366188915240524770489,-0.0337303255724130807147176,9.82453898874721254230735,-0.0169405450692265702183903,-0.00321081515409670729260805,-0.00975036667207493726317047,7.170743590031897873871,3.78407740135385139979007,1.17749661046737896796799,1123.92842036360320889798,1122.32233257836264783691,1123.944965995247457613,1121.69982367519060062477,154.269268490137278604379,198.59011363114828441212,147.524847678190297983747,365.282914007737929296127,151.603990101183939032126
7.68250000000000010658141,1.21713700326277196595015,0.545965062313054527720624,0.301352481371445768409956,0.0159650986640773179248143,-0.0213893188893479295475952,0.000192992781761373312886254,0.00341875008134198254267089,0.0005957128009573515277017,0.103054466126804328274247,0.994669548392535629588451,-0.00902935858360248005949344,-0.0307253923716152496647958,9.83072453303110904698769,-0.016909755855829818743663,-0.00346290010726612359354126,-0.00970799658896447786871065,7.17070250156764998905601,3.78406377552745754044849,1.17747447915080671876353,1124.41614285078617285762,1122.88893608436751492263,1124.37005905052296839131,1122.44560883961753461335,228.124109439623481421222,207.965621414645511322306,183.963540110078952238837,164.340321230449035283527,151.602019456273978903482
7.68500000000000049737992,0.948030202403971178348741,0.737216759714385716506513,0.228778332663099770449833,0.0197782654629081247610323,-0.0207778192682309091610104,0.000434344402074474708174562,0.0034561325795303492712518,0.000584141235033683640064106,0.103058805854620960662515,0.994668976875066612741705,-0.00551409496225225073673393,-0.0272494762719021794972196,9.83691418317914134661351,-0.0168684194599878628517686,-0.00370345840560732742288708,-0.0096510398476214384611005,7.17066157687870564529931,3.78404694234200933422585,1.1774519455921474975213,1125.06904091080150465132,1123.3621606854360379657,1124.86478369579799618805,1122.52152528134297426732,331.469768626000359290629,195.889851532596907190964,240.794440252926193579697,-77.8011181401796676482263,151.600382405882868397384
7.6875,0.553275103262332312858973,0.934569408452331384928868,0.146581902636512884097186,0.0223067055491585897186724,-0.01938509351597977534154,0.000498055175547706214730925,0.0034965019084213051422938,0.000575546932844218125761848,0.103062040626007114796359,0.994668506887070869026957,-0.00198280015241190585295605,-0.0233542115325318828944479,9.84307154787400051532131,-0.0168155597613102378296013,-0.00392863053512934688044078,-0.00958001466336177304183863,7.17062172614359383260307,3.78402622198171867395899,1.1774303046939886829847,1126.07349169391613941116,1123.86838534203047856863,1125.57403125178757363756,1122.05660324891664458846,521.729640567957403618493,254.214603733003940533308,362.856052460764203715371,-294.457948321366416166711,151.598756691080666314519
7.6900000000000003907985,0.0025197581529666918109811,1.16272639033378655248896,0.043777178742481312467838,0.0236697121402300071635327,-0.016566736202006694667066,0.000498861011810314411082934,0.00353920186722034030984974,0.000571431480633968779704601,0.103064145452775382527655,0.994668142867176863219925,0.00150591238227361021162487,-0.0191187119555229628753423,9.84915952947977224596343,-0.0167504259361223317714717,-0.00413464556059155077111233,-0.0094950484711165596823923,7.17058253590153515943939,3.78400271157994261272961,1.17740918381295456285329,1127.67768911364123596286,1124.63323370410103052563,1126.6790639581017785531,1121.04923553973617345036,634.660149238484223133128,326.411516262812824606954,440.452111325849102740904,-404.772714212012488133041,151.596825325360356373494
