t,ang acc x,ang acc y,ang acc z,ang vel x,ang vel y,ang vel z,quat x,quat y,quat z,quat w,acc x,acc y,acc z,vel x,vel y,vel z,pos x,pos y,pos z,mot 1,mot 2,mot 3,mot 4,dmot 1,dmot 2,dmot 3,dmot 4,vbat
127.522500000000007958079,-0.645395660906907364662288,-0.135167368154279154968123,0.556771555100406878580088,0.00235200678842937237200683,0.0205578974260482404134986,-0.00417749188566488970780766,-0.00836758148599350826124521,-0.00669052167750174096166882,-0.693093215269387274979351,0.72076795090824330447532,-0.00326030403734361984291468,0.0250033802368623755962851,9.81671339347588300938696,-0.0100064663053049569818587,0.00313629081492605276543228,0.0016642764754335299080823,-0.607329906680825537534929,0.274365067752049385241264,3.53158950420995942920399,1122.72808398354163728072,1090.13523747923704831919,1081.99739044711941460264,1113.66498632950356295623,-159.984709296040847448239,88.2860161556549343231381,-159.755202866027076424871,65.4846377261136183278722,150.078018527339622778527
127.525000000000005684342,-0.911809608310596764191303,-0.23349964028598857446184,0.394782684553980023345332,-0.000229528751974460295485342,0.0191445893062234563652968,0.00036902619301981546325736,-0.00835950901050276813653017,-0.00665693641628963949513631,-0.69309789644339758751812,0.720763854854105323610725,-0.00101681421282356909685518,0.0249255148572997270450813,9.81592857972765031604467,-0.0100204232844015965475659,0.00318759953316803505696253,0.00173422284806883271468525,-0.607326777568536702034407,0.274389632216471890391318,3.53159852800502349623457,1122.25622618809302366572,1090.49953641726006026147,1081.88034522799330261478,1113.88319858615841440042,-163.341939408031379343811,190.165483924274809623967,74.8617060535478771043927,92.4755505807683846342115,150.079116532996152955093
127.527500000000003410605,-1.09341433693930967230301,-0.260206101700930891862384,0.138530534346687023150579,-0.00326216788967297098914,0.0176855791266250610138666,0.00370544687255874860554172,-0.00833560494083607217419285,-0.00660684569946717176192053,-0.693099836315036910150411,0.720762723047217557237332,0.000563590217576931395981887,0.0246349022151084173781754,9.81503986668578676244579,-0.0100319533556749353880866,0.00324259492926094695583461,0.00179379613777959530385164,-0.607324184396993427270672,0.27441881322825123490361,3.53161144304020746531592,1121.91137428650222318538,1091.0860648988575576368,1082.37169897738681356714,1114.12736408240698438021,-103.570280338047780333,292.442073328531876086345,296.688224929172690735868,112.696270374056169316646,150.08002738816136911737
127.530000000000001136868,-1.20461784904789537264946,-0.238678783558767454442417,-0.204552622775592607418105,-0.0069994094803873078969314,0.0163487471208080270557161,0.0055285727636109624830163,-0.00830490081602091971546553,-0.00654643329432290626418434,-0.693103662090914340865311,0.72075994000940624140128,0.00168466654877105770360401,0.0240833036744985753974113,9.8140695502445645104217,-0.0100407719704068334326541,0.00329951838183262799800155,0.00183962556477558969100783,-0.607320611274216215491606,0.274449914378473824871918,3.53162538419933280664509,1121.73837478640325571178,1091.96174678390138979012,1083.36378635263781688991,1114.44667993802818273252,-19.2062600857927527897573,428.918879614619925177976,506.132251628747440008738,165.681784843414504848624,150.080932868803955670955
127.532499999999998863132,-1.24099333960334079485222,-0.184449370225939185408137,-0.62299432110397745532282,-0.0115737200112714950367421,0.0156529029416123954820961,0.00450174318878470650778789,-0.00827706710554441602023523,-0.00648429973080833551429825,-0.693112591119617094115313,0.720752218174626979596553,0.00259655450895329709126713,0.0232511570385925750437117,9.8130444275642698670481,-0.0100472166462994109970008,0.00335607392546152403720039,0.00186980476708432648107194,-0.60731525882703696339604,0.274479819961579107889804,3.53163782543363780064283,1121.8153429860733467649,1093.23065929692870668077,1084.90236023552824917715,1114.95577300662330344494,77.964657700957076258419,471.840674896222310508165,583.882330590162268890708,214.337283878798501746132,150.082011569871411893473
127.534999999999996589395,-1.19218796348763311776509,-0.141315953597915100470317,-0.89433549805719236847068,-0.014848794152220928799224,0.0160848603757479079179316,0.000529421532636033340818438,-0.00825578068337910926655088,-0.00642753681516053994998705,-0.693130796402623650109831,0.720735435678975799866919,0.00344949084387954907349183,0.0221887360266948413523025,9.81199700717107781144932,-0.0100523571597749567657631,0.00340955816728873454743431,0.00188369973094284744521976,-0.607307385955516143560828,0.274506818723056822406647,3.53164791709778125294861,1122.12819807490768653224,1094.32095015838035578781,1086.28319800558597307827,1115.51836635742120051873,168.990164022480627181722,399.640577368246113110217,533.336466718007272902469,258.588206452259782963665,150.082902448238684200987
127.537500000000008526513,-1.07385460926818754323619,-0.124653175364918877843223,-1.00378759522766336509392,-0.0175052008910744488767719,0.0168848625162993336290551,-0.00534206527574976157424214,-0.00824427220455488905803687,-0.00637971964704581260413585,-0.693159607839124114470053,0.720708246087814252689441,0.00434029549117545543346353,0.0209092370915573352863071,9.81096236458630599486241,-0.0100576534549471127005793,0.00345724360940662198832252,0.00188175184400565711356768,-0.607296647453636095903562,0.274530016990851888358804,3.5316561125730570047665,1122.66029380618738287012,1095.2288621837737991882,1087.56904256912343953445,1116.24871403888710119645,239.152016981317331101309,301.708304437723995761189,479.276391833656418839382,318.792682350861070972314,150.083783076557381264138
127.540000000000006252776,-0.909559651774217936548439,-0.13613267257043043523268,-0.953352075051473235589583,-0.0197806004697421398963453,0.017414562478015729179992,-0.0109110172731705021287318,-0.00824346825414611766857931,-0.00634150027243509176178016,-0.693197218217111221783,0.720672377137805630908929,0.0052948371665987592482594,0.0194225987136878858185796,9.80997647029333386115013,-0.0100644382775517196582094,0.00349675933474350711036016,0.00186512869713386536009436,-0.60728337093274475932958,0.274549067905131283229281,3.53166359619820147131009,1123.32395815981658415694,1095.82949168057189126557,1088.67957996475888649002,1117.11232976917858650268,285.20987927789536797718,138.652939112388281728272,392.580715214574013316451,369.184237795497381284804,150.0846538080263314896
127.542500000000003979039,-0.702888548335340201944632,-0.174309936711943752607468,-0.730362137743824191282727,-0.0216814118795084637136839,0.0172923027926914912866252,-0.0146400850736805136775853,-0.00824799884668549199151499,-0.00631209087536222998582325,-0.693237060922295755815981,0.720634222006839686436308,0.00623386082316890188792513,0.0178108992704405777462995,9.80907509190335957782736,-0.0100733115120145034354637,0.00352650952572533668213928,0.00183544332499523208529491,-0.607268896407142211302244,0.274566097673629549991148,3.53167044586145273399325,1124.08634320257556282741,1095.92212687933511006122,1089.53194614519452443346,1118.0946352278629092325,346.995811560143010865431,-90.5897470909536366434622,317.147786225238746737887,441.181775712349178775185,150.085510982851815242611
127.545000000000001705303,-0.421672798319702168967638,-0.231752061486218186026065,-0.335866930409727815209919,-0.0236174285966946825854329,0.0163983924406690406705422,-0.0164749362555290726484181,-0.00825311432268479791551918,-0.00628854720617084972378308,-0.693270932575513088025332,0.720601762285521973971925,0.00705611435199268721696342,0.0161205962475124142674332,9.80829008990819772861869,-0.010083709349155403969811,0.00354580349480879348025852,0.00179475124388230955832513,-0.607255219414597702254355,0.274584504325166844918016,3.53167627908734171882088,1125.05893721761572123796,1095.37654294511753505503,1090.26531889588363810617,1119.31823864773832610808,360.771242888141159710358,-301.136654800439941936929,227.905668902419989763075,438.986603759930403612088,150.086521906023449446366
127.547499999999999431566,-0.172999658291336677606864,-0.275387768001774835280315,0.0318154124254354728207339,-0.024809125256953445948227,0.0153299288786216975771781,-0.0160617321068355113633519,-0.00825538982921593736397092,-0.00626820404151287417782168,-0.693294198752342993863351,0.720579527072271464049891,0.00768173948490261104815602,0.014386060382297671811358,9.80764702141934563428549,-0.0100938954565119622108771,0.00355474107101535954228444,0.00174546868649161704412087,-0.60724297614879818585365,0.274606377207489538161411,3.53168105805331311586315,1125.89019941701462812489,1094.4164436053342797095,1090.67147448970558798464,1120.28956824666056490969,330.399008899239902348199,-457.739399185136562664411,131.049465755478252049215,356.592480511614269289566,150.087348189884409066508
127.549999999999997157829,0.0686388086982297057625502,-0.304250244910330480685445,0.365376523436034217340307,-0.0251019500883079491049266,0.014361344118166733188624,-0.0143529005423940515806525,-0.00824720078886340829393831,-0.0062489884441210121271415,-0.693302411321590761339451,0.720571902019356169688535,0.00798096458961417010158357,0.0127099370162576524867504,9.80716559099531970389307,-0.0101012998911203799590197,0.00355417250438983672866655,0.00169015426200851181029461,-0.607232724389947353671459,0.274633184231358684623814,3.53168617156512354426923,1126.71093226211041837814,1093.08784594919393384771,1090.92056622466043336317,1121.10120105029477599601,346.979231290390714548266,-613.149991684028464078438,86.8545014164878352858068,297.118240910520967190678,150.088156084625978792246
127.552500000000009094947,0.318400760431018836627004,-0.31744859990152651807449,0.661199580317768043080662,-0.0241349242796162592739062,0.0136674416080243416038442,-0.0113069525936531165705157,-0.00822935107651422657892848,-0.00622724538786796708716986,-0.693298834373384020857145,0.720575760458044167755531,0.00791534232036988916192399,0.0110561906305670087924398,9.80685523921900070831725,-0.0101031985433516369871088,0.00354520936690035743873994,0.00163169909232181329847289,-0.607224601859294721428739,0.2746644252634563021509,3.53169108335354087202518,1127.62509557346993460669,1091.35069364690821203112,1091.10574699678886645415,1121.77515945121604090673,310.695095449536665910273,-612.663726846993199615099,59.5238825806277560559465,184.634813705322500254624,150.089102489408332985477
127.55500000000000682121,0.470679657566135778434813,-0.308145251978469147946527,0.790874642855703413601987,-0.0224942787651955904137946,0.0132109748383318140185771,-0.00816803798780074523377959,-0.00820669519369240062223181,-0.00620649298045865532164056,-0.693287509512338195882819,0.720587120021326299479369,0.00760213386403582602746098,0.00942833821659857379549052,9.80671381472598113759886,-0.0100973376515360226818308,0.00352917227477865655047018,0.00157334107738110349702931,-0.607217795247385283552433,0.274698470012530227002401,3.53169475539990251888867,1128.26440773936110417708,1090.02452731495304760756,1091.21818563756414732779,1122.02437511882317267009,211.868615290233606174297,-450.420229376823442635214,49.699086538930437484396,28.1958086155356753010892,150.089870662055432148918
127.557500000000004547474,0.547196573447621181784939,-0.271024963244172689691425,0.786510995498256537672432,-0.0204560762006121867051522,0.0121437707428218265304221,-0.00503740799617909736779486,-0.0081857562415651521914306,-0.00618938744756778423672383,-0.693271016613956958529741,0.720603397768578846083187,0.00716904868226844738110515,0.00779252523906059230140997,9.80673026155843885476315,-0.0100824931499201332629756,0.0035074096659854269233958,0.00151845807397103685180972,-0.607211670126685310044934,0.274733212480466282290337,3.53169640885188051981913,1128.68443864992013914161,1089.09859250002614317054,1091.35424242948329265346,1121.9161384942935910658,114.14623672036590562584,-268.933917488874556056544,78.7900050126871036582088,-124.555125438859761288768,150.090616089473144256772
127.560000000000002273737,0.546886737315261606262595,-0.187746341174251374361859,0.639503141342747771780353,-0.0178330057880785181056993,0.0101852019217036331849568,-0.00195955963998934324515888,-0.00817222845721022120302202,-0.00617449136325828353000222,-0.693254182064370283455901,0.720619896475377386124705,0.00667595800586304188861675,0.00606948862169157804524744,9.80688654399167702990781,-0.0100587959396811511825209,0.00348105326840759520673485,0.00147026617077424806220853,-0.607205673533941392427948,0.274766356162309377531017,3.53169546291402136617421,1128.83513892296241465374,1088.67985772750989781343,1091.61213566262722451938,1121.40159949162944030832,-13.3869629532122296211583,-23.5741717159031161088478,115.582994223373660247489,-239.158982330163013330093,150.091482662855923990719
127.5625,0.478371579681049707843954,-0.0916917407682286550452133,0.423124461318751865501753,-0.0156722571337542249114705,0.00877909593814883010276517,-0.000226887173338946330353183,-0.00816573426260724585801221,-0.00615916144263903460320808,-0.693239174497787047357633,0.720634558139270353649408,0.00608547774552128939440365,0.00424638992496003536691873,9.80715943618105967516385,-0.0100276450975253540731646,0.00345110548360090746769502,0.00143143059844614835111887,-0.607200088864332077065455,0.27479689163702486487395,3.53169302178935984315444,1128.61750383515413886926,1088.98072164144673479313,1091.93215740059963536623,1120.72034358264386355586,-161.53065008212391262532,247.995122901918875868432,147.642414771505769977011,-299.241274728591861276072,150.092180362111520253166
127.564999999999997726263,0.364146610846634355418416,0.00727268137983076018437956,0.148831515772630373906082,-0.013993050330536755884725,0.00855507502860120873366956,0.000598390555296843523053196,-0.00816699961944613792019787,-0.00614101987615733868608459,-0.693226664261790581633704,0.720646753905442860599351,0.00538264211715439033767439,0.00229575427229465611755899,9.80751897616550216696396,-0.00999141211354630243146602,0.00341834135219338955749557,0.00140393270427422800841755,-0.607195026360357936745515,0.274824275978518606233791,3.5316902980745785711747,1128.02748567255252964969,1089.91983334201836441935,1092.35034773648408190638,1119.90539311798784183338,-293.436377409831436580134,460.610996959004467043997,174.962433178305417413867,-324.640367924812494493381,150.092851341685161514761
127.567500000000009663381,0.241092435967161011767246,0.0819872794534093202178937,-0.140039783406086165706839,-0.0131915879959975373275638,0.00929251317884059215013171,0.000689474447268514901120129,-0.0081758550190206853020003,-0.00612456082387324331206546,-0.693218114478616476148432,0.72065503944701170269127,0.0046423289684911217545249,0.000294393901475654973243223,9.80792911289979940647754,-0.00995303090972094253729985,0.00338319865247545779884941,0.00138895279619508180829479,-0.607189446243567632066629,0.274848161344705077535622,3.53168759768549733735199,1127.15032194810214605241,1091.28377662624620825227,1092.80696956649285311869,1119.09714174301666389511,-407.464955121835487261706,611.141402669865215102618,174.531049367150558282447,-292.964652646130559787707,150.093499186292859803871
127.570000000000007389644,0.148005368625317657027551,0.0988453419640974023652191,-0.404463692289655729616982,-0.0135951865597724388945444,0.0104409985617276643288243,-0.000141740721579539563548117,-0.0081833521321222329331091,-0.00611154324278600363795633,-0.693213585217041350361455,0.72065943900230577945365,0.00378681327323363015047164,-0.001596148155211689345645,9.80835432298657750038728,-0.00991553719191684904132877,0.00334583883720568657157979,0.00138660745087704185239674,-0.607182934796442363989399,0.274870421299760747668728,3.53168579457056441839313,1125.99016089693941466976,1092.97554035537359595764,1093.22300298332152124203,1118.44056985475435794797,-552.200146874931533602648,767.235813743052176505444,147.102474608115784349138,-223.393290667875959343291,150.094117982072077666089
127.572500000000005115908,0.114376687054377562668961,0.0310273652495923479843754,-0.640654917457679995429487,-0.0150062053493342784094011,0.0118088783380781853216135,-0.00232957556241531870550032,-0.00818457205981480348522261,-0.00610115432585481634597535,-0.693213473614934350131023,0.720659631349761409246923,0.00276269659122313493426759,-0.00330766210190306525484871,9.80875701352506723651459,-0.00988169841910040668009341,0.00330616857529356100720008,0.00139625876170005290555221,-0.607175789632186213573561,0.274892903351794892774507,3.53168485471296955680032,1124.38932121372999972664,1095.11995569495798008575,1093.5424819395327631355,1117.98017528967830003239,-600.343211581685295641364,768.108381181598929288157,69.1322476845190294625354,-100.973741802591547411794,150.09482550354965724182
127.575000000000002842171,0.166564513037393752137305,-0.100990369136355020995843,-0.73636876999696598833367,-0.0162230563956028868421999,0.0129110957615612906290714,-0.00519170893364336808600834,-0.00817999872715403919531951,-0.0060925242721288760602838,-0.693219265469403156387784,0.720654189522728971795118,0.00159517686846630257768709,-0.00485002381485260397608883,9.80909816900100395287154,-0.00985389865765828529275971,0.0032639442702380228912562,0.00141669169930895978530561,-0.607168257097933539156998,0.274916480768524984501511,3.53168516369283569389381,1122.98844483903371838096,1096.816082261278097576,1093.56866422174380204524,1117.93570114574185936362,-545.504111122859740135027,621.854470318086782754108,-53.9780340058805236935768,54.3666856386647552312752,150.095384876347935687591
127.577500000000000568434,0.294626430252511617435829,-0.296066173930607468012255,-0.702251083229252448525415,-0.0166047699941782554711178,0.0134185954661185605912843,-0.00887108841903154823893551,-0.00817343524241096429372444,-0.00608422889603675229319713,-0.69323089469461351974644,0.720643147347201473706946,0.000352074413290048848779179,-0.00628898421037338284378393,9.80933976165796295276778,-0.00983420051143811882465862,0.00321894195042151266134001,0.00144623587532012273272619,-0.607160839253271911175602,0.274940846951388428998087,3.53168705107363622985872,1121.66180065811818167276,1098.22922804654558603943,1093.27259176950360597402,1118.2520087178713765752,-533.711669037924139047391,525.360588914532286253234,-208.145478725380741025219,206.33448993108353874959,150.095911665210394403402
127.579999999999998294697,0.501369926087332107300654,-0.562690297878992717883762,-0.51604481001321989008801,-0.0156725588826760325877885,0.0123629219087846974750589,-0.01303647249751134148954,-0.00817244905665481975731712,-0.00607913132274203599214601,-0.693248590211117954318354,0.720626173046079343542658,-0.00078220063122183547399402,-0.00768589546226499525927167,9.80944501462927220813981,-0.00982447105111385401987611,0.00317095662262117461774324,0.0014830170061996814957761,-0.607153559793632946472997,0.274964383697932135408593,3.53168955082116342580889,1120.31988649384652489971,1099.44288520584836987837,1092.52793682811784492515,1118.96737359539633871464,-430.697035453186515496782,352.007038441162876551971,-329.956467050378648764308,296.843638014294640470325,150.096504770304704834416
127.582499999999996020961,0.684840767630500946161476,-0.774586088604434119808673,-0.271407819674181260971579,-0.0138032988348561272418102,0.00993232466930778386260403,-0.01487613920356619344465,-0.00817856804296007711130301,-0.00607857695409629809196739,-0.693269175243798940755369,0.720606291679577792841371,-0.00172345352760841508121814,-0.00903886683830364134895063,9.80938416585654593404797,-0.00982638642220300985441472,0.00311991617834395931416203,0.00152488127771279813674199,-0.60714652797675494610985,0.274987181551826886938272,3.53169294282697876496968,1119.50831548085420763528,1099.98926323874979971151,1091.62280943425321311224,1119.73622690794150003057,-245.800720294280552025157,118.321151825601702967106,-400.414969775146460051474,312.371020322449282957677,150.096965507034951770038
127.585000000000007958079,0.843349155401062700043724,-0.937287113857558584761875,0.00439515210634331549011122,-0.0110562549797955291669416,0.00662283010231884492619026,-0.014177032945607809938382,-0.00819304283828380629228771,-0.00608395278699105489933485,-0.693286962345876389690602,0.72058894921102556452297,-0.00238853665786040170182503,-0.0103426708327192876102352,9.80913306238843674123018,-0.00984133167941978262427405,0.00306583100737182383602186,0.00156962784093391959257258,-0.607139881726124874816719,0.275009440162421125997128,3.53169695027723129499009,1119.09088289237274693733,1100.03449096497752179857,1090.52586197923824329337,1120.52922869701160379918,-85.1273689612472566068391,-88.8523860438100996361754,-494.004521979786886731745,320.080881879421042413014,150.097390299360824883479
127.587500000000005684342,0.976904327974406516688077,-1.05304743377951504079704,0.301296119304139520256314,-0.0074153248653568504603073,0.00278315491261749625370725,-0.0115746123644943285646569,-0.00821217747517162185988404,-0.0060968167241190829655495,-0.693298977772575431011148,0.72057703705465259158558,-0.00275805493487923936157813,-0.011519619731417754526781,9.80867533535569613434291,-0.00987035248046322540027564,0.00300863620695755338771415,0.00161501139261798149285299,-0.607133267931766473779476,0.275030961895263936778377,3.53170070229410892892474,1119.08267863604714875692,1099.54500130852989059349,1089.15278682434950496827,1121.33663131734169837728,79.5487137038704048563886,-259.461991237921608899342,-487.697903225250854575279,252.735644806309892373974,150.097857176986678950925
127.590000000000003410605,1.03329484395886450620594,-1.08129973981037497132718,0.489113277271966628845234,-0.00475921490799093103302164,3.40864180457300979323887e-05,-0.00917683540924942899030814,-0.00822481538635655949620595,-0.006119651870494696548064,-0.693303009224440991431493,0.720572789011328707076132,-0.00290179955686439838835611,-0.0123743791819547338528551,9.80800347833046615164676,-0.00991404176871575788798641,0.00294824253756511504148685,0.00165872926397880654167394,-0.607126614892151916791363,0.275052231107240641172496,3.53170502799092966839112,1119.4886264608917372243,1098.73718100878909353924,1088.08737246311420676648,1121.79290692104200388712,244.071082518843525122065,-388.387684779935057122202,-384.063679207642110213783,125.009928164786302318134,150.098209564748088951092
127.592500000000001136868,1.03296155265403122314183,-1.04485957909032611823363,0.605691394421765116895529,-0.00263086390763226382963347,-0.00225696368922770123841004,-0.00700510925457205335664668,-0.00822659730632894527213583,-0.00615387455208609400469921,-0.693298971368146221827544,0.720576325349051138857703,-0.00281470102671571575925213,-0.0128224470366139139954065,9.80711443169597174573937,-0.00997243345421965424191235,0.00288448128304953210071515,0.00169867979913637017277961,-0.607119593272827162699912,0.275072984890593286166904,3.53171025854151121592395,1120.30303404864025651477,1097.6030628846319814329,1087.23246842831304093124,1121.96168095816506138362,386.830006151455393137439,-491.26933740107347148296,-294.256403462435855544754,19.2738307366828607314346,150.098522762942593544722
127.594999999999998863132,0.98570483817595810904777,-0.959383555812037713828033,0.67133512925943039650889,-0.000574571502814709964869488,-0.00432694587622838282986448,-0.00505641067265404781094773,-0.00821911297541541401023846,-0.0061982404297967206088793,-0.693289547476020562299937,0.72058505780240911242629,-0.00245284304491263926983891,-0.0128998428515595536802962,9.80600997280200559202967,-0.0100449161200817892181103,0.00281714276355354755615457,0.00173301406421815917119345,-0.60711138021398780573179,0.275092706907947959216187,3.53171634478055906924965,1121.42277649164725517039,1096.28083432178596012818,1086.61609044580336558283,1121.88927607472533054533,507.50295250191584273125,-551.41878619742908540502,-183.97678567679028560633,-77.5579231174811525306723,150.098802634576770742569
127.597499999999996589395,0.876865250058189937831798,-0.816095127872235370780629,0.695254067019992039178078,0.00174351009147377276550794,-0.00657746344614819952040241,-0.00344797362833863807463075,-0.00820766150239411566846837,-0.00624582154878275223885975,-0.693275737510855583067837,0.720598024198188080724492,-0.00180923123498386018148665,-0.0127738550048590096541723,9.8046977015190019955071,-0.0101300705408070377405716,0.00274622916441896475908679,0.00176016734248008724014745,-0.607102255825167858027669,0.275112105403281848037267,3.53172264028627713727815,1122.84054881114752788562,1094.84596895364734336908,1086.31258449992992609623,1121.57389134257800833439,665.948678970412288435909,-626.869707944040669644892,-68.0358481390207288086458,-173.080201313889318726069,150.099041325673738356272
127.600000000000008526513,0.666607555604170287644195,-0.57770732955545633924288,0.704384101440296728213752,0.00479589867076408125912135,-0.00966691114221062373912385,-0.00183540095665311007999687,-0.00820197387828517504582138,-0.00629141843286944429242125,-0.693260189583931429879726,0.720612613614368791026266,-0.000800876965345392877182462,-0.0126517778305949429862309,9.80318879933409803584254,-0.0102255341965170228057946,0.00267203898905578633368729,0.00177900220728537160688743,-0.60709302662698694241783,0.275130608070596693881527,3.53172808260546355896281,1124.75251988650575185602,1093.14648578205969897681,1086.2759112051076044736,1121.02387506815421147621,711.24263802293046410341,-598.860623077805371394788,29.0761112573256603752725,-211.692087788515124202604,150.099278873800074052269
127.602500000000006252776,0.424396790632428022593814,-0.331400088549053895015106,0.714078270665221448432192,0.00726337286966728407772154,-0.0119767063211384822835059,-0.000753985683836156089093761,-0.00820503723276059040991903,-0.00633018244241454527271307,-0.6932441458069592554736,0.720627646946886635248575,0.000557594307583980652864852,-0.0126427226390484342966047,9.80150148681478938783584,-0.0103278805419368385071222,0.00259537353118297802259673,0.00178854590777458195838268,-0.607084689978151126332762,0.275149175375565935297573,3.53173322861855165655243,1126.39676200126905314391,1091.85166583825252928364,1086.45796505621683536447,1120.51543090363338706084,635.208380405479374530842,-472.851799748262124012399,99.9208465076662122328344,-194.64179564301471714316,150.099435174193246211871
127.605000000000003979039,0.127138351613477335044777,-0.0623928422010564809330191,0.739902160803604491690066,0.00880136188238456185217728,-0.0128415643363472241345047,0.000221642074357826729738563,-0.00821522233453119386792363,-0.00635501108520755350617115,-0.693229367615252667356174,0.720641521558801234625946,0.00214486167018862472488649,-0.0128228293696104680976511,9.79966005439628418116627,-0.0104325825378732920528657,0.00251743721506832033099621,0.00178791574485778629113875,-0.607078281692328802776615,0.27517069890156814482296,3.53173822021567840323542,1127.92856178853025994613,1090.78222678332053874328,1086.77551543764548114268,1120.05066608994002308464,610.854721208453042891051,-403.252606768595114772324,155.739754324582236222341,-181.391119037772483579829,150.099547142804397026339
127.607500000000001705303,-0.255096777536875374270409,0.238975633903820816605901,0.791164027832467642298298,0.00876980349380977915185742,-0.0116357786003243451888878,0.00159491990913503481341884,-0.00823021286077421990179381,-0.00636068621053001784226844,-0.693220288112954330372872,0.720650049372443146644684,0.00384410229569004391336762,-0.013234035372397839891434,9.79769183720713243701539,-0.010534227943733839513718,0.00243960092544048779902854,0.00177639721338099243475028,-0.60707419247778982018815,0.275197455251831646361182,3.53174330227189603448323,1129.45103560730854042049,1089.83540280441138747847,1087.23666382783903827658,1119.60847530844534958305,483.094182591533467530098,-285.865503086584681113891,177.795881216414073833221,-140.589219432459316294626,150.099628992138264038658
127.609999999999999431566,-0.55990125090829279130844,0.440153868726773644937111,0.841738421382187240737949,0.00722566380267791394387267,-0.00917572640550284521210322,0.00310869138620115115223541,-0.0082420381016093426096436,-0.00635487168204373377433658,-0.693213961286750168788728,0.720656078886029782815115,0.00562932083119735415799312,-0.0136671440536280455746443,9.79562580598397758535612,-0.0106270060892344822556232,0.00236347448837494590948016,0.00175350513014419298607471,-0.607071919332481058084738,0.275229360523183419484639,3.53174926901656283106945,1130.34403270148573028564,1089.3528992678889153467,1087.66449484372674305632,1119.34771999277836584952,261.915030313286422369856,-130.470010354911636341058,182.909332454421843294767,-86.2850413924991528347164,150.099652523508012791353
127.612499999999997157829,-0.812823219739107094561348,0.571921978963428889741749,0.880343541550654529181941,0.00471681969797880639577725,-0.00645616790835389781078035,0.00503584958790985557502973,-0.00824602878056097769732258,-0.00634636117163631021526049,-0.693204925061162491317646,0.720664830616011609087934,0.00752187010061858285503433,-0.0139467227018158015927618,9.79349081751268180084935,-0.0107054769101256278679424,0.00229047345457048965797209,0.00171910737912822349053588,-0.607070639232897280024304,0.275264184187904714651296,3.53175582906827090212687,1130.7606107588737813785,1089.18305275263742259995,1088.15121049011031573173,1119.17705010148324618058,84.2393407294102729565566,-22.5563416154746541053555,210.61539527559256157474,-59.6513639871529832703345,150.09962859457124295659
127.615000000000009094947,-1.00351024387816689653619,0.653036258182860041010542,0.890221292578177170184972,0.00193623410790477496097595,-0.004287831544214255018177,0.00718115952182614772358882,-0.00823945701021723021784116,-0.00633754170084390409944941,-0.693193755239405740020686,0.720675751896647565075682,0.00946766793985817645129544,-0.0140114579966283334111488,9.79131667416622519795055,-0.0107652286508655211511032,0.00222139162913193976417459,0.00167342063303980688807049,-0.607069320708288118204621,0.275300329269692722888863,3.53176193342980448974799,1130.76522940513359571924,1089.24011755981132409943,1088.71757182010674114281,1119.04946317284202450537,-88.9657764864395659287766,63.3542727247144057400874,253.595717874269297453793,-48.5321942694525816364148,150.099564499970881570334
127.61750000000000682121,-1.10699634357486753621913,0.698042388117363854505015,0.842032135163889083884214,-0.000914812519971826428565043,-0.00297846575058991229131844,0.0097721712373729958944768,-0.00822257804559429518465041,-0.00632752404476327051652262,-0.693181981736590735465597,0.720687373945546383424698,0.0113967805956320666904702,-0.0138869710387330633216685,9.78913219117891131304532,-0.0108031523008571116867271,0.00215651220033268682316208,0.001617093813696190724577,-0.607067749396714928522556,0.275336940573925936792676,3.53176733238826034977365,1130.3157818764407238632,1089.49982411626160683227,1089.41918907948411288089,1118.93438913013551427866,-278.209973265691758115281,137.09191845690574496075,344.088741006948168887902,-54.6624126358935100711278,150.099450997004993269002
127.620000000000004547474,-1.12346407062914455110558,0.745136637937988233204578,0.692921527822247362848884,-0.00435420465813245519126617,-0.00197176703459292371536926,0.0133244257586575768487203,-0.00819922557071808832951376,-0.00631621053549983463293316,-0.693171771248984880386956,0.720697571636182532373027,0.0132911453883053087832167,-0.0136383386202367298811744,9.78696326262372551241242,-0.0108175579258306866353712,0.00209566772030179765060054,0.00155121719878844200463108,-0.607065971307706120363434,0.275373309022132362056112,3.5317724592768624525263,1129.37417953880640197895,1089.92557715209522939404,1090.43801552513991737214,1118.77615110966280553839,-388.496966391938713059062,156.109869608422854980745,398.190970467565591661696,-62.8624327156675093419835,150.09925642135783618869
127.622500000000002273737,-1.04588854201348824268791,0.795516190238452325367291,0.486701286378946218480479,-0.0071090855734096498538821,-0.00107908494677645444732861,0.0159657662916335985059391,-0.00817059795441003357263643,-0.00630799997390509101929945,-0.693165101400106564710768,0.720704392594699649876588,0.015154977099782585003851,-0.0132317342251109873463299,9.78483359896245197262488,-0.0108081819630379220159577,0.00203835255121820107734876,0.0014772054193423285375214,-0.607063589039603335173467,0.275408739286892301212362,3.53177724552792060563888,1128.37329704448279699136,1090.28037346430301113287,1091.41014393182013009209,1118.6200769665574625833,-416.053342757382836225588,121.411164923867005427383,397.827306702536418470117,-64.8989234767349500998534,150.099044723627599751126
127.625,-0.874521405994552969431766,0.862082141382245703553622,0.207987207939586998817205,-0.00973145868478305850479693,0.000208843111000669599472412,0.0176257306519873035988155,-0.00814167015554938255927908,-0.00630306095889571378620975,-0.693160384639111781801546,0.720709307820242783826359,0.0169809826096451454979785,-0.0127438252199905885375664,9.78276375093179950681588,-0.0107760748338521054889849,0.00198387855433165274585128,0.0013967599053859994836374,-0.607060642549367424081197,0.27544239378785229099833,3.53178082513558599941916,1127.29391282502137983101,1090.53263297671401232947,1092.42715205865079042269,1118.45165649227942594734,-465.708564861202546580898,70.3969322071501579785036,428.650468808453865676711,-70.0637043197912703362817,150.098780516100134718727
127.627499999999997726263,-0.566847167344162072843972,0.948688470808651040933057,-0.173880152649360547600921,-0.0127941071720051088161929,0.0024044843418575692975403,0.0183529707123953438052677,-0.00811992773545041138238965,-0.0063013382128064027859482,-0.693157328828965302314202,0.720712516609215092522334,0.0187929484795219814419198,-0.0122875954419541591478016,9.7807704067561225258487,-0.0107234106995033537379491,0.00193134272559412401883139,0.00131178323621506396148839,-0.607057125208942283123292,0.275473160435309338822663,3.53178211950674869612499,1126.04475422017890196003,1090.63235812533844182326,1093.55339627586045025964,1118.26975844495882483898,-438.087176620610136978939,-3.79735634650563103065224,374.550985204636219805252,-57.3964541896457660641317,150.098401520976096890081
127.630000000000009663381,-0.238315669266565083317388,1.01041468475589812925364,-0.495060435290774425443061,-0.0147176833856063355582267,0.00486015781219599485307725,0.017820505665061946859451,-0.008104417453247116098769,-0.00630404534199746190842317,-0.693152081801576835928813,0.720717726827706850478705,0.0205202241871316470867015,-0.011838901135464159619648,9.778870096672017453443,-0.0106531372268289063753866,0.00187988910358325204096042,0.00122397525095306602960221,-0.607053303638431240862872,0.275500840758649945261283,3.5317818591319394272432,1125.1034769419140957325,1090.51364619498144747922,1094.29990698467759102641,1118.16467422133064246736,-351.2349812490843987689,-90.7829301470038387833483,237.554700855157705063903,-26.3567273373100690037063,150.098033172837943993727
127.632500000000007389644,0.135223962982067430482758,1.04044406435583502990028,-0.769265651979909037549987,-0.0150760544527037375350798,0.0077812611700326340599676,0.0157251722305359192821683,-0.00809154256071617158929676,-0.00631035584913345898999681,-0.693142457407854739592779,0.720727090112060375659553,0.0220324815730129353053002,-0.0113613823802860350320465,9.77707801747628124644507,-0.0105685745335685667839476,0.00182859821220789954543395,0.00113464498091829946863074,-0.60704956794325459767947,0.275525923801233141308131,3.53178075837108362833305,1124.28857931393008584564,1090.17844347460254539328,1094.74116978013853440643,1118.13797480827201979992,-334.302156983798624878546,-192.320049775200743624737,114.019619382737815271867,10.3325656658947373500723,150.097609251156711707154
127.635000000000005115908,0.588575514142851141663471,1.02195092998897285596627,-0.989702753780385746651405,-0.0134891538188867850245334,0.0115063078444261595451037,0.0114575136878114977601051,-0.00808083157999147684569241,-0.00632165334039703433882673,-0.693132636399396706572418,0.720736573628715015971125,0.0232801213160937769952596,-0.0108285483652698771850353,9.7754052636883059790307,-0.0104730121183501771742197,0.00177637979221073193276947,0.00104469404524041437065662,-0.607045230046636907772495,0.275548677196050972870722,3.5317787163631297886468,1123.43196615699662288534,1089.5520459461063182971,1094.87000508159076161974,1118.21633704966006916948,-301.62026054240561734332,-259.226905198656140782987,-14.6869747138813977471727,47.8026779743211633899591,150.09703508149641493219
127.637500000000002842171,0.937850104289949082492228,0.955808321496363189062606,-1.0574752190576022226054,-0.0108903588902922610764934,0.0146055470982835097770725,0.00717945641555109426157344,-0.00806848656666967964379289,-0.00633528908607839964101105,-0.693125176156353717260572,0.720743779357167602128698,0.0241192609289434811703501,-0.0102201326155544544582732,9.7738632272419785351758,-0.0103693547965916822717336,0.0017222722491744249691259,0.000954317863462776638794338,-0.607039882016434551026407,0.275571107155167804858564,3.53177671372876655908613,1122.78047801121942939062,1088.88230894861044362187,1094.66773490656919420871,1118.37698819814340822631,-257.862676393968172305904,-285.026764490962705167476,-128.109570320364696272009,82.8960092236074075344732,150.096501178589960545651
127.640000000000000568434,1.22939457744503299885253,0.84210734308717660745458,-1.00219309115022214839996,-0.00734012652042493121684608,0.0171253984765593024464092,0.00335302129614588632564032,-0.00805286908084219994752306,-0.00634532904415110229207064,-0.693122158495097395736195,0.720746774198858242144183,0.0243978180515519171844829,-0.00958922333619924294190184,9.77246192304876970524674,-0.0102599639439979375271639,0.00166552763312767027926997,0.0008630823725330081727658,-0.607033909966886997544577,0.275595027697688454981773,3.53177537092160775955563,1122.14265277502795470355,1088.12691212365280080121,1094.22945722998952078342,1118.63081709577772926423,-258.527411958365064492682,-303.832625886983635155048,-197.893999642654222270721,115.204982508808100760689,150.095908714197321387473
127.642499999999998294697,1.46296983473065300707106,0.70001041198876778892668,-0.863256757058105339552867,-0.00342294254003021368795712,0.0189375523236238220425864,0.000415145727482132108083351,-0.00803055039181911275991688,-0.00634937572363642246942028,-0.693124254896726577079846,0.720744973085901463605296,0.0239987866914488368053071,-0.00891491320900997252785203,9.77121030576786253618593,-0.0101467596368939490247829,0.00160578626786920782357204,0.00077002823976928718233137,-0.607028134977915967418483,0.275621215932369656442802,3.53177515740091596541106,1121.48784095142877959006,1087.36314581917690702539,1093.67826490835682307079,1118.95301311068692484696,-268.187599986156953946193,-291.300722328825315798895,-230.551358667008173597424,142.173777254031108441268,150.095266931994842707354
127.644999999999996020961,1.62688132852514155679557,0.539557584250321409236051,-0.661249440841968127990924,0.000351931622528318921970525,0.0199790136720943492520952,-0.0012561125803811779965552,-0.00800123924595197259790336,-0.00634730362865825251117435,-0.693128545898395453939145,0.720741189063067166920007,0.0228895444936165481930601,-0.00819013761019049546519,9.77011499944500982905993,-0.0100315093142987789287535,0.00154318700327129719636343,0.00067390948783085024773043,-0.607023270015758065198952,0.275648978781215081568234,3.53177616405320149439717,1120.80171477509838950937,1086.67040851200999895809,1093.07670043665552839229,1119.34168598204723821254,-305.634792376759378385032,-269.471822754555773826723,-265.324753963646969623369,179.747850019037315405512,150.094564784136906610001
127.647500000000007958079,1.75026616831878700786262,0.341189109128426037997883,-0.398988977284235102338528,0.00480129437344001264165172,0.0206184922819166900620491,-0.0018969459924309285941274,-0.00796673407067005796833303,-0.00634064082744779412836866,-0.6931346297317869664667,0.720735774373523208069514,0.02110008872526494827504,-0.0074138176814919770629686,9.7691809731649392745112,-0.00991617027389309763085734,0.00147815287274862526036012,0.000573383261446633232111258,-0.607019223976687616328718,0.275676501263117712525741,3.53177839101059198867461,1119.95966698954202911409,1086.01578670540152415924,1092.35164113853602430027,1119.85175236078384841676,-306.098925966534409326414,-200.680291110596556336532,-268.216474811679347567406,186.520557056795638573021,150.093651290205173154391
127.650000000000005684342,1.79525127105059545407073,0.175565342335909480020462,-0.196368821186942626999539,0.00886248960612287008109522,0.020852942025144604459852,-0.00171408520097503995309463,-0.00792293257490017492628009,-0.00633027507510194181739038,-0.693140224709329788588263,0.720730960097616835113854,0.0185824524449860750685559,-0.00651134710653479553688072,9.76841494055429215848108,-0.00980303436429455325729077,0.00141141973017996761631532,0.000467092194765276341478916,-0.60701618481775343472151,0.275703468426505338140231,3.53178261065191279044484,1119.27122014526275961543,1085.66700705645507696318,1091.73561806259453987877,1120.27428876733301876811,-264.736077119018546000007,-93.8956168583389541026918,-260.632174920111197025108,155.282355996273764731086,150.092830147399553197829
127.652500000000003410605,1.77968515186576392572704,0.00723876296250910988838712,-0.0349712098262477608101584,0.0132921930044019968863989,0.020952683511677658301231,-0.00126959242749191507371176,-0.00787221588217682649579743,-0.00632208811516344042907845,-0.693143618867533062299913,0.720728315060524926671803,0.0154583644626182514780766,-0.00543231162910822601430638,9.76781905061768362941166,-0.00969472326303493989185789,0.00134383547725580522642919,0.000354206186565327236538681,-0.607014253925570290704172,0.275729164823675432227645,3.53178783309026878001191,1118.6359866039481403277,1085.54630862111025635386,1091.04848026393665350042,1120.62816414076451110304,-259.534879384145426683972,-4.39539002586970628527752,-337.817693059548957990046,121.513044651484520386475,150.091945906394784060467
127.655000000000001136868,1.6901418748966734462158,-0.205919043505450732878259,0.099519940737323953072746,0.018425687047077473484924,0.0209773412329012920451987,-0.00071844395606902161904167,-0.00782237501681041016987628,-0.00632540051184769889364157,-0.693144799670790789924979,0.720727680059915387644764,0.0119830176505413554810531,-0.00415643992067445122717828,9.76739127560124131832708,-0.00959409487638795271946535,0.00127619888988869624110722,0.000234620888100350665590385,-0.607012691616982791309454,0.275752453645774386892242,3.53179263730311676638962,1117.97354574834321283561,1085.6450301063257484202,1090.04652959729833128222,1120.88185399058988878096,-222.158362169304524513791,69.0344326025924885925633,-409.362812073968029835669,51.4815639684015735610956,150.090810837754844442316
127.657499999999998863132,1.55777402837750122976956,-0.397630275044217829094606,0.161449811857869385267605,0.0223604769338806956546772,0.0208550395898098178681934,-0.000310449316910920488244569,-0.00777459942949680887086528,-0.00634474947661265928355867,-0.693140484502835940716636,0.720732153770832995043349,0.00826607209241533857912998,-0.00263760338574484110019114,9.76713095065665726224324,-0.00950401155614093683110521,0.00120930812321166621450819,0.000108770384774690357775756,-0.60701087266113062934636,0.275773919147701773724179,3.53179703328876914980583,1117.5251947931026279548,1085.89148078412290487904,1089.00166620356867497321,1120.88557196060628484702,-154.216810616621131657666,121.338950234231873537283,-469.469112631367806898197,-54.2762208497645346483296,150.089802576201464034966
127.659999999999996589395,1.368387117587543500008,-0.602611530749299073583813,0.174244805909477523675477,0.0259521117730693480496473,0.0203789519841057753524183,6.81712138189552257182269e-05,-0.00772782384491492186501249,-0.00637650524982119604189279,-0.693128781961083850760019,0.720743595727798003203191,0.00428308696816842582322238,-0.000909546449239337362335789,9.76703692786787414092942,-0.00942709655690178102704913,0.00114383186671602630687938,-2.2350995589310863583335e-05,-0.60700876106812451382666,0.275795268741829635583684,3.53180055258463765355259,1117.202461695260808483,1086.2517248574963559804,1087.69918403414362728654,1120.61047288634131291474,-106.382017719009979828115,155.713849064631261853719,-562.024868319172810515738,-162.442669306442269316904,150.088728755628949329548
127.662500000000008526513,1.13481099529066331577098,-0.809424753949320563428671,0.14897843222263584817,0.0291618207614401762917122,0.0193739345633181896111363,0.000475448802819018626151376,-0.00768004897959151389130739,-0.00641463361333231407018785,-0.693111635270813875031592,0.720760212017846235710294,-2.57902301342149975482698e-05,0.000974089757021921742730086,9.76710483094990777885869,-0.00936562509148469030106909,0.00108030479565069900162178,-0.000157151770373390391828325,-0.607006550358012986201572,0.27581775383095824549784,3.53180313987840932554718,1116.99328470450655004242,1086.67005002944756597572,1086.1915418619673801004,1120.07335861407250376942,-55.548972536082111162159,176.365808857394966935317,-640.210585264403107430553,-280.967319662661736856535,150.087599991095174800648
127.665000000000006252776,0.854022070816050971053812,-0.996811097730840423025711,0.0809876648164080947811527,0.0317760392865177251908726,0.017411033491740078582577,0.000972209433648093916680022,-0.00763481899533769228782809,-0.00645853391753014628717811,-0.693092743940867617169488,0.720778416194024273977448,-0.00455875280878587085808817,0.00295393885954076812483393,9.76732252496566211164009,-0.00932159737710159565227119,0.00101924000209704392581889,-0.000293345386979651967691851,-0.60700442555845424141836,0.275840678262662564179664,3.53180431517724002787872,1116.92471683257986114768,1087.13355390178503512288,1084.49813110781542491168,1119.20563628802528910455,0.939206784188117316247713,212.577602611656914177729,-761.930719786243457747332,-456.572268133783438770479,150.086404317145564846214
127.667500000000003979039,0.474916048565337867159997,-1.16339423226508031916637,-0.0433118649646148448639771,0.0340997413422368320090605,0.0136822152126093998791845,0.00165910692793410719306224,-0.00759819371291873147528095,-0.00650847945723909398346718,-0.693077570596902781119297,0.720792892587733713405385,-0.00915851101364165143259299,0.00494568535762261729527012,9.76767194552002671059654,-0.00929685990712074764030781,0.000961161290989517077404392,-0.000428191582789816697560137,-0.607002610469087544586841,0.275862728323209072112121,3.53180322357867382265795,1116.99798073842748635798,1087.73293804250488392427,1082.38188826303962741804,1117.79049727340566278144,50.5868405521601616214866,226.875538253831905421976,-767.920552477487831311009,-576.35488980806837844284,150.08489137462674989365
127.670000000000001705303,0.137261882849134708717287,-1.22968135274526879641144,-0.172351581580458712572579,0.0351070569209310581748618,0.00957128491149967543238919,0.00218151098009111352182821,-0.00756776341009753831384765,-0.00656015441697514484903353,-0.693068846648979164370985,0.720801082562083306193301,-0.0138394557588367439482369,0.00691973835372007572974695,9.76813357667731452238513,-0.00929309414473994399585877,0.000906702693780989804617221,-0.00055894056179780831836168,-0.607001784695883173093023,0.275884848899361045937439,3.53180033257638781307719,1117.17765103534043191758,1088.26793159305316294194,1080.65852834543147764634,1116.32386183898756826238,93.3263860723794351770266,219.393951576848309059642,-657.403633620749474175682,-635.754567771878782878048,150.083564959144354133969
127.672499999999999431566,-0.202119358817759636748335,-1.20703867591952018756274,-0.304940446380261409586865,0.0348296484717691492982716,0.00526488687048237528898209,0.00228381276302371417213921,-0.00754317515309802042594578,-0.00660646579612830190525452,-0.693066566101403824795568,0.720803067358111504425722,-0.0186208419392928647972951,0.00877794013186670302184567,9.76868277904269888267663,-0.00931179877869943613266646,0.00085653081501704483348425,-0.000682908233741517868738147,-0.607002136801905067819973,0.275907530761686281550737,3.53179612744346416164376,1117.46461266878895912669,1088.82990780038812772545,1079.09487009493886944256,1114.61172443454915992334,147.261328305055258169887,247.230297119628829705107,-631.952021974559102091007,-789.984253505135711748153,150.082169868145172131335
127.674999999999997157829,-0.586531248168972063616877,-1.08907483848365549405912,-0.426509212612052768243132,0.0331546573486122819751643,0.00102390210662687327486386,0.0011419543649888728217151,-0.0075271106524102170468038,-0.00664294884112043380192114,-0.693072070457496636208816,0.720797574327693091333913,-0.0234385207595174394068493,0.0104143057579823075653458,9.76928910574574871361619,-0.0093543501697374992209788,0.000811108072144742491688119,-0.000797591907939276768477188,-0.607002911322378824188206,0.275930219039563828786754,3.53179100015558899983148,1117.91395767686503859295,1089.50408307865018286975,1077.49876823556155613915,1112.37394057146548220771,179.611576912582961540465,241.178502607215250463923,-530.399996850494858335878,-830.189921631686843284115,150.080415811918726376462
127.677500000000009094947,-0.874160078557018938028023,-0.939202784340890772796229,-0.46174898484266585496627,0.0311366811916376183544397,-0.00129613418597487634227605,-0.00146592177459892321865487,-0.00751652786152754055770675,-0.00667378320182680263850106,-0.693080686291145720012707,0.720789088802284538815002,-0.0281809231222238942837777,0.0119188142030941315874237,9.76991874437974416878205,-0.00942201854874608751844178,0.000770767960721795413608914,-0.000900852463009159170823081,-0.607003546996574994132345,0.275952281126236820263387,3.53178481365411478520855,1118.36267055335360964818,1090.03580031342653455795,1076.4428701106812695798,1110.46077482638270339521,192.36247640909934375486,200.413496589521059831895,-360.598420759182545225485,-743.801639206703271156584,150.078887138592648398117
127.68000000000000682121,-1.11799883297290980621597,-0.769893902368857130369406,-0.400507511466192955840171,0.0286935751032006657046391,-0.00218540216213310156678773,-0.00521391250193415332903069,-0.00751326160565302710730995,-0.00670027473436031126285961,-0.693088713988184390579761,0.7207811401056646305463,-0.032709019505341691003153,0.013274165810259128117643,9.77053520180765211478047,-0.00951592703292599914610683,0.000735539492853531755300889,-0.000991030115143979803415952,-0.607004422718166458672329,0.275973280584304259122064,3.53177679068354732905277,1118.87577005891239423363,1090.50615056159972482419,1075.69577613176215891144,1108.65493237542477800162,238.803863608644689975335,189.460439971835029382419,-253.724480920394597660561,-728.824269754503689000558,150.077288643995018446731
127.682500000000004547474,-1.35224307787999808994073,-0.57045007126758329185634,-0.227871187726202295564804,0.0250813020041389944658761,-0.0024087947028089248986682,-0.00830571589882220760736597,-0.00752185514529553605339585,-0.00672208843574768899475913,-0.693097889357567220613987,0.720772018478047726830482,-0.0368701129943297678526193,0.0144040796076578131446055,9.77110141342364002525755,-0.00963689677066297163687825,0.000705030204740284232971248,-0.00106714649478209999342027,-0.607005109886507354666207,0.275991919473444202726142,3.5317669434463776489963,1119.55668987139574710454,1090.98310251328484810074,1075.17424770608045037079,1106.81665347761349948996,259.463312125271329477982,160.424966013679693332961,-124.733498121099486866115,-590.419398134591006055416,150.075289475118211157678
127.685000000000002273737,-1.49380638992094194605897,-0.408254429897652759695603,-0.0425111577331149723124604,0.0214938701423644205890096,-0.00288002434482660532935605,-0.00832686124804298682944292,-0.00753686552882227266125792,-0.00673731627336407630501913,-0.693108507933996476069183,0.720761518553771018957832,-0.040671584931136706142496,0.0153520678233899088294123,9.77158481002394907477537,-0.00978512417785075416798435,0.000678593879308700084242167,-0.00112930583006542800336702,-0.607005320134158199429919,0.276008650004373801145618,3.53175733394447499691182,1120.17308661953757109586,1091.30827539166739370557,1075.07210864115722870338,1105.70283538475450768601,254.325727496920364956168,116.907215448706580218641,36.1216546086199059573119,-331.246681070416570946691,150.073555917126299164011
127.6875,-1.57585857777231153065145,-0.233259786137839403297178,0.124277389042034225319355,0.0174809960238264429366328,-0.00411800082157964125739724,-0.00631976971121365940081693,-0.00755145493481004705799142,-0.00673918951776718896246043,-0.693123457849263990837585,0.720746998181772791092214,-0.0442130591608943801507081,0.0161168503302774115959473,9.77195735537364384981629,-0.00995985661412996346741888,0.000655282931505747514959459,-0.00117870814400547322710333,-0.607005238163655591598911,0.27602554406608320602956,3.53174914350742730206889,1120.82831850887919244997,1091.56763859052784937376,1075.3548559791233856231,1105.16042007226292298583,264.674220271049023267551,94.2102098726938521622287,184.222152970809673888652,-111.015711336050131308184,150.071752188481468692771
127.689999999999997726263,-1.60895340895107530343466,-0.0326506745720395522014634,0.242396688833194012824279,0.0132483731583182499230711,-0.00569365948453619003660764,-0.00399765090916927301467609,-0.00756358185821391290626359,-0.00673112029925599167357042,-0.693148702898522039994589,0.720722704649308765212368,-0.0473931381995503497872591,0.0167690772882859717718418,9.77219325965371155007233,-0.0101592364582708590686755,0.000633882587961662863872137,-0.00121723564754696970957593,-0.607004042791316367200238,0.276043505396538602081336,3.5317425123086989557919,1121.4964577208916125528,1091.77932644103043458017,1075.99321940601043934294,1105.14775682807476187008,261.94254590845355323836,73.7008838974301312418902,347.268280081527393576835,120.592299312278314005198,150.069890337922089429412
127.692500000000009663381,-1.58924763703363081113196,0.204073731648989009634931,0.289997131058908341749714,0.0091858985455309273560065,-0.00679719898028159456859765,-0.00219356916390137449135445,-0.00757391899010894428106999,-0.00671838263757637641632181,-0.693180904299568134696585,0.720691786132116707364048,-0.0500579364369963253356133,0.0173664200943690963385713,9.77227295787276695193668,-0.0103802679830016283263339,0.000613395100501321326874615,-0.00124735167577970113700347,-0.607001516247051231545129,0.276063322604993333087009,3.53173683261546100808914,1122.1380312384239914536,1091.93614301001571220695,1077.09119737953437834221,1105.763381568825479917,260.121320286041054714588,55.3391223143829904529412,587.140134876974457256438,392.465433410476180142723,150.067958590620946779381
127.695000000000007389644,-1.51881864428576696113282,0.511476282532367543254281,0.27933104297669508753188,0.00519469438830874163243179,-0.00639528645821570151941415,-0.000915057426141706060224168,-0.00758225288055109063883874,-0.0067048344785238028417651,-0.693211590096010854544772,0.720662354419581485664992,-0.0520980778279173939449009,0.0179606325851017420425215,9.77218599601611259686251,-0.0106189444165166665956512,0.000593134452938359822520009,-0.00127198783276842174345955,-0.606998342227283327332543,0.276085123997533987694197,3.53173164344365275724158,1122.79706432232433144236,1092.0560220526028842869,1078.92892008040098517085,1107.1100839951309353637,208.589176287440380974658,31.0956051704407343549974,748.779679028347118219244,565.422176378720337197592,150.065560081995556629408
127.697500000000005115908,-1.43040663776214604929748,0.760614268472065813142535,0.234872501160844210366108,0.00251775546465774976989671,-0.00440466078967027222651476,-0.000536786408868379833793372,-0.0075860116061275415302867,-0.006693057387714429658232,-0.693235865649041937963659,0.720639121153133777042399,-0.0534682609373149653197999,0.0186209604171279491380275,9.77193233351872692082907,-0.0108704537496653649147893,0.00057263811868040013098452,-0.00129441815999737741375852,-0.606995631087162923478218,0.276108809175834635230018,3.53172779788065671624508,1123.18097711986024478392,1092.09162103586777448072,1080.83509577467270901252,1108.59049245071651057515,100.879337229708539780404,-0.816149362436423109201655,814.428608675611371836567,623.222241309097853445564,150.063494717041862713813
127.700000000000002842171,-1.31173734253256402126908,0.970695852216789778488248,0.179422695255748082532321,-0.000269975052897016942581032,-0.00143584693129008341555553,-0.000665869041664156205775904,-0.00759075398051726850379151,-0.00668269254321297162535487,-0.693253332286625334468511,0.720622417030024386974674,-0.0540701665814952714406161,0.0192633880191733809772447,9.7715208153192314455282,-0.0111293891237698467505668,0.000551685514282029181368228,-0.00131795411396257817690514,-0.60699405023585162322064,0.276133684039845228586074,3.53172535642368545794056,1123.30146100847241541487,1092.05194130579070588283,1083.0010631237753386813,1110.22619520167359041807,-25.6950665503843040937682,-35.2886299945887813578338,971.807643195935952462605,706.312191352259333143593,150.061360838281132146221
127.702500000000000568434,-1.1212812342863198722398,1.15502615719546497530246,0.121101251721768984892513,-0.00425874067955206696972636,0.0021443320514319846349649,-0.00105818272418243273028104,-0.00760025570558464820536404,-0.00667582701480007138783446,-0.69326627713154376220217,0.720609982020765871268964,-0.0538121275700670642638812,0.0198625717533512831380893,9.77097074576251145572314,-0.0113898731721083033147091,0.000530222639341044413990867,-0.00134580435524178209510948,-0.606993137342527577793305,0.276159127278970961683058,3.53172393641751147796981,1123.05250178710844011221,1091.91517788589499105001,1085.69413399064796976745,1112.1220534074745955877,-164.15802508723950836611,-63.4998318903067229257431,968.948637517604765889701,655.36274717274443446513,150.05872189140549721742
127.704999999999998294697,-0.9126837466349386751574,1.244918033576926541528,0.085326751579823556514981,-0.00760707248856852535912054,0.00488296544699552866053427,-0.00125706386078556836202735,-0.00760597650082194334797414,-0.00667117032810575754514515,-0.693275258575567487895341,0.72060137045140459921555,-0.0528345553353548047503807,0.0205203356304757590644616,9.77031492593244266231522,-0.011645584115229952806847,0.000508370151692258106027045,-0.00138113765122134936162712,-0.606992704454672682423677,0.276186501752501756268288,3.53172395124662763521428,1122.48067088303696436924,1091.73444214633946103277,1087.84580631135895600892,1113.50300893753433228994,-303.91440419116764815044,-81.9604348417960437700458,800.930713032585913424555,491.062772830665437595599,150.056458329681163377245
127.707499999999996020961,-0.651728106254026995358686,1.26278207790540131227885,0.060400565906113291847479,-0.0103305944930977763873692,0.00789015374618821929697532,-0.00109648221231827707779216,-0.00760435446934450490208413,-0.00666499648558614276455669,-0.693281260916936759031159,0.720595700455047283305987,-0.0512620382993214107614222,0.0212347060170135631951283,9.7695949095271643614069,-0.0118899041801862268008527,0.000486310078247597038589994,-0.00142658818921731879794668,-0.606992675214338750500076,0.276216673303387838522838,3.53172511435509051125337,1121.53292976615398401918,1091.50537571168638351082,1089.69878755580725737673,1114.57736727162568968197,-434.030955469168191029894,-95.124508185925023440177,665.411127403409409453161,375.990750096435476734769,150.054129012116078456529
127.710000000000007958079,-0.358055215140503424464669,1.21573857497807380489974,0.0394092058205787118541075,-0.01224287231991796204289,0.0113317835093212724434375,-0.000776222700300119240919561,-0.0075958794412089884404149,-0.00665232716429893164433729,-0.693285588225447946264524,0.720591755512795195670606,-0.0491983521519340771810391,0.021928669414682931682048,9.76885999980945030074508,-0.0121161837002304369897976,0.000464241973124326673567908,-0.00148403946298707525852656,-0.606992539144094345182623,0.276250683778996974915287,3.53172668403729694830417,1120.31051610568692922243,1091.25881960540891668643,1091.17286194838243318372,1115.38296268802014310495,-538.411331749835767368495,-96.6844793357673069067459,475.908765357497657078056,267.429930637792210745829,150.051746144504221547322
127.712500000000005684342,-0.0496212569971158715120829,1.08779727741269960361592,0.0183865445373232114234519,-0.0127794061922889782417778,0.0147647073055474573055612,-0.000443520304570654865568974,-0.0075798408745273099587636,-0.00663004742532259921244941,-0.693286011750683717203003,0.720591717384912788801898,-0.0467522513440134235285228,0.0225655439232496021761953,9.76816653340609164501984,-0.0123181482322947573326832,0.000442502328470735202883835,-0.00155451633124423877971299,-0.606992156466467425168787,0.276288997668193314627416,3.53172778029194711635341,1118.84087310739960230421,1091.02195331500661268365,1092.07833138259934457892,1115.91451692481723512174,-674.267481119590456728474,-93.9256116595005750014025,253.210045246581302080813,195.565597724540168655949,150.049300059575301702353
127.715000000000003410605,0.299009660683980604822807,0.848887362842419723740761,-0.00835812277068738104790491,-0.0119392132585530962030074,0.0180339860772853188830567,-0.000144057075216740693027542,-0.00755561422780480756306032,-0.00659835119248249144657814,-0.693283262891788654158631,0.720594892841977308073353,-0.0439971028836286526253474,0.0231509507112729190358991,9.76757568434258693912398,-0.0124904425239589379065253,0.000421400846048089385703639,-0.00163811036035040632867499,-0.606991495408604198047442,0.276331313838694359041881,3.53172711631640900975526,1116.9391787000920430728,1090.78919154711184091866,1092.43891217461418818857,1116.36079067664195463294,-695.420422289085195188818,-70.8234972504859143782596,11.9778297615648430252122,153.535759891795834164441,150.046293659332178549448
127.717500000000001136868,0.545813902458828770214438,0.592175024259138371718336,-0.0294025292216252669141863,-0.0104102003209575258435571,0.0198579654073742263575841,-1.08953543391799203540532e-05,-0.00752361886260984047414269,-0.00656118939155121965595141,-0.6932807117483963388338,0.720598004874879904946283,-0.0409486517215195411356632,0.0237252431964919269224978,9.76715135892486685520453,-0.012629181234105897602138,0.000401298409084431333907622,-0.00173407135684085483146033,-0.606990286327799610788247,0.276376207380531868640361,3.53172468858199462005132,1115.36377099595733852766,1090.66783582875450520078,1092.13822053140711432206,1116.68219572427551611327,-598.045147160744818393141,-26.4755709539954082742952,-233.589449386393965824027,140.300894001429981017282,150.043730703195564046837
127.719999999999998863132,0.72453201390689725425176,0.295675061316317211446147,-0.0426605891693170036216287,-0.00820443185691186425978483,0.020824541866459472111428,-1.43380106335049566952796e-05,-0.00748803648126047764754798,-0.00652486198995490002811026,-0.693277535570646197271572,0.720601749236011612786967,-0.0375447526875316572869679,0.024305064634507517196127,9.76695797587010261509022,-0.0127323733627486695985098,0.000382940056872880445031082,-0.00184098853112349392611991,-0.606988949761734342125408,0.276421528636529023614798,3.53172098298171110997146,1113.94895296429103836999,1090.65681369234198427876,1091.27096492768328062084,1117.06229514664846647065,-553.448469161688535677968,27.1171308612584809338841,-489.573154829385714492673,192.63411004257488912117,150.041110096570434961905
127.722499999999996589395,0.846786409910400772460548,-0.0827921286514885362839422,-0.0392425688782699899626039,-0.00515307025776562920016399,0.0211386181133201289661372,-0.000187724091294314996899995,-0.00745346775358970026897909,-0.00649156156647546275090255,-0.693273153270856257179844,0.720606622272039643029018,-0.0337776018313893644506862,0.0248435127281491641149103,9.76706080816015642653838,-0.0128000809168484636080265,0.000367369941847318058365107,-0.00195715726513425542984481,-0.606988434776993490693542,0.27646513974465913854317,3.53171649422912192761714,1112.59652865015141287586,1090.80342148306067429075,1089.6903547572624120221,1117.64536627448751460179,-418.482229083484298826079,82.4153429778333475042018,-648.490135518406532355584,231.057721444139133382123,150.03790151803238472894
127.725000000000008526513,0.87134651901318171951516,-0.400502677070617929544483,-0.0124348357331180627699529,-0.00277214555313864833077653,0.0207151254522117411749349,-0.000476847311840906853529914,-0.00741969955544120526869101,-0.00646163253576193582355947,-0.693265099311718202557131,0.720614997154432002091085,-0.0297290527575854168773617,0.0253341540648676852298671,9.76752541159255471825418,-0.0128342944340048489837436,0.000355929852039111194877963,-0.00208075587935274176898393,-0.606989728945361517453705,0.276506644543793034252133,3.53171227043601554385077,1111.85654181886957303504,1091.06889040723194739257,1088.02851425008498154057,1118.21758375387139494705,-196.826265771944008520222,134.105137766041508484705,-708.250075035625741293188,228.123230593851303638075,150.035176739413230961873
127.727500000000006252776,0.823275903617899151853976,-0.699899305684080097478272,0.0463547715310199462401819,-0.000874287922110641925639574,0.0194628924511213927117659,-0.000893799903549361658347538,-0.00739320553732549217568204,-0.00643919146747889015874877,-0.693252860809122850582753,0.720627265569468655748153,-0.0253320886644416154442894,0.0257262287781452464452414,9.76841225996182771496024,-0.0128386821392690100851475,0.000349940244272207577787281,-0.00220955275490904851087848,-0.60699276856663686441351,0.276544946121448032005929,3.53170776749051062992635,1111.61239732128979085246,1091.47394717189217772102,1086.149104382077439368,1118.78598242745897550776,21.5345057969184701107679,204.239020935214512064704,-843.813507171074775214947,215.918572694878008633168,150.032401995010332029779
127.730000000000003979039,0.692486737930183893219294,-1.01186698905413718918567,0.154814975886170852481527,0.000931196301908854273676752,0.0167739819248402775853091,-0.0014294125561307847831205,-0.00737642589997372297161427,-0.00642671500697296598642039,-0.693237053574409123335442,0.720642788342493068043382,-0.0205892068020218921287068,0.0260027589924727714487673,9.76977928068804502004241,-0.0128181244101920662620264,0.000350450025877781939660088,-0.0023411837015113309487524,-0.606996688996946254235354,0.276579419220206901286474,3.53170249025791838093369,1111.96421434785406745505,1092.09008551190709113143,1083.8094467142334451637,1119.29717661734480316227,239.66647589817480934471,242.439416451400063579058,-848.783486430555740298587,132.856014251213167653987,150.029018274154253731467
127.732500000000001705303,0.527274318669985420093838,-1.21402465044548457662188,0.269385034552172053512464,0.00219972406670451920210341,0.0134701283937808946600256,-0.00171729544105632923878257,-0.00736009866911972818886989,-0.006425949518231497022136,-0.693216734941787482426889,0.720662543611147232702763,-0.0156612851643666839418501,0.0263011582492427981039285,9.77168286793325435724,-0.0127781682800338063782375,0.000358080043075076803922585,-0.00247330757278310837954383,-0.607001195706731389023503,0.276611055492507584840922,3.53169682209727620048056,1112.81072970077957506874,1092.68614425414807556081,1081.90518694992852033465,1119.4502624987144372426,444.35722018060403115669,251.766316213753981401169,-727.737995576287858057185,-21.0554932227033120284432,150.026156443130560091959
127.734999999999999431566,0.304746730455523640035409,-1.34143938822957831114024,0.387961333174558276049027,0.00330070996765021579255617,0.00940030969535042039419981,-0.00143933476103648709705507,-0.00734088917668210879513557,-0.00643657086794475509494706,-0.693194176860302380127621,0.720684375099797325248119,-0.0106461189936698785718505,0.0266488989088738276178603,9.77417290582332931592191,-0.0127245862757861677438953,0.000372769529728913574535137,-0.002603344682652326217559,-0.607006351038806291064986,0.276640263344787584731677,3.53169114988575083557976,1114.18600044875506682729,1093.34891709297471606988,1080.17075673635531529726,1119.19189915123138234776,619.394770373555161313561,276.340230416896076803823,-650.026078051178046735004,-181.819262229311618739303,150.02325476873045317916
127.737499999999997157829,0.0345989758920427561972311,-1.40612030733229764756231,0.485703566615998338917848,0.00412068725225982809140524,0.00535860760507065551211392,-0.000395772020297129663735786,-0.00732201093849829329207601,-0.00645957448606144634534187,-0.693174790050890554660157,0.720703028030805992187879,-0.00552164112209510560269621,0.0270018975171475716923197,9.77729101695788216375149,-0.0126629874439151638570999,0.00039367159709406023600925,-0.00272839843483859475353759,-0.607011167888988567575836,0.276666729459744575869706,3.53168540075573922365493,1115.9077035526445342839,1094.06784540623129942105,1078.65505655967558595876,1118.54116618756870593643,738.43484729644012531935,303.856452861741047399846,-537.767346099105679968488,-352.113068174505087881698,150.020323091703431828137
127.740000000000009094947,-0.289319241157265316655156,-1.40741964462106272648612,0.525359723379186127623086,0.00434025635761184358507592,0.00193223541486757586886636,0.00155234886650589378256915,-0.00730803028003104617610353,-0.00649573291728029050817739,-0.693160449426387659244142,0.720716639262996783266146,-0.000238401058516884978288886,0.0272961947736017618293403,9.78107175842833242995766,-0.0125984094085907927934587,0.000419346744746782384635764,-0.00284535848047292672449715,-0.607014816522733036130433,0.276690904381171387527161,3.53167863918372537668233,1117.87817468524440300826,1094.86819935728635755368,1077.48192000585459027207,1117.4313338103554542613,875.803772729285697096202,372.579895064162201379077,-420.795571881540865888383,-570.185901036018890408741,150.017358956417922399851
127.74250000000000682121,-0.72618120346187686742212,-1.35869581236013603486867,0.471534746519680691978493,0.00361645423795138630865265,-0.00144013546928419564410739,0.00468842225637904064239336,-0.00730451455990040188215318,-0.00654216747325199986240474,-0.693152348441424481784168,0.720724027316559379130467,0.00522637224309840942026995,0.0274078486293931333772633,9.78554335087981286278591,-0.0125349441808826310429392,0.000447761416337601029797472,-0.00295102151143795347204568,-0.60701702575538174500025,0.276713291583507103865713,3.53166988071544318827932,1120.28672241629942618601,1095.9307448815557108901,1076.55107870026381533535,1115.69023668238310165179,858.439683460036121687153,402.474293838306493853452,-254.43300613006107369074,-676.370425377105107145326,150.013769178281989979951
127.745000000000004547474,-1.11197867172051689799162,-1.2898308674741965074162,0.332325638947829071767615,0.00192806859848397506469742,-0.0038347259732633143247682,0.00757454795662594864563699,-0.00731626615172302572492891,-0.00659579649531954331775907,-0.693152458940375915119603,0.720723276498696607816896,0.0108917219687328648003444,0.0272256223816360540257442,9.79072735330931820385558,-0.0124754484850052461269998,0.000476395413779771197473889,-0.00304224005156813331884891,-0.607017107031078029244497,0.276734447272579342502752,3.53165935557395238575396,1122.17037310254067961068,1096.88057082647605966486,1076.2097549752054419514,1114.04948168347300452297,700.405377212792132013419,379.035833775496087127976,-45.511555208618581502833,-651.532902711643600923708,150.010753713834930067605
127.747500000000002273737,-1.48958953399842775056072,-1.19710039665277268028376,0.111269221335760726265818,-0.00116250115413684329199184,-0.00619040977083612671549862,0.00971923547394441811331234,-0.00734625957049855112662717,-0.00664923624740317627951347,-0.693161729681238236722152,0.72071351667374161653612,0.0166983598619667439333369,0.0266102182143729271146526,9.79664034177087827970354,-0.0124213046123365401796068,0.000502570786844975712047423,-0.00311624925427451092418973,-0.607015103349345608307885,0.276755234553712203826592,3.53164752522509006738005,1123.78874930236020190932,1097.82592405043146754906,1076.3235209242209293734,1112.43257216882784632617,635.096893634304365150456,387.609760768271030428878,143.619062044575571235328,-655.834656959592280145444,150.00771729770482920685
127.75,-1.89240061304353179849613,-1.05007892042629191742265,-0.192858815328935256916409,-0.00680587612178771943216571,-0.0094516722149045225009889,0.010059615753463028997583,-0.00739267482686391079471644,-0.00669167600108298669947526,-0.693181040473507148469423,0.720694024781711961580299,0.0224779553163220735534367,0.0254482855607147187559924,9.80329519134325622076176,-0.0123723139302709377734812,0.000523695527899434147035829,-0.00317090694178014803616961,-0.607011634804241584362217,0.276777345499489402236293,3.53163480185355149743032,1125.34585757070931322232,1098.81861963031565210258,1076.9278502854276666767,1110.77030839867802569643,504.158002465741617470485,316.900916501815004266973,282.650925297532580771076,-534.798675685292209891486,150.004053875596639500145
127.752499999999997726263,-2.16069502255141188129528,-0.887789612097885760810811,-0.423853448365128893104981,-0.0127274840303751111264541,-0.0124330546028572682532021,0.00828000437166220674967132,-0.00745124485351406681127306,-0.00671977710632093699211209,-0.693209223073486091593054,0.720666003428214962944764,0.0281360909710630380242691,0.0237665929285296798068039,9.81069788600930436928138,-0.0123268477400484428169181,0.000537548785803347193776314,-0.00320460270892277895860012,-0.607007319463472638787493,0.276802097393334667341236,3.53162196516639248500269,1126.30953931468661721738,1099.41042863293910158973,1077.73677555070730704756,1109.75857879040381703817,318.796547581971537965728,161.572753232764313224834,359.673640408560174819286,-308.785579182534831943485,150.000987833809887206371
127.755000000000009663381,-2.34358761491022615786051,-0.678007375408474999289865,-0.572047803899493834123291,-0.0187592082135324446368063,-0.0150918504613252336260532,0.0052784833168730855429418,-0.00751991663752990795871467,-0.00673463630832651753699292,-0.69324015206087385987388,0.720635358806385295515895,0.0336703100044217773501032,0.0216235110358909965455609,9.81884720164795510299882,-0.0122821569332611964242563,0.000542594355997504562867662,-0.00321628486577369256463332,-0.607002811957605747927857,0.276829662761050421249109,3.53160923766680623359093,1126.93984030862225154124,1099.62648339648103501531,1078.72621848747394324164,1109.22638050276236754144,204.994232384173642458336,-13.3749362936410562952005,443.435829309789994567836,-122.216341530920814761885,149.997911944871702871751
127.757500000000007389644,-2.46451858702766601894041,-0.379383776857042831487377,-0.615195448943564815458274,-0.0254591738099374451098633,-0.0171757816108309112335117,0.00160370229206119666032215,-0.00759476120314302519109795,-0.00673761184847940057529581,-0.693269041104933814168021,0.720606728724065836999557,0.0390536564463677959846422,0.0191114638604102451968636,9.827737652781749488895,-0.0122347619875685983265035,0.000537863199993921566738342,-0.00320558692594192107955253,-0.606998310570632582106043,0.276859435430099276587157,3.53159726163734477566436,1127.33451047660946642281,1099.34355395147076706053,1079.95395469726054216153,1109.14749708274803197128,86.8032600968825107656812,-200.615429683285242390411,436.799452576894339017599,54.8833229871023675627839,149.994214018144759847928
127.760000000000005115908,-2.48645704128482636363628,-0.10629376468380657971835,-0.534593290406438215178753,-0.0307387964454774557931938,-0.017873954926003157023251,-0.00097534053565387194856956,-0.00766482914034040396789038,-0.006727488861306512440974,-0.693289986262118240745167,0.720585921131794093774658,0.0441224942250211249472613,0.0163896295052010712578472,9.83736264895147982656454,-0.0121808265509179836083575,0.000523051602802164158911857,-0.00317286741678672991676113,-0.606994828395541863308438,0.276891786931712902131153,3.53158758711132625407458,1127.37385660910626938858,1098.62340624806552114023,1080.91021575035642854345,1109.50079711769762980111,-42.3230300712860483258737,-383.564439583991372728633,356.914247898072915177181,210.803468191634976847126,149.991130228304996307997
127.762500000000002842171,-2.4236385018545139047319,0.169634306231915277241029,-0.351474707101600780667638,-0.0361113350979166344845162,-0.0176152315942557265160406,-0.00266953463402877814655834,-0.00772544232577731561362189,-0.00670013809267599666497084,-0.693299659957372194085679,0.72057622598991211138042,0.048751633820411116593263,0.0134914251741957494368229,9.84771001736406148552305,-0.0121166217637649377414366,0.000498387713426492020077352,-0.00311873418015361399124874,-0.606993207678352963974078,0.276926540912741048217072,3.53158082394978523055329,1127.12289532625322863169,1097.42573175355255443719,1081.73852593674928357359,1110.20151442370524819125,-145.045629469400438438242,-545.441042361285781225888,314.432870779559777929535,324.261931333534676014096,149.988048807945460794144
127.765000000000000568434,-2.28113802754115901905152,0.431463428508543300754496,-0.109118380365585479485624,-0.0417764369178737493548681,-0.0164699722250399062384307,-0.00345501369800159342446366,-0.00777410007362599325686503,-0.00665722447221698751529395,-0.693296679826272410629429,0.720578985734258048445611,0.0529219115282078544915123,0.0105001246434155842690572,9.85876025993314897277742,-0.0120389464629406840734394,0.000464407765628456318824507,-0.00304358621274662633979236,-0.606992949803442205514159,0.276963091777711112317917,3.53157706424625095209535,1126.64862846175992672215,1095.8962010362615728809,1082.4823801042527975369,1111.1221067743638286629,-232.003670253136078827083,-668.422059199673071816505,299.990590585139216273092,407.482593699621702398872,149.98497314875143615609
127.767499999999998294697,-2.02769526467950189640987,0.661242530056034172325496,0.167052384067552739388418,-0.0475129954078377242376874,-0.0141733758490283964087686,-0.00317016502794023428968284,-0.00780825647781973729982807,-0.00660123519310209551369528,-0.693280607478001464905049,0.72059462492446568759874,0.0566197981941670980265968,0.00751152441544009757956601,9.87048814137259711287697,-0.0119454471440427444084431,0.000421789944102696299360611,-0.0029472917109131776050579,-0.606993691471980567619937,0.277001411066340630373617,3.53157662757229395822378,1125.9628769749886032514,1094.08362145755722849572,1083.2384788896736154129,1112.23892739220150360779,-321.107046571952309932385,-827.946767966821425943635,381.890994234829008746601,522.933107857236677773471,149.981909446401317609343
127.769999999999996020961,-1.58311395095062112936546,0.895117594276420014409723,0.489521461163096471835843,-0.0539636358942861826815118,-0.0105699722890165853650402,-0.00167366014321246835139245,-0.00783542924256112362224602,-0.00654084334150709361538345,-0.693257939792627619901566,0.720616721322562714391324,0.060053564128782571662768,0.00456539743744801412850265,9.88285597039309493538894,-0.0118349725253300772087606,0.000371020988206802854701694,-0.00282848427954295999348089,-0.606994543681207421315094,0.277039479506025532185021,3.53157750181353291552,1125.04309322890162547992,1091.75646719643123105925,1084.39183507542520601419,1113.73677231364763429156,-320.864069349925728147355,-852.498339999955078383209,501.11774598511613021401,566.733326447861827546149,149.978253845679859068696
127.772500000000007958079,-1.09831324888800785366527,1.06666253088261808734671,0.720466448884541477148957,-0.0587097754487635806186496,-0.00764716360975965098178975,0.000335119357856359767044302,-0.00786404361185710776283031,-0.00648600542431522226333174,-0.69323477862811089256212,0.720639215817217126947014,0.0634597652681447021993932,0.00170488789588869871227672,9.89581739823202788386425,-0.0117076167900784424563687,0.000312567126698369980152686,-0.00268452262301131523020148,-0.606994626450252816596276,0.277075177534298278114733,3.53157717900686529688414,1124.35855662823587408639,1089.82112975754921535554,1085.74406761960403855483,1115.0725940244462890405,-209.922842823747402007939,-743.668537297907960237353,655.47721662383730745205,541.059899125366655425751,149.97523040525865667405
127.775000000000005684342,-0.519296061579543444253204,1.24244291150397900835856,0.884995665667639874740757,-0.0620693277195049908367963,-0.00536584351288276698715984,0.00294950947070852804304808,-0.00789987649908209001170523,-0.00644116863292995816409059,-0.693213782103083708818758,0.72065944583505048282035,0.0669585010109849110282454,-0.00106800348233281050536192,9.9093199793530892804938,-0.0115645146928713103695596,0.000247040894459686296864148,-0.00251170288272740830151641,-0.606993858670009212019636,0.277106992101258386984597,3.53157400489240647090128,1123.99347901478085987037,1088.03812450993450511305,1087.66922115855072661361,1116.44207180927969602635,-33.9938575890155263437009,-718.578619953285510746355,987.321838382820146762242,593.649320782691233944206,149.972237812732714701269
127.777500000000003410605,0.224905289832040555797477,1.49237260364984436478153,0.987578176168759758191129,-0.0633340694637966328262024,-0.00289617045136125565718554,0.00648758139478200577393574,-0.00794298971877714296563333,-0.00640563844267246634833768,-0.693196433802607203666923,0.720675991536380844415532,0.0705169516616339919767853,-0.00374335603862498145222304,9.92330569164672127158155,-0.0114074279173788997732153,0.000175222322429324285121555,-0.00230565728500410974111112,-0.606992868901373272549904,0.277134653004192155201224,3.53156724175913083740852,1124.18858734029095103324,1086.22823665778605572996,1090.68067681151364922698,1118.04084062835704571626,206.076099161515287505608,-589.723962229654489419772,1200.5288442653641141078,564.540284019553382677259,149.968691188580038442524
127.780000000000001136868,0.827407474638115814080663,1.74603617300685609592392,0.990588974789947673826873,-0.0617762674422736579593618,-0.000447575643994088873730414,0.0092733908249164713477608,-0.00798547017394501783271732,-0.00637778278652471192211593,-0.693179830320986178904263,0.72069174975938898874972,0.0739779594581809474274081,-0.00621483782609828089293913,9.93771044572077855150383,-0.0112382391317523977480874,9.82143070637940475593741e-05,-0.00206185606516536869270428,-0.606992439302058817141017,0.277159721712175177721349,3.53155807243597896771803,1125.02385951058749924414,1085.08950469878891453845,1093.6718653798720879422,1119.26477322937489589094,488.983544247038480534684,-361.086005413709301592462,1244.35652565134137148561,450.28125794110593460573,149.965779449119281707681
127.782499999999998863132,1.33883061530713121101144,2.04043386090118694653484,0.913228153065877679139817,-0.0577546204615984465347012,0.00303810604834869445872725,0.0113542366966039396519728,-0.0080192016465298696786812,-0.00635995535107349192760484,-0.693158257637498942393961,0.720712289278959139515734,0.0772377273173832368247105,-0.00832219503775982749615991,9.95245941269946143847847,-0.0110585772079241136806038,1.73907321982409634130405e-05,-0.00177593084047499624039679,-0.606992968306791502719477,0.277183997208597154848775,3.53154746934602670194181,1126.63350506152391972137,1084.42280663071915114415,1096.9024594397646978905,1120.29224691806052760512,765.717412609879602314322,-178.844444176619475683765,1281.15643879476124311623,368.825191173954237910948,149.962921299494297500132
127.784999999999996589395,1.73057468741137587819878,2.34821990190349927374314,0.774922962952668825664659,-0.0522327616906057834444965,0.00782485438795757666519126,0.0128661330893827200588797,-0.00803786548387236919610555,-0.00635569162601754087532635,-0.693129630436170041107857,0.720739660021638806064459,0.0802347009141905764817437,-0.00991543746833434963550147,9.96746752236682986847427,-0.0108696147624011956595025,-6.58655882363349881244985e-05,-0.00144409742852701734536214,-0.606994207854057443718432,0.277208188523662912849943,3.53153613235351304666665,1128.85244657363341502787,1084.19528247790663044725,1100.07764757384006770735,1121.10889918524298991542,1003.83584629604854399076,22.2135793504119618546611,1197.06647399735288672673,270.874425822398166019411,149.960113763384384810706
127.787500000000008526513,1.94940135345993548199317,2.63646618913481800561271,0.564744914423987776075364,-0.045923087701690845641167,0.014322169658360507649153,0.0142916166071523180469693,-0.00803833867114781691620706,-0.00636103712884654622083946,-0.693093773691527581526373,0.720774102734774047007704,0.0828446822163350360401779,-0.0109956972617543113912575,9.98264256625415313806116,-0.0106720452172458461076454,-0.000150180701608441241612368,-0.00106355148501958290951919,-0.606996513005814475327782,0.277233018904755434963505,3.53152549734334719744311,1131.65268429301386277075,1084.53387452747142560838,1102.88779180976302995987,1121.64661904717513607466,1303.02084490788820403395,283.176959207820118535892,1097.12894874848507242859,175.317023891036512850405,149.957374848305164505291
127.790000000000006252776,2.01199808344380048907851,2.91599506434181332537037,0.225320282335005783735937,-0.0386156778539814213302428,0.0235102742294375013920593,0.0164794807746392012182124,-0.00802724461847522524626797,-0.00636378243472667231434015,-0.6930552276951622570067,0.720811279116446046444366,0.0849607491871721409726348,-0.0118197446065097383494091,9.9978838589768947997527,-0.0104662143741428362297974,-0.000234394523129411499334784,-0.000632515587678427349677124,-0.607000106436354158745416,0.277258607744845175790971,3.53151654873708853443759,1135.36755079818544800219,1085.61116727394846748211,1105.56329231759309550398,1121.98548430469986669777,1365.47236168632070985041,503.351992629817118540814,848.540907524373778869631,81.878961200602020653605,149.954177450831963369637
127.792500000000003979039,1.9201298883778707971004,3.07267944691564620640634,-0.128219627393359708600329,-0.0333835964388434769389846,0.0317763088831658213617715,0.0185453952848293329713769,-0.00800857074064305340943548,-0.00635107965658922302143452,-0.693018330358452505635114,0.720847081259139543796266,0.0864312146978968021127088,-0.0126194190669413758287831,10.0130872612563095458427,-0.0102523110531565035674628,-0.000317613383405162662959098,-0.000150272389954782264890124,-0.607004716302136926309174,0.277285825445746536566105,3.53151021135133724726529,1138.48004610143925674492,1087.05063449061822211661,1107.13049634738104032294,1122.05601385317777385353,1184.42851253329035898787,674.484294162288733787136,497.686314771178956561926,0.714097255104856332152963,149.951594771751530288384
127.795000000000001705303,1.72116509061132738622746,3.14350784888825574014959,-0.529586354449080309869657,-0.0292850540949663451506524,0.0400977653230854477750533,0.019542032994121757982775,-0.00798476522117257461741424,-0.00631806301554184001484371,-0.692985447621555561426021,0.720879244052059053871062,0.0871993941259321669878801,-0.0134978526871801229880532,10.0281438926087584917468,-0.0100306439408206458929751,-0.00039929661449557659518364,0.000383134806370401368065537,-0.607009918744994658723613,0.277314498678700449563195,3.53150575200962224542423,1141.28969336084651331475,1088.98358874475684388017,1108.05172389144672706607,1121.98905479097538773203,1111.5342305592198499653,934.485524219084709329763,290.178829758715608022612,-36.9715362729830019361543,149.949106014245757023673
127.797499999999999431566,1.41070973844403058095054,3.14293205798800157069195,-0.998033074760306782025054,-0.0254280515095517620216548,0.0495561110171354388120868,0.017741898320428221152989,-0.00795850991740360523551967,-0.0062649195803157198270128,-0.692960115271775145551203,0.72090433202758763542306,0.0872874905494593622545807,-0.0144928918007342852347641,10.0429423055486797267122,-0.00980191054725668663161198,-0.000479404966572192028657212,0.000967021098566888466681324,-0.60701495740209732154824,0.277343000930488303712451,3.53150238500183011325362,1144.03771725423030147795,1091.72306211170939604926,1108.58139049617329874309,1121.87115617181302695826,883.94780572328636480961,1044.30813684279587505443,130.262466421736689881072,-30.7643936004576659115628,149.946238633717797483769
127.799999999999997157829,1.12473437990828650789865,3.09008101048516792275223,-1.31229769655157313401617,-0.0228393082098351136999259,0.0569099766039012355811622,0.01363344034210960814546,-0.00792755742891234488345376,-0.00619579365319614973339757,-0.692943616914297289000046,0.720921094096583670030043,0.086709482809540799896908,-0.0155181700107135389643531,10.0573734071192184558186,-0.00956736735535984768319384,-0.000558270983341505695404794,0.00160001667905884268836014,-0.607018911488672263665478,0.277370532425496807427123,3.5315007550426238402963,1145.70943238945892517222,1094.20512942896607455623,1108.70303622355481820705,1121.83523282297323930834,542.81544620839349590824,993.190216761140163725941,18.8642054634873730378786,18.3628054638220241656654,149.943955771018664790972
127.802500000000009094947,0.84055794452411314310325,3.00770701499590664695916,-1.47874411406917505296121,-0.0208045549121406332659934,0.0637613068850567538126128,0.00830193663348990397443661,-0.00789258771871068770531465,-0.00611597026589305245436456,-0.692934205767730904135249,0.720931151652905444215946,0.0855402574046867092416591,-0.0165155373196151158965428,10.0713297692045298248331,-0.00932881997978767842083503,-0.000636458336430632386909734,0.00228012516382674777434825,-0.607021442228599217294516,0.277396138705253703093945,3.53150068249696813538208,1146.75179448527751446818,1096.68901319552469431073,1108.67571152349091789802,1121.96297019913231451937,344.871222544740817284037,1046.36063221380618415424,-14.9020752099825894987362,109.509127192284083207596,149.941791378759432973311
127.80500000000000682121,0.528452932807966013761813,2.89817526836401384571218,-1.46282724657916585186967,-0.0191097971694465414149722,0.0714640586588881632224002,0.00203912762561672634628596,-0.00785382292273088290779359,-0.00603013065839917965921257,-0.692931997567056257025797,0.720934350377383403873921,0.0838443530190300656546043,-0.0174276007622377049344209,10.084709741139324279402,-0.00908846291381075997717343,-0.000714685112877903590093698,0.00300464526066586325864227,-0.607022366262145895987601,0.277418585456071120631805,3.53150199401654507624926,1147.43378850218596198829,1099.43693259004521678435,1108.62852584750476125919,1122.38277845893571793567,191.94894975252458380055,938.649677262436512137356,-6.59696384369144350756642,203.293102773844367447964,149.939338785124363084833
127.807500000000004547474,0.308486950134240045517942,2.80766505679090050406899,-1.26281961481959270621189,-0.0183708395320011444451502,0.0778166014989222082354203,-0.00270722258248782621584128,-0.00781232736903022823710119,-0.00593716845235940475500325,-0.69293498673338360660523,0.720932620098371557126882,0.0816183390729437741040186,-0.0182909820296142736073541,10.0974202006906299544653,-0.00884859804452178648481731,-0.000793514088060462939588913,0.0037700848698476287571002,-0.607022475690280893800832,0.277437448769307037910181,3.5315055898291194402816,1147.71153923403926455649,1101.3822615818326084991,1108.6427267042724906787,1122.97943571300061194052,101.072907015805938613084,678.904806082827121826995,21.5501833863268537072599,288.726102165754809902865,149.93742027202537769881
127.810000000000002273737,0.145077806235805323309407,2.72030193547525289687883,-0.886904051662458337013106,-0.0184279985874912649590485,0.0844000093211083324273858,-0.00686581083521631795052453,-0.00776501301720536329931122,-0.00583391902065157237633475,-0.692937483927288822016521,0.720931497374170504599533,0.0787746321260316129109214,-0.0191124286054483866204023,10.1093791024203696338191,-0.00861126581495915734143498,-0.000873122184876574491778356,0.00457218132704428383006334,-0.607023161800404387200558,0.277454452830021625064916,3.53151314711285113645545,1147.93915303726453203126,1102.8314566204562652274,1108.73627676443629752612,1123.82640896976317890221,117.039406260043548968497,484.855664082247017176996,48.6998804796246105297541,375.233193155259186823969,149.935636470317490420712
127.8125,0.034553104559893264846604,2.63410506485099338291889,-0.397750701221967428722337,-0.0190300570542128802409287,0.0909373624718532447275265,-0.010234783667061625456185,-0.00770306245239742431313301,-0.00571621775970546260048355,-0.692934556015233238390749,0.720935859713467186438152,0.0751348526713009057242942,-0.0198284840217824442909489,10.1205168732521357810583,-0.00837798385158642841541443,-0.000953351506897304255654102,0.00540609682869461205534378,-0.607025275391936736113507,0.27747291548446839648534,3.5315259387142559077688,1148.29673626533895003377,1103.80653990224163862877,1108.88622610667039225518,1124.8556016787752014352,200.780693995239545301956,272.8997826317234967064,68.8794023037816032228875,446.248575753357954454259,149.933967079730507521163
127.814999999999997726263,-0.0155352950299430560276992,2.54849053946544534809959,0.162866148258590248687483,-0.0197302309455522351111512,0.0970231343747544744404721,-0.0115367965176572610103145,-0.00762791817647161078663753,-0.00558152546340581236228306,-0.692926220215989929762657,0.720945695681722842351746,0.0706927019628426911435071,-0.0204998703766255813141228,10.1307688138423799273369,-0.00814964838232125343697732,-0.00103400537961801904443537,0.00626699804700774770749305,-0.607028755745694814649482,0.27749311204894033799917,3.53154346981150180084796,1148.94305650723981671035,1104.1959555336136418191,1109.08067377595489233499,1126.05765184852793936443,356.211993378240606489271,50.3305691329324389471367,89.8347748471761349264852,555.426208312764856600552,149.932438001841603636421
127.817500000000009663381,-0.0246853315861951562448784,2.44567319430112872780114,0.807643416691533388984681,-0.0196802577854847601801502,0.103667869320856392834074,-0.00919304674212336088434672,-0.00754524586859597889976214,-0.00544064928760864575940648,-0.692915715775481166893712,0.720957736737885213074151,0.0657010816215360671233015,-0.0210601530720444102273703,10.1400750689351504263414,-0.00792666120515555551462317,-0.00111482442842866292555259,0.00715054120913112718771476,-0.607032159464774623280903,0.277512548557911298274803,3.5315637911567150375447,1150.07779623223359521944,1104.05819274790678719,1109.33539998090714107093,1127.63273272034439287381,457.99146596839523226663,-128.18463092828787353028,92.9988760071886417790665,590.69308693210109595384,149.930767273246772219863
127.820000000000007389644,-0.0078849180170084878088721,2.35580687959671264408712,1.23913930926512616537138,-0.0187654216084424917132534,0.109041783358700183903522,-0.00428195548368281476980801,-0.00745911655612770466139416,-0.00529998821377117984576799,-0.692904165649718128960899,0.720970803069879040414492,0.0603306477818067177221195,-0.0214825281224438613403294,10.148388781337661868065,-0.00770924920669360021902028,-0.0011954960377727748103982,0.00805280918154119458585161,-0.607034966631569417039316,0.277530681801073209058472,3.53158531093453831317674,1151.23301383708621870028,1103.55503237897096369124,1109.54566815599173423834,1129.01111728319415306032,465.678086774292466998304,-242.74584940721319981094,79.071968997031106596296,556.401096126916286266351,149.929512739353640426998
127.822500000000005115908,0.021679314003714825198621,2.25015837909820959339413,1.49030469587150182775304,-0.0178451470757160744751157,0.11475563159202609164744,0.00188636988717470885021377,-0.00736710106898080287207708,-0.00515873708964308726881987,-0.692891280041943002920846,0.720985197044294534585163,0.0545592873269412637071696,-0.0217472287479321679803945,10.1556784772751189649398,-0.00749757443236067494529706,-0.00127561385088597483740414,0.00897023182532494939289691,-0.607038020512023823727077,0.277549495518906119695401,3.53160797331367115603484,1152.40618666610293985286,1102.84446350087182509014,1109.73075982589193699823,1130.41473820097644420457,466.643860613309357177059,-308.202175648883155645308,70.5677496252251899022667,614.646227637299148227612,149.928402093322631571937
127.825000000000002842171,0.0766424556398453415972938,2.09070560389081139263112,1.5581278001667921984108,-0.0178074370436235654424628,0.12176853605969775729001,0.00902059833905631373862644,-0.00726402089889377836073869,-0.00501776775705924799053648,-0.692874515439890759083141,0.721003400941683247893366,0.0483542620551505319959062,-0.0217717481379102878458198,10.1619230627211578621427,-0.00729171772691840271857222,-0.00135456481915507487637229,0.0098996173138580223493932,-0.607042429731406762982715,0.277571222453401211804902,3.53163328927418485037037,1153.56623314015064352134,1102.01402150072794938751,1109.89850690411753930675,1132.08434842137785381055,350.936103305776612160116,-263.500208466542517271591,49.6784216039028976297232,602.533937817499918310205,149.927236567342248463319
127.827500000000000568434,0.147870292028625782698725,1.92645960708410957096248,1.43804422454179103851857,-0.0184154797035980151431733,0.127422511952542588664627,0.0138692645713863818568434,-0.00715336021301618638773556,-0.00487507150754430598066369,-0.692858291595042197208443,0.721021134597835788859754,0.0417675385007971744499855,-0.0216383218870848242909588,10.1671074095800513248378,-0.00709189135560584198864076,-0.00143201291209259229386674,0.0108381401737603841328728,-0.60704845447400135327598,0.277595974695265368392683,3.53166202286138819488315,1154.16086718263022703468,1101.52696245854031076306,1109.97915193391122556932,1133.42740789006120394333,136.877014497655977720569,-115.146260804354042761588,18.8657746555862715354124,517.164101498353488750581,149.926405224424257767168
127.829999999999998294697,0.248447405311253477488975,1.73740143418253101259552,1.18561277710749690683656,-0.0187593137904547568872715,0.132340839000634785671551,0.0170212148116710981771149,-0.00704152661196746649380218,-0.00473195095520944405270702,-0.692850905955330498287026,0.721030343267471063306573,0.0349457160689941037645667,-0.0214245689225514152065344,10.1712227405443442762589,-0.00689888334160040656711788,-0.00150785654168465320552894,0.0117834435341142261532976,-0.607054855139151028353695,0.277621479479817412361342,3.53169324617322155646093,1154.2506182126383009745,1101.43829019670670277264,1109.9928357773953848664,1134.67016892886726964207,-52.1986194716666389581405,48.8779304882417591215926,-4.63240332760927486788205,473.188313246849418192141,149.925719667799455692148
127.832499999999996020961,0.365001694621123029538268,1.54270726050833384412897,0.870405151352311001744511,-0.0184442266595342789503587,0.136192679910258823694491,0.0188509618615793073104214,-0.00693480335437360578126897,-0.00459067050035670901064755,-0.692856490173640371388331,0.721026977243523270466596,0.0280518499394656339873677,-0.0211951725793754486293352,10.1742679751064351023615,-0.00671447467076278971948033,-0.00158215541983494287214818,0.0127336509526292038230189,-0.607060910144588739001392,0.277644622402077934086861,3.53172558350120491255097,1153.89987408527213119669,1101.7713521109812973009,1109.95598991727320026257,1135.79334945629329922667,-238.262042425952756730112,241.308565564019971816379,-24.4075641538967218480138,415.08382663334299422786,149.925155327977307706533
127.835000000000007958079,0.481497048715048836520225,1.36284703652620686753494,0.531573018543587627604552,-0.0171839935993312181716774,0.138788807695776228445794,0.0195788962869176616510281,-0.00683537622919950117045262,-0.00445627376644224838797559,-0.692873390919726328540662,0.72101256988400208580714,0.0212358870852686898444972,-0.020918093083126296227725,10.1762502691072604932288,-0.00654142541751806007310766,-0.00165498242127039762658369,0.0136872650486858857266093,-0.60706615068144764713054,0.277662620407195470662032,3.53175779529546129964501,1153.05930800050623474817,1102.64483302452913449088,1109.87079795662566539249,1136.74558806203799576906,-461.352394210934676266334,495.486514311548546629638,-44.9316237506123101752564,380.734043164821684968047,149.924737448997973388032
127.837500000000005684342,0.595554080521729090058614,1.18203257879971013188936,0.14899815645654723716973,-0.014698899539017583684708,0.141084444925614282961845,0.0198248661413633064931616,-0.00673698281208214965615211,-0.00432901349310820318661008,-0.692897068285639461393544,0.720991540870473235358418,0.014462220488289101449908,-0.0205059062039275735722654,10.1771876548478932278385,-0.00638324755056908672845584,-0.00172641408826605950894983,0.014642784126149534229544,-0.607070388966273299935494,0.277675559349780554097009,3.5317908574876444305346,1151.59311211421299958602,1104.24878468254382823943,1109.73133179851970453456,1137.6970196721210868418,-594.087725257526585664891,656.812047201407722241129,-54.3968370969691008554037,324.691989476809510506428,149.924405550981873602723
127.840000000000003410605,0.657691367125966874773724,1.05965690723420102870023,-0.123088263814266449247548,-0.012232814235022331297853,0.142908759482294395182223,0.0195689386197439307846224,-0.00663470111385465986797438,-0.00420510793256652533333995,-0.692922966007816554245835,0.72096834028934875249206,0.00765846889146601372821976,-0.0199476736162431250720672,10.1771042514318690308528,-0.00624337811431398357481237,-0.00179663547167544976855547,0.0155984871981573493260331,-0.607073992624812652785238,0.277685134570415992349979,3.5318257298157598178534,1150.08886937422130358755,1105.92889326053318654886,1109.59881377114106726367,1138.36904800942056681379,-635.793383664200291605084,704.963710032830022100825,-52.3068621513196418959524,259.482816433009702450363,149.92427024465018803312
127.842500000000001136868,0.686817060938801349223581,0.948997456361532432111972,-0.322575779892079583799358,-0.0101070523414914358734107,0.145217669588978137706903,0.0186317323504592950722536,-0.0065285668053462241403051,-0.00408363305872183612876825,-0.692946452060987594379071,0.720947425789877249791004,0.000866621037586695619481247,-0.0192649575749936491364522,10.1760273086132571052076,-0.0061243629510130594834072,-0.0018657781333761521477127,0.0165523450135704464081243,-0.607077118124223824580099,0.277692572112618218937996,3.53186247012443299553297,1148.41414519589488918427,1107.77360323270477238111,1109.46979748776334417926,1138.99443375428495528467,-748.655544551819389198499,803.674964544328418014629,-50.4545234292895230510112,286.024603434030723292381,149.92428110556289766464
127.844999999999998863132,0.700588837536654462923025,0.799605971724826614099868,-0.457675289015583297569378,-0.00826234485223641124118643,0.148696635759370199281193,0.0165566289368232755219168,-0.00641772280235353934779718,-0.00396085384849830662856718,-0.692962042564605806838074,0.720934099174902032203249,-0.00592426329574299859181963,-0.0185062992445318777456897,10.173990577942916502252,-0.00602771355039842266637651,-0.00193381433998596717616092,0.0175018176504953687500077,-0.607080271684348082850136,0.277699682117314605722669,3.53190165472157335813108,1146.34559165146561099391,1109.94726808325117417553,1109.34654115399484908266,1139.79917102658941985283,-749.406705783757729477657,762.136773065696729645424,-36.2480185240985974814976,317.662379467235666652414,149.924461914294852249441
127.847499999999996589395,0.709518013105197464795992,0.644584015382833386276218,-0.476684255847295013097664,-0.00693977959091007789993455,0.151690469233947911043003,0.0140968615827612581137274,-0.00630008754755266922598089,-0.00383660630615215375929794,-0.692966709744850528629456,0.720931291900072213074679,-0.0126905042399087231164145,-0.0176514569646023938842561,10.1710330745931507578916,-0.00595359114722679525627536,-0.00200040262493672484772622,0.0184438952119019214381801,-0.607083868939658377605895,0.277706875492033933294778,3.53194386456236353311056,1144.66711166697950829985,1111.58428709802979028609,1109.28855739514301603776,1140.58274565161968894245,-642.853872397003101468727,596.252645450097588764038,-11.648443564195300581332,345.516189357445682617254,149.924751080371919442769
127.850000000000008526513,0.72955776590439591622328,0.455350733002728880194354,-0.408424858527239031946721,-0.00572468185148128621414498,0.153687372385691300991084,0.0114137019469766481938322,-0.00616948014188770880311674,-0.00371128923799438461064715,-0.692957811472983964407035,0.720941597229394104395794,-0.019460705899287999987024,-0.0166126979265656116169225,10.167200495976368657125,-0.00590096759156228788806287,-0.00206483292265091048639514,0.0193751244441701248044652,-0.607088672901664794245846,0.277715341802759863032435,3.53199108724198396203064,1143.13132228947438306932,1112.92853131050742376829,1109.28829893617376001203,1141.52675197337998724834,-629.018452996764040108246,514.657553393095781757438,12.399094475925860336929,449.843584368040012577694,149.925181900788288658077
127.852500000000006252776,0.773188264040465256243806,0.206181004505347986732744,-0.268222448295252768879493,-0.00440715822917456343660314,0.154297823187132310263081,0.00929559137122466794256326,-0.00602722107584741269292739,-0.00358747809754023268269396,-0.6929364626515357450387,0.72096391468916354305918,-0.0261301691579042816293565,-0.015381482257452019912769,10.1625408381921324973973,-0.00586738460669364650379443,-0.00212644185546335354880521,0.0202919438917532266031252,-0.607094725720734862406402,0.277725398481450780341362,3.53204339597395078342856,1141.52201940198960983253,1114.15757486500024242559,1109.35055286752276515472,1142.83196357346423610579,-550.026501427601033356041,390.639798835664464604633,31.1397365386539064502358,497.288387192609036446811,149.92585955906619687994
127.855000000000003979039,0.822209303036963046196206,-0.00422999329443860937888244,-0.152164310561943655342176,-0.00298961092491018898611999,0.15354754395677047695834,0.00927044979807870560273297,-0.0058753885429555065614271,-0.00346184192266356166242658,-0.692908666202133538547514,0.720992468224862848025225,-0.0326762484885996240535633,-0.0140433822398185470525789,10.1571077178217379355374,-0.00584956121937137401428641,-0.0021848398866262932691007,0.0211909430801884013373382,-0.607101374174740970879327,0.277737585640816020404742,3.53209980629576980604156,1140.38118978233887901297,1114.88173030468396973447,1109.44399761886688793311,1144.01319390934077091515,-426.412782631247353037907,241.88780592398131830123,42.6352248063200320871147,473.635725564530389419815,149.926555474800210276953
127.857500000000001705303,0.870134631520074197652548,-0.209920138997673560998791,-0.0995412020446103107396141,-0.000839950285115008757341748,0.152186352797313018125891,0.0109808487121592791152525,-0.00571892113729081854461844,-0.00333198334401148569747231,-0.692880066446635356491868,0.721021804580820768748595,-0.0390305436998189814179483,-0.0127138880086212768816267,10.150957917775265570981,-0.00584347650011574765160915,-0.00223983308373182756281783,0.0220692935563497685813594,-0.607108398290989725865074,0.27775221292676338658012,3.53215875912661037006046,1139.38995548883531228057,1115.36701389461904909695,1109.56372899155417144357,1145.20014220128473425575,-388.741421940484315200592,169.873580231905975779227,48.8930482490094533432057,460.811555326891550521395,149.927383836743672418379
127.859999999999999431566,0.903889683278657041221038,-0.419193813774032753016741,-0.131729988322512037157708,0.00179926035151966017683334,0.150980751662708051474837,0.013481346851818289470093,-0.00556521240423177993017489,-0.00319843139941655783126118,-0.692856266047205071600956,0.72104647713421843313597,-0.0450565803826248889585315,-0.0115040520071869462048753,10.1441505696734317609753,-0.00584464449075439585606917,-0.00229141328556734533497541,0.0229249350461845080584311,-0.607115699288447108195044,0.277768884746600497326341,3.5322187043758539459759,1138.43748267263822526729,1115.7310982058427271113,1109.688462860111712871,1146.31725168597313313512,-395.601573104291333038418,136.925037778871171667561,44.764774378240659302719,414.304862954908742267435,149.92831884922085805556
127.862499999999997157829,0.909450429897909029541836,-0.653463569790056153507862,-0.268951974706701846251633,0.00471675199097370580203492,0.150460321574491545648655,0.0156521280634459129810221,-0.00541369125141621682778537,-0.00306394498039383629539589,-0.692837854762528460028648,0.721065908856917459068825,-0.0507076284254856790578714,-0.0103787968301032110240989,10.1367493538317177126373,-0.00584883354099765065403638,-0.00233935520346128557334087,0.0237564743757187647743567,-0.607123156903501159931125,0.277787553342660420430121,3.53227944360710210958132,1137.41194762331565470959,1116.05163908351278223563,1109.78755286344517116959,1147.27166651605739389197,-490.853927735276499788597,155.899014318691769176439,24.2555985148996633427032,367.582868569860579555098,149.929378140198195978883
127.865000000000009094947,0.881946120284702317349002,-0.985737276688404051583348,-0.505799379760686673712655,0.007895937637558018973305,0.149852512385366454239488,0.016037308857093854341791,-0.00526388168531291035512343,-0.00292745856728752204892197,-0.69282671828942998804024,0.721078299631621510989987,-0.0560010406002952598747413,-0.00935823805648893641828678,10.12881979909647256477,-0.00585233317742476187584,-0.00238375673609985240866682,0.024562993342121156037372,-0.607131082458639337318118,0.277808609211055601573293,3.53234171499816529404825,1135.98321303395709946926,1116.51059327743769244989,1109.809740852686445578,1148.15516602882598817814,-560.460594235345524793956,195.187421176283550039443,-22.6976261642919467931279,273.704281522867290732393,149.930786759561726739776
127.86750000000000682121,0.838384371404275685613072,-1.30566639809366780156097,-0.699821354105904624987033,0.00992993354663106175816978,0.148305708135762631671994,0.0138135682870312095915644,-0.00512205607481386847312788,-0.00278975487473587680647968,-0.692828166099472952943472,0.721078501699975227268169,-0.0608412456056104944401852,-0.00853434906618411037726446,10.1204258429773474858848,-0.00585184125643361478102955,-0.00242514898494677888507454,0.0253440070301385600437527,-0.607138646777752311045617,0.2778302002032622119998,3.53240558479638533384559,1134.60964465213351104467,1117.02757618939608619257,1109.67406473262349209108,1148.64018792367437526991,-571.947487868121243081987,244.314202395884706220386,-108.590468753990165851064,137.527623995572440662727,149.932070192362857596891
127.870000000000004547474,0.786924061016729736728337,-1.64878637233871017109266,-0.811099619501216118067077,0.0116388013921473083833735,0.145246299222605707024414,0.0096521349627931383313717,-0.00499594725803197570873637,-0.00265784650560260812465763,-0.692843375389739613012807,0.721065300662931840669501,-0.06503029173269253560008,-0.00793349556020563062563866,10.1116301172512734751763,-0.00584468702805583661952227,-0.00246400953962005748315578,0.0260993977895069978467646,-0.607145140248239290059473,0.277850037294079810212821,3.53247009984668025595056,1133.1234755946190944087,1117.73216428941600497637,1109.26678850891698857595,1148.84280414880322496174,-638.94729914872095832834,351.194436025117454391875,-267.635129713078299573681,20.9489164709984372336748,149.933460899960209644632
127.872500000000002273737,0.729236889073025973395659,-2.0449151335695532338832,-0.790140543801962857983767,0.0135514094890374636737107,0.140064894555333885328707,0.00437484138773556671675458,-0.00488840243221058158573644,-0.00253244047730785031349865,-0.692871743851179444639854,0.721039254124046569138784,-0.0685384551565283162144482,-0.00759884336919242758812132,10.1024962717972428549729,-0.00582942267820307086223508,-0.00250088325234852811018715,0.02682910112687027920364,-0.607150799220652404031284,0.277867634266348861871165,3.53253505801632616822872,1131.4149081563928120886,1118.78354836952007644868,1108.33588908405931761081,1148.74493250602927219006,-574.103426953592247627967,408.468367028361569737172,-427.242664754364568580058,-94.2527058298257998103509,149.935245581829576622113
127.875,0.691192091158867705225077,-2.32678902581736579691096,-0.634991710252000185477073,0.0147921080058685816549513,0.134410842231306254523915,0.00079821713967242037632982,-0.00479502908150112715918167,-0.00241089597672171102732408,-0.692910158625810956856128,0.721003396579886213224597,-0.071492190772218494609902,-0.00751453621255634279796354,10.0930882793271710085037,-0.00580559470177142294966544,-0.00253603543473715367997934,0.027532942693752223556336,-0.607156337916754829109323,0.277884056618825148188279,3.53260160243140441949095,1130.25295845985374398879,1119.77450612455595546635,1107.1305751851471086411,1148.37154061965452456207,-361.052827027070691201516,396.570937716111586723855,-570.992563205773876688909,-210.030553734723099523762,149.936822914668908879321
127.877499999999997726263,0.665904299207429550833126,-2.51992672747604862237836,-0.362580952371911791054515,0.0157950260847518411666535,0.127257442589101404939456,-0.00129197056894625678449828,-0.00470933852089626923953514,-0.00229334175314222996067137,-0.692950872712006948894725,0.720965219936275603096476,-0.0740114775098161814526065,-0.0075955083436403739161058,10.0834679034921634865896,-0.00577311108729037548992213,-0.00256929930762006585379109,0.0282106155851078246876718,-0.607162651072301495780437,0.277899711441548458168427,3.53267031424073474354941,1129.60964402125910055474,1120.76640305809883102484,1105.48092626803304483474,1147.69477973735661180399,-118.393686824445836691666,401.405730005078112299088,-804.809891489084975546575,-362.555711398935784472997,149.93848557839820045956
127.880000000000009663381,0.641788426551805346598201,-2.62365624134841901593518,0.0407385889903450343352276,0.0172688749293728599498721,0.1177283613563536723845,-0.0019457874967771938545108,-0.00462363675877361119531672,-0.00218099725784237164286083,-0.69298788215507889365341,0.720930549642604612259333,-0.076219973747215008508249,-0.00772281492376698103230481,10.0736943253019326505182,-0.00573207709838749902148125,-0.00260029863124357305675938,0.0288616692418509068751575,-0.607169503854849801349758,0.277915012171702113796812,3.53274145698259767200966,1129.66099002573037068942,1121.78153477458522502275,1103.1065257276939064468,1146.55876206265634209558,171.276576257683728954362,316.869932334636018822493,-904.555401629320726897276,-461.149064963019611695927,149.940569635378921020674
127.882500000000007389644,0.614041706719937074865356,-2.60715986355973727839341,0.389900179010671699142421,0.018756870744491376673535,0.110259816924779041613647,-0.00117551339840959328565673,-0.00453405034400364108371217,-0.0020770506944564532704478,-0.693014060849547752773958,0.720906259804608651187152,-0.0781612243541646989353211,-0.00780489987115922517757483,10.0638225606533655565045,-0.00568249909751181257050456,-0.00262865564017164196619625,0.0294856295672245513617149,-0.607176877253436719783508,0.277930451878959206002406,3.53281526661342759609852,1130.46602690254917433776,1122.35075271977507327392,1100.95814925987770038773,1145.38903441253705750569,470.600153881669598376902,145.121159207015011816111,-845.797609000097281750641,-496.725436172297804660047,149.942373406985780093237
127.885000000000005115908,0.560182136613037950922944,-2.51367382086687918274492,0.693721447977585725652716,0.0203390592060893604653415,0.104244395521297647522196,0.000793211928532676791708811,-0.0044430242857899353986495,-0.00198425489313178811043303,-0.693026743270534040242126,0.720894892557709110469943,-0.079797450534184979908936,-0.0078458991771199748654908,10.0539028159885965862941,-0.00562420718180469021707513,-0.00265437780716700020416932,0.0300821146314621326589567,-0.607184616186739467558198,0.277945492295687823780526,3.53289155810724908590714,1132.01399079513657852658,1122.50714057061964012973,1098.87753768269726606377,1144.07513488179711202974,713.579946179255443894363,-15.8989829803121196505344,-783.719815875914491698495,-533.49897576993816983304,149.944238715792181437791
127.887500000000002842171,0.471976875292815289952841,-2.38668101423932998983446,0.921626742293258360838593,0.0219459075839423811693507,0.0992653341234979863516585,0.00373671271621787417713256,-0.00434784409314325180628824,-0.00190645822300505125498904,-0.693025563154104573548864,0.720896808869121219487397,-0.0811467074776619223808183,-0.00775778944420880273158403,10.0439826206652682571985,-0.00555725579022055271583014,-0.00267733577493443940589768,0.0306509506773587001027259,-0.60719235677429972408703,0.277959767657898537684957,3.53296970559737832928704,1134.03392663344220636645,1122.27125780487358497339,1097.0395501805016920116,1142.72153953368979273364,865.746566863495672805584,-187.197751805922223411471,-641.65853920180018121755,-531.376512884645649137383,149.946149233230727304544
127.890000000000000568434,0.331228479999627678509455,-2.24880199119500900906132,1.02466243619389940633368,0.0234766071273920622075604,0.094788975923234292109143,0.00771457533116703432496397,-0.00425103018041900725110249,-0.00184348592690315076295104,-0.69301323888548604923443,0.720909387195610262821788,-0.0822110393806940176197884,-0.0075819471173107708117378,10.0341044278943698486728,-0.00548165498226360799194357,-0.00269796271135978654384657,0.0311922441523897614468197,-0.607200039193199869735906,0.277973232287612836977075,3.53304847397161125854836,1136.34272362945011991542,1121.57115181159088024287,1095.66924498669118293037,1141.41825231737630019779,995.221213718146145765786,-396.332059024913462508266,-474.518999169935796089703,-539.856722128788419468037,149.948107461065006873469
127.892499999999998294697,0.0967430883656224954725289,-2.08983830081798860334175,0.987814731733737905194914,0.024911532419632433088541,0.0891837381332931111721507,0.0129196576589049056532632,-0.004154659949975905881836,-0.00179348083670498813745053,-0.692993253885718418771944,0.720929278216373647936166,-0.08302090945300318047817,-0.00737399999616002166380468,10.0243062546714796212655,-0.00539744348062513173980292,-0.0027168834589650480565437,0.0317063628249811546577774,-0.607207543203854949176446,0.277986506666055677161609,3.53312773232787069588312,1139.01003270202841122227,1120.28959750975081988145,1094.66695518465417080733,1140.02225592304830570356,895.444139377964802406495,-521.006091646469030820299,-267.595942070390833578131,-472.429442497989327875985,149.95050399204350810578
127.894999999999996020961,-0.147956926103165020691677,-1.96581736273276352910955,0.836757927239028309607249,0.0256149304862911438018802,0.08417890564193468427856,0.0166450694152494582667146,-0.00405391895114780038272828,-0.00175160356916328227398771,-0.69296662014642806948217,0.720955551667167626739285,-0.0837427783519648222254617,-0.00712892895569829099233772,10.014622806849345693081,-0.00530504748719520975719366,-0.00273461003408381753132517,0.0321938100496729912025629,-0.60721552607821138725086,0.27800148841102828578542,3.53320895009059610103463,1140.81994432633587166492,1118.96612135336090432247,1094.33126527634044578008,1139.05610510488850195543,570.40326319219082051859,-552.674333482196402655973,-62.8155521191424810467652,-339.06578974513604407548,149.952533984464054128694
