t,ang acc x,ang acc y,ang acc z,ang vel x,ang vel y,ang vel z,quat x,quat y,quat z,quat w,acc x,acc y,acc z,vel x,vel y,vel z,pos x,pos y,pos z,mot 1,mot 2,mot 3,mot 4,dmot 1,dmot 2,dmot 3,dmot 4,vbat
0.00500000000000000010408341,-3.08022733563756245800391,3.33948247811745080326773,1.05379598939774132837499,-0.158000319588526394465333,-0.308944032245964228522439,-0.00390531299222307776500274,0.00457676487169928012527231,-0.0103640434386493111851291,-0.97726875400001100846481,-0.211700351575282663674216,-0.193879046728832105106477,-0.0958457265399645652603766,11.7256794303332814166652,0.113629863053420779306357,-0.0591156939012502588570719,0.631970156074732170026209,3.57740112891311046183773,4.94823304647838213554678,0.229749645434021126932933,1225.71676629740295538795,1191.37849005904649857257,1215.50269670332431815041,1173.26415001793975534383,-756.379373950403646631457,313.264711454940027124394,-651.925920351459467383393,1269.58170344214545366412,150.18823691546469945024
0.00749999999999999972244424,-2.69935175702573237899173,2.97719654954076595743118,0.744454549891975236874941,-0.167060305837794492722637,-0.300264562978835913842346,0.000372258071405738133041047,0.00428245491746455635845292,-0.0100366924290270134040304,-0.977270886166465402311587,-0.2117111461689936691144,-0.193627684425920210120609,-0.0957348450093010033823404,11.7294904410291067620165,0.113759531100040098272608,-0.0598621972931320592281601,0.63660096536816779266843,3.57719838422084901452536,4.94851516248228318062274,0.231326901872141221794266,1223.82581786252694655559,1192.16165183768384849827,1213.87288190244566976617,1176.43810427654511840956,-827.836690108415496069938,574.868589043899191892706,-691.029492049801774555817,1334.02351145755346806254,150.190798341138901150771
0.0100000000000000002081668,-2.0859867343897717795187,2.5489979082945826149853,0.372010562503015784763249,-0.174592656645275734472733,-0.293394241174658843007705,0.00319642690149783952752172,0.0039933888714381174725454,-0.00971018854329732186703161,-0.977272282547534398844391,-0.211724914527504831651683,-0.193530682888351235337865,-0.0956183901471021474582912,11.733257487078764924604,0.113883265554030527200169,-0.0606066668596736066176867,0.641247289082771620982726,3.57699616042683876671049,4.94880191053794415978473,0.232910383174849799914341,1221.5775828468608779076,1194.25283300426599453203,1212.04754924307530927763,1179.93426757522752268414,-947.502861137217905707075,999.727550962097438969067,-764.604806949591761622287,1400.29315999568075312709,150.193174861965189847979
0.0125000000000000006938894,-1.34239111435366886837528,2.08257361111913930074024,0.00295583532591571019124133,-0.180349591978989393092903,-0.288277768292825919971278,0.00352308546375032461892007,0.0037105784618412370953755,-0.0093844987050523496346921,-0.977272866116537741731918,-0.211741839687826727267606,-0.193625535207646637392287,-0.0954973763778120265932614,11.7369468101575940011116,0.113996539489703618830418,-0.0613459848897398296596606,0.645914299797496038735289,3.57679488188291161421262,4.94909254328297087965893,0.23450184573633253704017,1219.08830355684085589019,1197.16028959249433682999,1210.04985786769771038962,1183.43957007652352331206,-1031.20292187245490822534,1266.81985723262209830864,-826.110003645726578724862,1328.19654273412220391037,150.195405794522486075948
0.0149999999999999994448885,-0.543315807959449004194141,1.58911134030316869569788,-0.284868278055040780039064,-0.182913737870138370933404,-0.284550266162622078613964,0.000686407518722349785367243,0.00343192125974902144044942,-0.00905825326739809720544283,-0.97727324728259856723156,-0.211759085072803027172128,-0.193870035875190083185515,-0.0953893406064113824616157,11.7405192953705590497293,0.114098611521258497258913,-0.0620786572666295333178255,0.650604936971879932450236,3.57659474721527770313401,4.94938597570540927961247,0.236103290768400392307669,1216.42156823749860450334,1200.58693229042910388671,1207.91699922484667695244,1186.57525028889813256683,-1177.54379184439108030347,1497.53260700795158300025,-933.286797198024714816711,1201.06511986291457105835,150.197469766080217823401
0.0175000000000000016653345,0.331155992198078341637313,0.979739295074332661172889,-0.465090285202500675065806,-0.181509254121146879068505,-0.281193828323200722962838,-0.00399238031113475794892098,0.00315354672419548452341753,-0.00873536200537311860458978,-0.977273978767322137883866,-0.211773905491755926044917,-0.194203905213824579156778,-0.0951848919530202813854558,11.743930911555798601853,0.114189721378593858625017,-0.0627963359205286619779685,0.655320836101158099573638,3.57639526319843170654167,4.94968124298618228351643,0.237716177975492437557392,1213.2005845976188993518,1204.64795262753409588186,1205.38342388170758567867,1189.44489567583809730422,-1157.29103200765143810713,1393.54536792752674045914,-891.919212688799007082707,854.649554590287038990937,150.199763626761381374308
0.0200000000000000004163336,0.888492857827358206712631,0.461818088995678055486138,-0.464146000377239797973772,-0.176918788718846142771213,-0.279382862552312705162194,-0.00728699030349148121205038,0.0028756935515845839096416,-0.00841947707831679909018519,-0.977274511740284457239625,-0.211788595778215932297073,-0.194654405124166485219206,-0.0948061043420327653752366,11.747132923993564901366,0.114265915768707163047146,-0.0634913392276170024386417,0.660062368713023150945673,3.57619698735305080461444,4.94997725994320525444436,0.239342695400683702633415,1210.63511307746034617594,1207.55465913006673872587,1203.45740316140268078016,1190.84849806184956833022,-976.784665432251586025814,984.038522334913523081923,-695.807498356589690047258,336.088186435836348664452,150.201529415236791464849
0.0224999999999999991673327,1.18648098006387803238226,-0.0634518440968673547164514,-0.333731309128847020151198,-0.169497031550206067596065,-0.278594395388574223026978,-0.00953294634687465447520083,0.00259210772792639728909214,-0.00811565051541147941538412,-0.977274232492373551295373,-0.211805796902320819796728,-0.195101567462446334744186,-0.0941136470285457715778676,11.750079440705626154795,0.114331580562456736060994,-0.0641527835927335615684441,0.664826919889947354214144,3.57600015954885375180083,4.95027344222229537251678,0.240983876105364480668669,1208.31666127045764369541,1209.56814523920866122353,1201.90438638992463893373,1191.12533660801727819489,-951.148659207410446470021,629.012867611618162300147,-569.530392238175295460678,-108.842814233457815475958,150.20315098553800226
0.0250000000000000013877788,1.23540656596684694790156,-0.6942678413033298578938,-0.0961762946945887570171507,-0.15984817712576271375724,-0.278895174901273579237682,-0.0106917653417322681269619,0.00229671035204446344346607,-0.0078237828651853014855222,-0.977273378960799798953474,-0.211824436506178326311556,-0.195399042913264653353878,-0.0930881206772718461373017,11.7527273812712031997307,0.11439227672142973646352,-0.0647778545640280561945801,0.669609369354041583655146,3.57580398102843632912595,4.95057044439041504801935,0.242641015033422002833419,1205.87936978142329280672,1210.69972346812483010581,1200.60975120021180373442,1190.30428399068227918178,-839.228872943203782597266,194.50500730158634610234,-373.115186797531293905195,-442.300132051286595924466,150.204937267978294812565
0.0275000000000000001387779,1.08342942074621895187647,-1.20724359103449163654886,0.106871958086156224054797,-0.154642068906372276426708,-0.280364382125196431871927,-0.00987840297778065645761814,0.00198525429087119007973139,-0.00754052224949265399028819,-0.977271711607359039319931,-0.21184576829070830839008,-0.195420878625473415368674,-0.0917965088563039571800672,11.7550374821137495473522,0.114452929875370479351204,-0.065368543117253041785375,0.67440319532859860363061,3.57560816189860197766848,4.95086905633599272391621,0.244314909357080611851387,1204.12051690574162421399,1210.54067027571659309615,1200.03881045593698217999,1188.91383594776084464684,-659.644912206795538622828,-266.200405324298230880231,-130.674219251977831390832,-625.385771006040499742085,150.206297441894122357553
0.029999999999999998889777,0.871211288027095132058264,-1.67965805440179938301526,0.244075678392864592325395,-0.154991120721684860761513,-0.28343291196287123678843,-0.00745995969314995101273613,0.00165730369407682091853484,-0.00726602296361602249807898,-0.977269075167086054278798,-0.211870504228114486799939,-0.195141731683947494691012,-0.0902446814302923505657361,11.7569738413533890764029,0.114512934587305950651093,-0.0659241378715150622147334,0.679202663168820053307684,3.57541279384229504501036,4.95116939731742089492172,0.246004728363612201746946,1202.58114522038931681891,1209.36872144150333951984,1199.95638010395191486168,1187.17735513565207838838,-642.937383468642906336754,-686.470749280169798112183,52.5430010001400589203513,-760.800919510211201668426,150.207529535328461633981
0.032500000000000001110223,0.705805518940390230753223,-2.15567342026716568526012,0.279784809242883514279754,-0.159197863520691346161939,-0.289228401311500293857648,-0.00409848104990521901885847,0.00131498972438952722689709,-0.00700528518573505839389659,-0.977264973490914234943716,-0.21190072802234818927225,-0.194615615188485913122918,-0.0883402316618328298236662,11.7585050619896662738029,0.114567669091592647112599,-0.0664385812289645105721547,0.684003441324062100292736,3.57521821669658956821536,4.95147033115867252206499,0.247708782845174363407281,1200.90582998839840911387,1207.10831652931574353715,1200.30152546093768251012,1185.10983135020978807006,-592.710400950272173759004,-912.497804711437424884934,177.887614504925124947476,-713.590266758591724283178,150.208865903356723947581
0.0350000000000000033306691,0.701226809205443224470855,-2.44318060060414676826213,0.192811583502634803499731,-0.162835433909655158402074,-0.295583172017346129667459,-0.00179178930237248491830204,0.000959492555299020790336717,-0.00675702427177322321322217,-0.977259605526417551857321,-0.211935528608645090686835,-0.193841158905581345539559,-0.0861278641140443418366957,11.7596075639451420613568,0.114615809394279913324688,-0.0669153205153825286766178,0.688800385288573902009546,3.57502499683839536359642,4.95177047023127769875828,0.249426805932538242505103,1199.61759321563795310794,1204.80623241794614841638,1200.84581817647654133907,1183.60940380185911635635,-491.042742787294855588698,-935.103781599309968441958,244.25770832021964906744,-533.824127416255805655965,150.209865375413670562921
0.0374999999999999986122212,0.815136589975875125446692,-2.58699156730339829834975,0.00623421870486440959924224,-0.163914586492127728467594,-0.302656306281330944596419,-0.000503624335285888613360228,0.000589268027872490011455364,-0.0065182238120291124267025,-0.97725369222015234793588,-0.211971670513792537215991,-0.192744379135422139182054,-0.0836754301419507517945107,11.7602652143358223923997,0.114660595691115141381289,-0.0673606555781345595068643,0.693588271266749045729227,3.57483395455303387677759,4.95206827398174542764764,0.251158049329601840149451,1198.45061627446193597279,1202.43279762131919596868,1201.52281400253878018702,1182.44071071312851017865,-436.943205434272613274516,-911.648795426436208799714,276.260049844859281620302,-417.386774197257409468875,150.21075140391116065075
0.0400000000000000008326673,0.958978240047173469129405,-2.60095783732711893776468,-0.228794898892782261334844,-0.161729727814450940925894,-0.309782764802716659158222,-0.000221118114984662788745015,0.000207050485173451725463833,-0.00628554816564160737796252,-0.977247504401117295103063,-0.212007994748278805197117,-0.191347232523934818182454,-0.0810779722693523025034423,11.7604645025413052650265,0.114700491339670584967081,-0.0677826485140106821392081,0.698363600556592523105337,3.57464531219163950126472,4.95236296135391462769348,0.252901550485100434784158,1197.43287718846659117844,1200.24798844081396964611,1202.22711842570083717874,1181.52246993087283044588,-352.184932461250014057441,-779.081613598827289024484,273.8081862432406978769,-327.105965904774791397358,150.211547093276891473579
0.0425000000000000030531133,1.03509487791190024630339,-2.46049723101937978242404,-0.468959771210479714476094,-0.156341920007746632004242,-0.31679359188628841703661,-0.00126297374334304090062742,-0.000179245619010682226282874,-0.00605688276304933766874816,-0.977240669548278817480025,-0.212046247921657965429532,-0.18979703553307863961308,-0.0784272284264517505203429,11.7601922857700440516737,0.114727143269869352737445,-0.0681887948047189135225565,0.703125117821263412309918,3.57445854392018569356537,4.95265438831108095740774,0.254656393870626551745318,1196.68969161215568419721,1198.53738955332505611295,1202.89185493375498481328,1180.80518088360463480058,-237.118036021684133629606,-596.042082280564841312298,269.945570700474604564079,-297.858870689197090086964,150.212238308229757421941
0.0449999999999999983346655,0.948033176830001211854437,-2.13484703827518274010799,-0.692153768900612531567162,-0.148764070072920306930797,-0.324779497859980170737515,-0.0041086581878149973368064,-0.000566929430320921995400951,-0.00582845951809324823444936,-0.977233293064009633788203,-0.212086016472353866557654,-0.188114311019728114304783,-0.0758237061681676927094031,11.7594393380122621550754,0.114739351144425433259855,-0.0685876793018512231903117,0.707871197765032822424303,3.5742732893180955144885,4.95294310555605576951166,0.256422224075807836385366,1196.24728700835817107873,1197.26777802941114714486,1203.57684627920320963312,1180.03317557742684584809,-70.9869867974248620612343,-315.087711046726496988413,224.84767803402985464345,-283.766563380959382811852,150.212952670178651715105
0.0475000000000000005551115,0.702768672858043452755794,-1.76328961048796628574564,-0.780461503013160862174402,-0.14370441736769054563716,-0.330364871917421754066169,-0.00767703502376368678711271,-0.000955268959708593956049738,-0.00559660250199660747744135,-0.977226001972995361732899,-0.212124487566448138853303,-0.18627711049379028218631,-0.0733533382256279786748365,11.758196374474014334055,0.114738010056359779342827,-0.0689871924926086232954248,0.712600656514804420282871,3.57408899360691467705919,4.95323011055855744189103,0.258199802392768018588498,1196.33475667816856002901,1196.96195099809142448066,1204.01609332392513351806,1179.38634806669983845495,142.133066106089131608314,36.9432984958165988587098,141.482300605593877662614,-268.624143979513746671728,150.213456051934912238721
0.0500000000000000027755576,0.308239583905417391385129,-1.34137929844209646823572,-0.739015561765306250308072,-0.141608302389108320351596,-0.333889029459272901334543,-0.0117945677048624884136752,-0.00134388672863848578423185,-0.00535685814623811529938679,-0.977219676986661900386366,-0.21215770700686603644769,-0.184253902227476645814264,-0.0711170518338705287542112,11.7564513431377957175528,0.114724315068175472531742,-0.0693955856305724233523691,0.717312790914468978442642,3.57390553334633898074912,4.95351695184120366377556,0.25998957663316935029485,1196.9579523388886173052,1197.45249452189023031679,1204.28425778223117958987,1178.69005485752927597787,400.07167267704085134028,374.489404982887378992018,74.4880809202641529509492,-320.3225158936222101147,150.213868179043515738158
0.0524999999999999980571097,-0.26110276921241193370804,-0.846692236272001075292337,-0.549797528123816103828858,-0.142440100696861138285243,-0.335688433012531872723372,-0.0158996169529165044809194,-0.00173107545057456929660233,-0.00510443131407278555961016,-0.977214727640500102623378,-0.212183909214256893882578,-0.182044649203759539846104,-0.0692320222722254824399002,11.7541866436920212635187,0.114697814045149934503165,-0.0698204522786651377019851,0.722007742999271284745078,3.57372361659827930679967,4.95380483126582493724754,0.261791119901665980673755,1198.33511504155376314884,1198.83439802300586052297,1204.38853372852645406965,1177.78473548723172825703,600.145670274878625605197,602.136473802420709944272,3.01054669334917113232564,-344.325156827699345285509,150.214260938615325358114
0.0550000000000000002775558,-0.75858735997245252402621,-0.486107826304229551084291,-0.312959947492965573356827,-0.145079719605064244580817,-0.335986296373010473459431,-0.0178000388046639923533832,-0.00211286799937380510849838,-0.00483525227791102053809258,-0.977211945572174944807387,-0.21219956514575974426684,-0.179708081276933745451529,-0.0678110265240655374352485,11.7513768374738312161298,0.114654205227546851508791,-0.07026849352059141851079,0.726686860271401946498315,3.57354391410175642462832,4.95409461761078606656383,0.263604237599600499386554,1199.95868069026300872792,1200.4631768909023321612,1204.29931051569792543887,1176.96842907339078010409,720.954363571944895738852,691.896893156899182031339,-65.4693906051761018716206,-342.658885270747930462676,150.214505348784001625972
0.0575000000000000024980018,-1.23127349701933241910012,-0.208588314845670114161535,-0.0607217516012669711322758,-0.148614461947189496759947,-0.335765710538216299863024,-0.0177054933832579489139114,-0.00248620104978515858371035,-0.00455053305297090874420585,-0.977211379075721753295625,-0.212204417642043591252232,-0.177311749622422493155582,-0.0668456877767825696778914,11.7479879692711115524162,0.114589182323457078327422,-0.0707370626360258880627185,0.731352875126378032533125,3.57336680016214858213175,4.95438694018444891753461,0.265428723018165613201091,1201.93988685941349103814,1202.2938824887903592753,1204.06118677550057327608,1176.07144106087798718363,905.415768330477021663683,779.583068641159457001777,-124.143018488848667857383,-419.870300291313697016449,150.214665124384396222013
0.059999999999999997779554,-1.74071365677295619711629,0.018994709581300818490579,0.179209714395463265423913,-0.153383974677408774223153,-0.335034437754219260874322,-0.0152628456126700073197666,-0.00285421125871943102275674,-0.00425370559842122835519929,-0.97721289733830551949012,-0.212198907897807209632646,-0.174795643481417128928257,-0.0662499909260127334276191,11.7439795494808727482905,0.114506685307131636508693,-0.0712176419171887398196219,0.736008247917739777399504,3.57319221945318954425375,4.95468157343293302830034,0.267263935226031978942274,1204.48575953191539156251,1204.36109223410812774091,1203.6785954232536823838,1174.86907757193421275588,920.400866118234716850566,690.951045674137617425004,-141.526262278102933578339,-465.360003363912483109743,150.21475948573194614255
0.0625,-2.10671470936375859750456,0.126828775522078635029644,0.285084024523849011156784,-0.157756867892898555716386,-0.334312265783108852890138,-0.0117222637051541730274229,-0.00321739056085553571870395,-0.00394658352419229377372467,-0.977216390921356037324585,-0.212183446904976646951724,-0.172156505754803873520231,-0.065992552090235023776188,11.7393009196413000694292,0.114407527536685732494348,-0.0717045880729114959439841,0.740656026727128602438199,3.57301981729323436809409,4.95497787095976960358712,0.269109079427270414530682,1206.54189119000466234866,1205.74863771716104565712,1203.3535554641100588924,1173.74464104405842590495,764.19876277091066185676,450.038154950470527637663,-111.160155492734602944438,-473.40783662061727454784,150.214756565101964724818
0.065000000000000002220446,-2.40165185040922102288619,0.168357462372367983061139,0.284476881923850011268939,-0.162644953821954929562565,-0.333887423631744839624957,-0.00823631861400647528881347,-0.00357604025666305967712244,-0.00362955552757712653771938,-0.977221596873250941683864,-0.212159187668122639625068,-0.169392621145895982959217,-0.0660801383758100185916717,11.7338927242051571653292,0.114292994307789483321436,-0.0721943507069045947721619,0.745299150436643298434092,3.57284958478341962972991,4.95527522602129977258301,0.270963672721075188309925,1208.3067533457699482824,1206.61128300886048236862,1203.1227946457900088717,1172.50203838883112439362,634.041801811371783514915,248.046688091426176470122,-61.7258350803694497699325,-509.783625824047248897841,150.214667607705848695332
0.0675000000000000044408921,-2.62579297246222109762925,0.172937861700211831239571,0.225569015979197234900155,-0.168211515045942755497421,-0.333650978261147201919812,-0.00627213160814911897117385,-0.00393400373089644248003616,-0.00330254425355662895730235,-0.977228141739904021534358,-0.212127756864355421217994,-0.166423217816228263821188,-0.0665162565737792699227526,11.7276894017889361521156,0.114170035440726180819837,-0.0726832807306648648326686,0.74993956040556919440121,3.57268166174643919674736,4.95557337747258319637922,0.272827075966769860837502,1209.7121001990615241084,1206.98887115761817767634,1203.04492628870821135934,1171.19572291493818738672,461.692066449449669107707,38.520617045151048785101,21.4344144895676258499861,-525.894870618730692513054,150.214505795051621817038
0.0700000000000000066613381,-2.74324731901601959194181,0.154026745776825013667377,0.163653047005616780751325,-0.174703100592323024020658,-0.333300289183506237566945,-0.0067468057372829732046271,-0.00429614998676985677256157,-0.00296914148924329063944372,-0.977235707219624938346669,-0.212090462937761459194519,-0.163167007624201165771893,-0.0672174547558036517003188,11.7206190747189591405686,0.114046304638396572839198,-0.0731627138087079381678635,0.754579046978530953992959,3.57251655378081078850983,4.95587171101238244119713,0.274698918523980761818848,1210.61521367801719861745,1206.80388609408623779018,1203.22996671823784708977,1169.87256403573746865732,278.716549570618155939883,-195.860121691476166461143,157.378279761678925297019,-572.419325305237407519598,150.214254537958282753607
0.0724999999999999950039964,-2.73061148867954939234437,0.129288415366820563789929,0.173707835762957618630509,-0.183474126966164441387974,-0.332803747334071031716007,-0.00948549968471495627553303,-0.00466890444532250779852145,-0.00263937819394308072901145,-0.977243861782180145425514,-0.212049008370195801731484,-0.159543772219491147845716,-0.0679465049228283601845391,11.712605762340187354198,0.113930140064735688221198,-0.0736145170065014980975704,0.759219204591920937552629,3.57235440643784718517395,4.95616956768184646620057,0.276580276030428229283586,1211.10568294691461233015,1206.00957054916079869145,1203.83181768751660456473,1168.33362628841200603347,85.5903075076641215446216,-376.536142003079305595747,290.158405517059350131603,-549.457171735594897654664,150.213848448554301739932
0.0749999999999999972244424,-2.57577779492918468307039,0.125584847191772125407638,0.290949717246767491918291,-0.19137379449757233040863,-0.332657380605790919947395,-0.0122957197978536686422402,-0.00506180617168987701665062,-0.00232203331534672208213976,-0.977252015680445285106259,-0.212005792178698859729025,-0.15540038379515277999765,-0.0684797197573935867431771,11.7035743326878893810772,0.113835312671484084612317,-0.0740218123736995359251978,0.763859241668251365275921,3.57219557796058406751172,4.95646614734085666498231,0.278472753037301679057691,1211.04316521555551844358,1204.92120538407084495702,1204.68075874582314099825,1167.12527817705949928495,-114.628142340779859864597,-519.714720428054988587974,410.915623509299280158302,-461.99485772599433630603,150.213422693912008298867
0.0774999999999999994448885,-2.27091326232014001362813,0.160941024863154841240132,0.516621411629659688102834,-0.198832590092667349512823,-0.332936230771671393124933,-0.0135404203067187485498568,-0.00547976594461114293460602,-0.00202046606987332051305617,-0.977259482006395785447239,-0.211963847140621969300511,-0.150667072046711175703493,-0.0687388947250175408321127,11.6934512773466021684499,0.113770698357218882912356,-0.0743778413670148214054123,0.768496390562933173740134,3.57204012944294824194458,4.95676083595254102220906,0.280377313989783993886107,1210.53254223521071253344,1203.41099694702052147477,1205.88639580506310267083,1166.02365199978203236242,-316.686412260059739764984,-766.083133718984072402236,597.560342577116330176068,-452.135843564792196502822,150.212906827093434003473
0.0800000000000000016653345,-1.76527131946258020178675,0.265140328380578771394482,0.849232805849978067413986,-0.205743852758436179817281,-0.333466214085590240134849,-0.0116922595262088924172872,-0.00591405832794901584886782,-0.00173011988135529691870684,-0.977265815548207239515932,-0.21192549263065527109795,-0.145549906039594723061725,-0.0688898370638114376784955,11.6821651950566618438643,0.113726857479447940324491,-0.0746932468961140350049988,0.773127053856426882383346,3.57188708149567091254539,4.95705363391898767844168,0.282295152743182953258838,1209.45973315425521832367,1201.09078971547592118441,1207.66856045870872549131,1164.86459895923553631292,-457.591260235448828552762,-940.12784464048229438049,686.770045588490916088631,-391.369708434603694513498,150.212185241084796416544
0.0825000000000000038857806,-1.27041195140089935300409,0.40454208041393230343985,1.11541972747402717835996,-0.209356416989509352966081,-0.333517724930122438919966,-0.00773908912049385989267991,-0.00634946368519346583669805,-0.00144548833872513602868959,-0.977270670682353848057744,-0.211892774919064608152297,-0.140400149981380922836749,-0.0691454623616617747305924,11.6696523855810845304859,0.113683916991241099059273,-0.0749834045981172259143221,0.777746889300290789037717,3.57173543934655679521484,4.95734437311311637586186,0.284227576092688893893978,1208.24458593403346640116,1198.71035772381810602383,1209.32024603300556009344,1164.06680345760901218455,-529.147196570283540495439,-1046.9315898171762455604,656.779110465594726520067,-279.421334624248402178637,150.211500314295307134671
0.0850000000000000061062266,-0.757795126056342693843249,0.585094521148205815030963,1.30896443775360604711011,-0.211277709061768959042382,-0.332324178178719953358211,-0.00292928568397538870160535,-0.00677422937233801512185716,-0.0011623699238036664955348,-0.977273935142936700515293,-0.211866581400740328078314,-0.135496383487100080511567,-0.0696628878448153771030249,11.655863545912332313037,0.113625552761626280595664,-0.0752617978299037621026102,0.782349670691107279552057,3.57158460632600149864402,4.95763325054554382376182,0.286175542917980196833128,1206.81399717140379834746,1195.85613176639003540913,1210.95245601103670196608,1163.46749228611429316516,-583.474582057123711820168,-1215.09415310006147592503,616.811557717209666407143,-209.32736841241401748448,150.210731597609367327095
0.0875000000000000083266727,-0.271261363372790609282958,0.783999198596092572444149,1.41848179922102279881813,-0.212156390735890681975562,-0.330010954697125546974945,0.00162842421645076318968692,-0.00717963674277637999010526,-0.000876667432227964927259067,-0.977275505474407557571226,-0.211847702883657285077845,-0.131047432395337004606972,-0.0705726155763076040683401,11.6407660237886538823204,0.113539076539455954795166,-0.0755414530169900566569652,0.786927628827998493221685,3.57143405194541418978815,4.95791971668004993745171,0.288139338278361467615696,1205.32721302374784499989,1192.63488695831779295986,1212.40430382159161126765,1163.02016661554694110237,-574.403759859934552878258,-1358.65913130233161609794,501.77549587269919584287,-155.875799349451256148313,150.209896162958472132232
0.0899999999999999966693309,0.140992908348356565939596,0.991218239165681080926618,1.42222148081460275648169,-0.211455108823364490433505,-0.327110347672280754593999,0.0056428102833617106715014,-0.0075582923039883937940675,-0.000583366956357100918152681,-0.977275342460827589619043,-0.211836631720936363620922,-0.127225271303767178965316,-0.0720095221100442994810464,11.6243447791548621950142,0.113413351573199205901687,-0.0758368170330721430572041,0.791472164341734396586503,3.57128390290892205882756,4.95820294818920981327892,0.290118745009319611849463,1203.94197837210413126741,1189.06283610987838983419,1213.4613334904001931136,1162.6881132893670383055,-545.472171429674858700309,-1611.96577621131223168049,346.927834327335176567431,-146.16759205123372566959,150.208983786105648050579
0.092499999999999998889777,0.506814819831982288356187,1.24615624580657757825009,1.31677938299491192886137,-0.208917263445147521894185,-0.323738576942934896951698,0.0102003141378611446310476,-0.00790461753258029850566224,-0.000277770772274257610103682,-0.977273886186966422862099,-0.211831605840098469162314,-0.124158994176316483937228,-0.0740811861869696275384456,11.6066029622655566555522,0.113239017311602865878406,-0.076161752854462985706796,0.795974601067843456903006,3.57113411822909387893787,4.95848316191368354566293,0.292113121145030463221559,1202.5998521665994758223,1184.57505807726124658075,1214.13894299322828373988,1162.2893286552907738951,-416.754879122754175568843,-1638.25539973408785954234,150.733195435259261785177,-165.157553978178697207113,150.207804073029194569244
0.095000000000000001110223,0.687968726363199389872705,1.4677594414759571606055,1.15434937461067410602311,-0.205875682559604089583161,-0.320669427454527589116395,0.0137773003145387901158259,-0.00821833329671285001127856,4.43318740281950268884714e-05,-0.977271808891842397315486,-0.211829612353212237696454,-0.121856070428859264431765,-0.0768480044322594202377275,11.5875628345445953470971,0.113014229207382063679965,-0.07652742631881080670464,0.800426111569064180351063,3.57098503563439351182751,4.95876144505578331234119,0.29412129498135053395913,1201.85820397649035840004,1180.87155911120794371527,1214.21499946757649013307,1161.86232551947614410892,-205.531701584368249768886,-1416.73515093316245838651,-45.5143183231939048027925,-203.672531445636025182466,150.206752852831385780519
0.0975000000000000033306691,0.746009904016202929355472,1.70359176202845086223192,0.944100617884308990213071,-0.202633507893816039446833,-0.316832285844340699743071,0.0164950164826464101830439,-0.00850328481745699776839231,0.000381669981023653108291593,-0.977269213458491492474423,-0.211830106062485701290399,-0.120253769383877107124192,-0.0802193710464296078077595,11.5672636975831792938152,0.11274205554782934513014,-0.0769336507480300607619839,0.804819368936691925675575,3.5708373445798935463813,4.95903907127119225606293,0.296142211984891823295385,1201.5721936586776337208,1177.4913823225954274676,1213.9113714016123140027,1161.27096599806259291654,-23.2038250003824728651125,-1344.75612721848733599472,-172.555093302571407321011,-297.931978175710980849544,150.205633547455590814934
0.100000000000000005551115,0.712344341739590269924065,2.00760219198326250733544,0.679399599807723464373055,-0.199804861873413674988598,-0.31156887051381843001252,0.0183416236387615137759521,-0.00876957666646451146352792,0.000726316431341153079075112,-0.977266247981150026902242,-0.211832088160459980352712,-0.119176904363024943611649,-0.0839178008832981436881937,11.5457611547979190902424,0.112433249607646570944475,-0.0773665430878505144818291,0.809148706962646735441069,3.57069097726558926098051,4.95931674059805160936776,0.298174500058045965911191,1201.74218485148844592914,1174.14777847511550135096,1213.35222400106363238592,1160.37266562859758778359,136.121928202510275696113,-1064.56726596361386327771,-200.937709283971173590544,-352.471784853832673434226,150.204214136505441956615
0.102500000000000007771561,0.641579240566107267262907,2.2818518451619840270439,0.478525057979781676120723,-0.1989408876875441434251,-0.306701968353286780200051,0.0187755509259731612203836,-0.00902682002829691999823414,0.00106973676187822452215981,-0.977263317440762779853003,-0.211833390131900528574604,-0.118461360545538713084923,-0.0876512074092764686961132,11.523123874951966882918,0.112097825583026555751331,-0.0778103319017142830427147,0.813410345162959291798188,3.57054573805512287520969,4.95959460200834456600205,0.300216554563108806163996,1202.25280329969018566771,1172.16854599277735360374,1212.9066828551924572821,1159.50860707379342784407,259.163822981691339464305,-591.078699427636138352682,-142.752908193733929920199,-356.14284864218529946811,150.202969178507601100137
0.104999999999999996114219,0.57676857848379836646302,2.57988139390519943816571,0.322356220912348501173028,-0.199173826664930136987053,-0.301206585652718739076761,0.0184057329574776780412027,-0.00927827566217790701552648,0.00140890361610526704261304,-0.977260792537108846644855,-0.211832236976159687946719,-0.118056041078683837675101,-0.0912818668563075141797469,11.4994301632023123715953,0.111738204922981088085265,-0.0782589315969143550777432,0.817602180238367282072431,3.57040240238514261505998,4.95987320671089193524494,0.302267544680703159620805,1203.0380039663969000685,1171.19238497797732634353,1212.6384594600949640153,1158.59195138538666469685,379.908432265711610398284,-190.695984052263526109527,-67.3198369708189972016044,-402.722848144959073124483,150.20166099825505057197
0.107499999999999998334665,0.53857227752749814442268,2.96175927275256078985421,0.190728579685110810615356,-0.199337366988576319970505,-0.293949593048703883280126,0.0176777334702178309799869,-0.00952426532987996066204062,0.0017416392646219379814615,-0.977258849863857914641585,-0.211827857984353357112539,-0.11796807096199282693938,-0.0947061027220986867414254,11.4747662784404944602556,0.111353129106058781894184,-0.0787076057282782431956392,0.821723818535539662910594,3.57026192646557616328096,4.96015258145830717495528,0.304327036840975617693061,1204.15234546101874002488,1171.21506607251603782061,1212.57008367033836293558,1157.49499283306863617327,417.348472111779813076282,189.484067997091017332423,5.03895424158144589199537,-396.13269965102483638475,150.200019083652961171538
0.110000000000000000555112,0.541386176841863298037083,3.29170142987426217473512,0.112710368093116089505124,-0.198938597431349201150041,-0.287311033229632306618129,0.0175773303189537995205871,-0.00976986925514610263232562,0.0020670816081323583994489,-0.97725752722308856235145,-0.211819891348551170295877,-0.118087849383416931825508,-0.0978284244582619810781665,11.4492270610388757745568,0.110950117316878746343001,-0.0791514702567612943306941,0.825774746387967439886779,3.57012524272604148123378,4.96043214848991453891358,0.306394594326215741197927,1205.1247463269558011234,1172.13980531796278228285,1212.66365423130287126696,1156.61128788713153880963,379.110829148384823383822,512.824334111973712424515,36.5150330509549903013067,-343.155292662276849569025,150.198591470495415478581
0.112500000000000002775558,0.562335281206010506593884,3.61265917435567729398826,0.0359691000525066278958874,-0.198184452111321629530494,-0.279616497152388510105681,0.0187792024788479630648119,-0.010018475995507447953714,0.00238353248172950464914277,-0.977257144256146403904495,-0.211806757501249859343417,-0.118344986240782906739,-0.100545173898412873447761,11.4229117733669145451358,0.11053411100323903837328,-0.079584893726364222543701,0.829755623244999740428796,3.56999299528752178645163,4.96071045203466809425663,0.308470654419333523144076,1206.0478996067606658471,1173.77918774307590865646,1212.75265883559313806472,1155.77921636975725050434,351.21212952631111647861,728.557702440593175197137,4.77246736959386463894361,-321.374921230380721226538,150.197103489213105831368
0.115000000000000004996004,0.575544371188741576972348,3.90184980268928249813598,-0.0607955659105048340506983,-0.196907206313289312449299,-0.270842420225409885592427,0.020546437125225927577965,-0.0102692742863263793834383,0.00269071464422164161045536,-0.977257960205602405068248,-0.211787338985237633126602,-0.118753028531798060507541,-0.102809301089335197731955,11.3959221142431825768426,0.110104145572270009645344,-0.0800058704130194725534508,0.833667953750795609479951,3.56986481551902867792592,4.96098629911139354931038,0.310555027428373375819604,1206.88080697458735812688,1175.78259383016575156944,1212.68751656815084061236,1155.00441328097963378241,303.761177461228442098218,829.965487885782977173221,-94.911945258399924796322,-292.268550132393727380986,150.195566686687641322351
0.11750000000000000721645,0.547335526271905292716724,4.11798608878191263471535,-0.18614351503764875461755,-0.194438371199171872172329,-0.260805139781860262360169,0.0215828091057623169812807,-0.0105178913072924117011464,0.00298893350511801429714165,-0.977259922176410555927362,-0.211762127593280363724304,-0.119398335518809017852249,-0.104609849699914714271642,11.3683614595246265110973,0.109653829013875686593238,-0.0804142994805934208102371,0.837513836784929077694528,3.56973979666843055369441,4.9612600197398899481982,0.312647533778587338737509,1207.56670549406680947868,1177.92901518250482695294,1212.27809910930113801442,1154.31787361909528044634,261.83301638193421467804,910.090541864203146360524,-280.327269415375269545621,-277.556950087910593083507,150.193972902284713200061
0.119999999999999995559108,0.435960429977751529051488,4.25183535787759758761695,-0.345398286408871380004371,-0.190788208678185328137644,-0.247632303484756038924886,0.0208441368691330494722358,-0.010758889663058029267928,0.00327772032653640167654263,-0.977263051986810959981256,-0.211731336336631548178389,-0.120390127289496995377505,-0.10592925608093639588958,11.3403352059048145861198,0.109174286611913487488046,-0.0808092350969972783580886,0.841295507097425843134886,3.5696171270565137945141,4.96153250558003211523328,0.314748151155354705110767,1208.18997205649702664232,1180.33304653948675877473,1211.28588022107396682259,1153.61662853054008337494,192.957785892622638357352,817.15701032035372008977,-442.002050034126057198591,-234.651828919505078374641,150.191997432197524631192
0.122499999999999997779554,0.278243921350070089193451,4.2389608396401330381309,-0.458235368285038413560528,-0.18840844380722795992078,-0.236118467333236520255824,0.0185485438510397358802262,-0.0109878899246800242062161,0.00355867835493946281857913,-0.977267285582613332017843,-0.211695494115889004671516,-0.121799292971210615377231,-0.106797301455865689678859,11.3119517495067469781134,0.108658634146636429163024,-0.0811926300615371382418672,0.845014116042988705501671,3.56949654082398915022623,4.96180416550549363563505,0.316857507480500510954613,1208.53149442352992082306,1182.01480023410658759531,1210.06808885913051199168,1153.14461447449775732821,98.9352893938302315746114,583.163152513679392541235,-538.37916592319697883795,-164.337320739559658022699,150.190301286183455431456
0.125,0.0812602796969915108782345,4.09324801420850636901605,-0.529128888073129077795898,-0.187394917503233338074153,-0.224830147252772782895391,0.0156444092306957521776312,-0.0112043804303355570145539,0.00383456765447263547147427,-0.97727191567481686007568,-0.211657885752814078905715,-0.123600945559970032405772,-0.107259123623246355183625,11.2833237582262420062307,0.108106785759507204036645,-0.0815663734761025160935333,0.848669221035946774733816,3.56937824795651481579739,4.96207504200778259928484,0.318975198839491325131235,1208.68464850346617822652,1183.24886230205515857961,1208.59398439145797965466,1152.79494192684228437429,24.7271476083824168767933,435.937256996021062604996,-653.745972227943070720357,-126.696009563374786921486,150.188556774674310645423
0.127500000000000002220446,-0.145766236249463276841709,3.78948251527702861807256,-0.572816703466859311610904,-0.18803703979753652597573,-0.21246244096946223511857,0.0133607625718287093691261,-0.0114110058697460998999862,0.00410817711845961469618871,-0.977276022460925264390141,-0.21162261499993392788177,-0.125696278853194370883628,-0.107352915272531851398341,11.2545684364606586314039,0.107523737499925498006803,-0.0819311169030598335227822,0.852259005726945018110996,3.56926282906664038563349,4.96234530744613078212524,0.321100940554646496760682,1208.65513016157183301402,1184.19448651908669489785,1206.79935899799079379591,1152.51113442668088282517,-45.2312362814154340640016,265.474388239362951935618,-619.816280251233706621861,-84.1536104006080876160922,150.186411972504487266633
0.130000000000000004440892,-0.28611042823736615448027,3.46285942561448756293885,-0.596090403463773177428209,-0.189972246242563508333845,-0.203401187373575625949584,0.0128322919322453824625407,-0.0116096062815839659587702,0.00438531560688723565100133,-0.97727893217221328825417,-0.211592635251336896873298,-0.127985874669767962785727,-0.107193436693841778750702,11.2258069585056201589168,0.106913808534951526585388,-0.0822931689864416782143053,0.85578021468338005828258,3.5691503305553329283839,4.96261496538819013579769,0.323235166473180957069644,1208.45849232205910084303,1184.57623424325197447615,1205.49490299020180827938,1152.37417387483924358094,-113.177912841638217855689,84.0254079096211370369929,-439.356725433617214093829,-38.5982472426348621752368,150.184585314090696783751
0.132500000000000006661338,-0.342722812659805864399232,3.11104323014448791440145,-0.628917402085152899005038,-0.192434757042821341643801,-0.195646670719563736673408,0.0126844926787481864643992,-0.011800323468200660248506,0.00467032619748006857379741,-0.977281094064302635615604,-0.211565822999236874402129,-0.130410150665279278570097,-0.106874453765552893114155,11.1971642336104295623045,0.106276846147751152793504,-0.082658244493118246398744,0.859229125021531814354603,3.56903986792900695945718,4.96288416107361207707527,0.325379849338289894866705,1208.08924059736364142736,1184.61461355863480093831,1204.60257537082270573592,1152.31814319046770833666,-202.283549280354975508089,-40.9746350444038043292494,-269.350740865820398539654,-9.39230612343634696514982,150.182722084613999413705
0.135000000000000008881784,-0.30850205827857130058689,2.72244610687770993706636,-0.683737949084186169557142,-0.195019594175002863867263,-0.188201116448040856043988,0.0115686829871746200970595,-0.0119839872782342878043682,0.00496075810872742117146883,-0.977283065220451607757468,-0.211539645523483532674192,-0.132921999176984301227478,-0.10634426750218874124787,11.1687694128608132615454,0.105611072682422688084891,-0.0830206978759041730464574,0.862602328852861255370499,3.56893091257938044336129,4.96315294966719555702639,0.327537310180768426182141,1207.44707457565732511284,1184.37136106802995527687,1204.14814928587270514981,1152.3272123442220618017,-270.312959195598295991658,-119.467465477919077443403,-62.7209073571065687247028,18.0488257803517448962793,150.180448920418257330311
0.13750000000000001110223,-0.212537462728746379125866,2.46688203148748774751198,-0.731803287353452902586071,-0.196414565105734184591313,-0.183470739519690811958341,0.00960627011842181410816721,-0.012158106516737826260921,0.00525246904570037496939872,-0.977284898554694803074483,-0.211514117118365013725523,-0.135550234035970273982485,-0.105539310731041849344969,11.1407542402097039513365,0.104908778191272783475441,-0.0833729122125551336264238,0.865896807082591091209167,3.56882363559331139413189,4.96342037208307829132536,0.329709209782416967637886,1206.73767580138564881054,1184.01727623124520505371,1204.28897083403717260808,1152.40838731936946714995,-324.024913273387653589452,-148.032554668134110897881,141.49009265852316730161,60.3829520035559994539653,150.178527234279926005911
0.140000000000000013322676,-0.0853210455770526537966347,2.31173848312199670118616,-0.766857677911214619115299,-0.196583384608250477665337,-0.179288333800530386152872,0.00712574073605277448495432,-0.0123186461574080041020407,0.00554303501187616842749151,-0.977286489431638982772199,-0.211490033594751103418474,-0.138344479702326494940934,-0.104448487116633098592544,11.113252729623699366357,0.104160363873257375000314,-0.0837107795516612296360393,0.869109648011305413461969,3.56871788965154745909558,4.96368576932853500238707,0.331895294949326402633716,1205.82695000929038542381,1183.63119829468928401184,1204.85559974916532155476,1152.62912710423984208319,-400.879953480716380909143,-139.41731886570767073863,265.031838976846984223812,130.708610635110630937561,150.176581597813793678142
0.142500000000000015543122,0.0345291460294997118452009,2.24345027155935961005184,-0.785288764972149277987512,-0.195554196640357141889766,-0.175001704788804834933558,0.00474915224486026181505149,-0.0124598298407640750706804,0.00583198148259933286247092,-0.977288202502804681515158,-0.211466081209092382486858,-0.141378796501056891443682,-0.103115903078181678220737,11.0863991042677163534336,0.103353740862503956643437,-0.0840347031299507885027111,0.872238889620434720839626,3.56861320479348576029111,4.96394920590141630611924,0.334093471760047555640938,1204.73327603398206520069,1183.32018963691666613158,1205.61413002892140866606,1153.06193037254502087308,-482.576334705984208994778,-84.3468775527985030748823,300.376710250067446850153,258.270592196050813527108,150.174619496796367457137
0.144999999999999990007993,0.115086667889242877382827,2.26432023160012940721231,-0.78565821155894832727995,-0.193610031526055992312507,-0.170507236863902539303339,0.00288943274209002738672769,-0.0125765574702228332543141,0.00611945344188635602378223,-0.977290147757690963459254,-0.211442072976319117572075,-0.144706752801627230864412,-0.10160179894685295032275,11.0603259054139790862337,0.10247867136949745381358,-0.0843457370134148426421561,0.875284107872917438442073,3.56850959199434392132844,4.96421104169619376023093,0.336301086631454249076256,1203.41406833576047574752,1183.20946390692529348598,1206.35748330041565168358,1153.92048006522009018227,-627.149068200836381947738,15.1662465978461824533952,261.137533620695933223033,525.99973985284373156901,150.172641727103894027096
0.147499999999999992228439,0.155777945725328353931971,2.35325318151839990576946,-0.772148690547662219785252,-0.191631940404051293036503,-0.164604717837795011536883,0.00118200791909118998329609,-0.0126708265361634899587306,0.00640520411313775551997995,-0.977292544182956524068118,-0.211416909703490196736908,-0.148229268071208702961528,-0.0999285283541712643362587,11.0351632645567452328805,0.101537348109927288986043,-0.0846417407969987795057776,0.878246019251207044042928,3.56840750303483389416215,4.96447202072855731103118,0.338516220408989987333825,1201.59753069297789807024,1183.39602086990589668858,1206.91981769702488236362,1155.69192907180922702537,-695.766627876809593544749,123.521956533841034797661,116.188368252187402163145,805.310385945539792373893,150.170255754375176593385
0.149999999999999994448885,0.157035623823031794676908,2.44188380750507505467795,-0.75111749630393420673613,-0.190799118783133686561015,-0.159003871785551087469912,-0.000176379216996855840834599,-0.0127508277312540982406652,0.00668837114632099202782278,-0.977295437696323432419376,-0.211389943462820945052627,-0.151718696177613271425244,-0.0980806109981507273642976,11.011035154058355090001,0.100543407264670620060443,-0.084917012153736912138946,0.881126866968538480229256,3.56830842935942937899085,4.96473296969688249191677,0.340737672550998405007761,1199.93523519637642493763,1183.82707368959449922841,1206.93842514167658919177,1157.94703199494779255474,-679.945000317092649311235,218.398231407945587534414,-106.501098249782344851155,1084.23231951701291109202,150.168260786129621919827
0.152499999999999996669331,0.155996345998963503731716,2.49399941907741196089887,-0.714593880081834997852752,-0.190734565480200513043485,-0.152458262291088275652839,-0.00186700841800051232054203,-0.0128240302348795465192666,0.00696638491434591316381342,-0.977298373398030051362184,-0.211362935202156626557368,-0.154975841580211659564981,-0.096014396753958841657095,10.9880529847698422685198,0.0995101824105409649146026,-0.0851627556691194054216965,0.883931718157385137857318,3.56821423813669635904944,4.96499361557322860249997,0.342963945111036894175527,1198.19780569139243198151,1184.48801202694562562101,1206.38731220577597014199,1161.1130906693942961283,-760.241773108600000341539,317.766013151776576250995,-367.957826232713728131785,1589.18372442903864794062,150.166263254340577759649
0.154999999999999998889777,0.19042504713395608240134,2.4607370524710319159567,-0.641234790167216073264456,-0.19120703692105650572941,-0.143582001972011347179503,-0.00402205877515761367479996,-0.0128952784634988014411672,0.00724012509214309700478207,-0.977300907024646003939949,-0.21133764929174350677421,-0.157848089628438853493364,-0.0937748581218354193556053,10.9663120729062146807564,0.0984488232958002779104945,-0.0853774590101770425309979,0.886667410875841666140218,3.56812527634216447580684,4.96525349359621515077379,0.345193449375119087996211,1196.13402633083342152531,1185.41590375535338353075,1205.09863601051301884581,1165.89295061709299261565,-737.197870956651286178385,339.707775405576910543459,-555.426569041309903695947,1874.35628639459378064203,150.163867914142826975876
0.157500000000000001110223,0.268987262505538782253467,2.32931340870550984689658,-0.547896028480843066965633,-0.191719709977261926203695,-0.135943204477629947524164,-0.00566284323593105407695925,-0.0129681809703852141818503,0.00751156015194005127755261,-0.977302300760377606891893,-0.21131725530377004629301,-0.160211966080481910124078,-0.0914376708803931181890334,10.9458892944602332875093,0.0973697861886270443765312,-0.0855624504063353108485046,0.889342327395354348418266,3.56804087848194306786809,4.96551181777610750600616,0.347424807186783590751133,1194.51181633660917214002,1186.18655090397351159481,1203.61017936056941834977,1170.48487210136727298959,-611.694807612092859017139,282.63602610386419655697,-642.234870754008966287074,1880.15977973695794389641,150.161876368364318068416
0.160000000000000003330669,0.407799507583321896309059,2.0903314217728357071735,-0.415475108942530813038729,-0.191812765794655615270159,-0.129088701078989509518635,-0.00740127511015398632104878,-0.0130467960554158917546586,0.00777754834748128030808001,-0.977301396054782833822117,-0.211307012648162290124887,-0.16196708558384345644221,-0.0889681681433352883336951,10.9268411827165490279867,0.0962832806060256590763302,-0.0857106041758248365924899,0.891966743338270973140425,3.56796020606893993232234,4.96576704027231308202772,0.349656996897107275046324,1193.07555229277295438806,1186.8290838858727056504,1201.88746165674297117221,1175.29374951577779029321,-575.202170310012206755346,233.749988468434622745917,-759.800090040743498320808,2047.33418997425178531557,150.159893051140784336894
0.162500000000000005551115,0.633269614929545587855841,1.71619106872803217633816,-0.213656002798479793813868,-0.190955267007939522017068,-0.122981417785780269835705,-0.00956320100438651579666249,-0.0131346603579623778801366,0.00803317994688239507550254,-0.977297625882137754871337,-0.21130952548569698068448,-0.163041748619742743464656,-0.0862931702374378634123886,10.9092029862238106829864,0.0951977868683269862204455,-0.0858132839527452062622359,0.894551463863337836812661,3.56788246210485482379227,4.96601754179896559548979,0.35189026404403128678311,1191.6358054850591088325,1187.3553008463156857033,1199.81117891036569744756,1180.72154305123854101112,-476.085746113585230432363,147.39294204891834283444,-727.115605731204823314329,1850.36371690539294831979,150.157526281090952124941
0.165000000000000007771561,0.852397459529700363134452,1.37373687445317393951427,-0.0231213059348591744301959,-0.18934203608844810129419,-0.120013807167919595020322,-0.0107007035339645104055073,-0.0132335323285533313503182,0.00827730631770483282760864,-0.977291048976483334165266,-0.211324470384041895876237,-0.163394616480477594677723,-0.0834233614773278731036044,10.8929890478916515661467,0.094119663861454427866704,-0.0858702793894717542055872,0.897106000885733223526586,3.56780691855558051983621,4.96626240200192281548652,0.354126006800102699489941,1190.69512356220502624637,1187.56604859611729807511,1198.25188362808694364503,1184.54556810030476299289,-324.745034374791146092321,44.6061791557439875077762,-556.484289764102413755609,1312.10879791255933923821,150.155567459277875741464
0.167500000000000009992007,1.07740174820062262206477,1.04781734720699226670604,0.158857981103372597475598,-0.186686621722226109287845,-0.118686494924384502991366,-0.010289064232677990265441,-0.0133414280629770357067265,0.00850953040417499681491442,-0.977282333050276452723892,-0.211348916455950386339424,-0.163070455383402368454426,-0.0803971496206711544463275,10.8781928224293178431026,0.093048418361678139620885,-0.0858848418889191361769164,0.899638756069195300035801,3.5677331189931829058537,4.96650161389529642974594,0.356366214108680856575972,1190.01208031318515168095,1187.578331742094405854,1197.02875746154518310504,1187.28208704080134339165,-238.310662874300561497876,-12.5212175368233040728683,-421.618125955501056978392,889.161478984214340925973,150.153625340235294061131
0.170000000000000012212453,1.28842345310839601069119,0.758006197059648556546563,0.305497311573553420593896,-0.18315747590028422231434,-0.117985630818366174499268,-0.00869458867912346715367544,-0.0134534192006687276094157,0.00872863484747338040647957,-0.977272620945989656249253,-0.21137796030650632395087,-0.162189968166924824988229,-0.0772436669880088022654974,10.8647890505831039575924,0.0919774331590066662744931,-0.0858599880929858672029553,0.902156746083564109461861,3.56766132349163900272515,4.96673607319532184334321,0.358612978966471984687558,1189.50357024783352244413,1187.50344250843318150146,1196.14379299830943637062,1188.99137549522583867656,-178.314544804925219523284,-23.8619981279498247772608,-273.736749940280560622341,443.732543767918798494065,150.151698909360533207291
0.172500000000000014432899,1.46794648927134452343068,0.51624875697846639432953,0.384966229459561604109297,-0.178964809602946445243887,-0.117284447036400341080054,-0.00650875095453374002268943,-0.013562571423282938909427,0.00893348723991477591810373,-0.97726334553821292416842,-0.211405482952137069307952,-0.160925233834872283278372,-0.0739984968827928357715251,10.8527369036155416637257,0.0908959729331014071318506,-0.0857991343275237711152315,0.904665117960794074036812,3.56759203740414054806251,4.96696698444667550376153,0.360867952666385494175927,1189.12050758916052473069,1187.45902175145465662354,1195.66007371184377916506,1189.50074975964093937364,-169.528218377990782528286,24.9779611174289826180939,-138.273919075345361306972,0.312205479531257601433225,150.149793405842814308926
0.175000000000000016653345,1.6440274210297274315451,0.266384782424957222701778,0.39480418318038812408588,-0.174053164280942196384672,-0.115817042724708677003953,-0.00416718710490147827701923,-0.0136655379428139676922793,0.00912531296921607545935551,-0.977255367151531828540101,-0.211427683594239190778552,-0.159370820230891940827433,-0.0707294783519085146217265,10.8419855455545111055926,0.0898004916465274249937067,-0.0857071343379150057950611,0.90716603470890233573698,3.56752581583080807803299,4.96719555166445214666737,0.36313231232733311770744,1188.65592915594356782094,1187.62833231402032652113,1195.45242340293270899565,1188.99293652262349496596,-195.402605385425886197481,121.742414799974199013377,-35.020353475283791055972,-309.127028991817098813044,150.14753333038905225294
0.177499999999999991118216,1.76476821673761974373917,0.0771103157859781979110991,0.342573236693534066699129,-0.170306745426784617025717,-0.114179382668208415085864,-0.00265007623437140196753781,-0.0137649481562504283349568,0.00930860644622643652879024,-0.977248817493118870913804,-0.211443608715729175484555,-0.157489072547478431429724,-0.0675459885139042814916621,10.8324779960078831919645,0.0886994016684585218079917,-0.0855908867847101351156169,0.909658598159888698297948,3.56746314713598788870286,4.96742317398165056374637,0.365407574389566391914741,1188.14349456223339984717,1188.06773382545452477643,1195.48497194446736102691,1187.955114614681860985,-255.088497822954479943292,250.842814351700582164995,26.3810006438690258789848,-451.488687790062897420285,150.145673563539503447828
0.179999999999999993338662,1.86724937391947287679272,-0.0972580240467152412620067,0.254202478886842497818321,-0.166647621062268352920555,-0.113243477240800777261498,-0.00164047004145581793756181,-0.0138663711074210240642435,0.00948665037372007843852195,-0.977243632804359330101818,-0.211453071655178265197961,-0.155194226430348775069845,-0.0645168811317206047917239,10.8241514466650148307281,0.0876057566371661322612852,-0.0854530574191546959950117,0.912140852133189405925862,3.56740394981421182762915,4.96765121490436456497264,0.367694374710534344075086,1187.38048666682880138978,1188.88254638577882360551,1195.58432840615205350332,1186.73549308367319099489,-404.560627269711062581337,436.150253049754212497646,23.9798808402156069519151,-473.841228560604179165239,150.143839932881434151568
0.182499999999999995559108,1.96900422350191117715212,-0.272073476094520705359514,0.147056668927347644615367,-0.161770976481776546096469,-0.114034123422120534097068,-0.00121881543759938147306054,-0.0139729846921867288667141,0.00965932387899169457579074,-0.977239674291128901373327,-0.211456529572453477694438,-0.152474162308527505516054,-0.0616490562586522530819089,10.81693650116728555588,0.086526973428282125122557,-0.0852905629136601201034651,0.914611708586262395215272,3.56734799940282698571536,4.96788010234018173605364,0.369991937631665157582006,1186.12069142588484282896,1190.24848509070329782844,1195.60487134866843916825,1185.58590847187883809966,-510.831467001298278773902,541.571290201045030698879,-32.7319176010859962389077,-306.08632026696767525209,150.141671409132868575398
0.184999999999999997779554,2.02758949940926713750855,-0.371174387086986523609511,0.0877584260914955893717604,-0.15699664059128939919141,-0.11596100913259854703341,-0.00154672148999120909890204,-0.0140830966304257877708128,0.0098285502937290342845289,-0.977236704395830768632436,-0.211455113891074186760477,-0.149416327566121831527113,-0.0590142573511367035665742,10.8107585396444552117146,0.085462532661777015907667,-0.0851057171007595508749333,0.917070855519607208705679,3.5672958978722424383534,4.9681090260767817312626,0.372298004094194556756747,1184.82632933182230772218,1191.59040283678405103274,1195.42066881814662338002,1185.20506148233835119754,-539.060474117013200157089,534.269525534409240208333,-136.866987204939391631342,14.2957780202323068152737,150.139891854742785426424
0.1875,2.04467415295513843531694,-0.412234181324555304382073,0.0901506535127805375129384,-0.151508440322584786441595,-0.118195410703063524815448,-0.00242604160865389408691106,-0.0141913525769176603053001,0.00999862031740421375314298,-0.977234412540128438706688,-0.21145041825244720312682,-0.146179051783788593876778,-0.0567498500036875963559169,10.8055393400411379190018,0.0844062033395038546768063,-0.0849069162483819944720054,0.919518995702522490276465,3.5672485117584482594566,4.96833653711022638077566,0.374609478106313398271254,1183.42538905529977455444,1192.91983271837534630322,1194.92053641264374164166,1185.6573873619799996959,-590.892940206639991629345,521.852725649614058056613,-301.727254992328823846037,398.562488522292937886959,150.138141933779252212844
0.190000000000000002220446,2.00741248014875539595891,-0.408859457368174417091211,0.181740434383049986877268,-0.14470422734173662981938,-0.120437820881859655730572,-0.00365606081271602038895718,-0.0142961016445452109013825,0.0101717808782244012455465,-0.97723234427142202651595,-0.211444540802257607836623,-0.142854620344858990188541,-0.0549315572754427994262016,10.8011997395598893234592,0.083357459326155639023348,-0.084698226113786731494848,0.921957897116181035457316,3.56720557932840698356358,4.96856131115372168238764,0.376924309217083197687259,1181.87186463078910492186,1194.19966646503212359676,1193.9120325431849778397,1187.19787392494981759228,-509.209723247658530453919,377.511432402615923820122,-430.661527451456606740976,701.998280336555922076514,150.13607727554955317828
0.192500000000000004440892,1.93150283875882888828812,-0.388066274384996579005502,0.327567955666211829690582,-0.139530248764102943193066,-0.121556477556130096417952,-0.00423460176750527564348836,-0.0144013719962340740188278,0.0103479970121189424059338,-0.97723029436590858054501,-0.211438153322809574419239,-0.139426724554084502383233,-0.0535573805391953358667756,10.7976605367044147243405,0.0823245098019404902833784,-0.0844785674388391222278116,0.924389995136995712421424,3.5671659299233686724051,4.96878250880190108773604,0.37924226996561433145061,1180.87934043906147962844,1194.80738988038842762762,1192.76722877538645661843,1189.16737876366278214846,-292.687737122741680195759,117.7797506496516604102,-498.807997784251256234711,860.652119408313524218102,150.13438668317675706021
0.195000000000000006661338,1.82395987939465653582261,-0.388115406698387732653543,0.519341221991179713413089,-0.135168230304100162042502,-0.121522244949117438905795,-0.00360308729876073017411864,-0.0145107485042344462600195,0.0105277262120479098844728,-0.977228600816465897693774,-0.211429426199794157081868,-0.135885059327368579173978,-0.0526325024838457389275703,10.7948409923833246182312,0.081314023360375381477283,-0.0842492090925448661176134,0.926818229631134804513692,3.56712846260657601149546,4.96899993330077194286787,0.381563387762337113962019,1180.4084259451753950998,1194.78856521828038239619,1191.41799255426371928479,1191.50113452199138919241,-77.9191407071720476551491,-116.579996467771607626673,-551.206103907361011806643,926.048770165379323771049,150.132727726330500672702
0.197500000000000008881784,1.70405085262850164440351,-0.430806932361718242230353,0.71932464931347162018227,-0.131244771252738312572461,-0.120732325044630162125259,-0.0017373337421959251375414,-0.0146256362375617246507353,0.0107130011685561913475917,-0.977227731154758361142854,-0.211415997772758101902468,-0.132255647653621410952951,-0.0522007212034172746184524,10.7926590370218029590887,0.0803285999330970862386536,-0.0840160108176902509224959,0.929245584464042817529617,3.56709238717235699311914,4.96921344338657622330402,0.383887701507505507692031,1180.48974473552561903489,1194.22448989804956909211,1190.01119825584964928566,1193.79762261448968274635,183.631926724501511216658,-341.537537818657881416584,-549.159791680085163534386,826.682008612578329120879,150.131095298149517702768
0.20000000000000001110223,1.58318622652447782428453,-0.535002331163272226710603,0.89323844914801786565306,-0.127543236124416925481029,-0.119990366040871307418136,0.00120071511281664511719414,-0.0147477664626303912875915,0.0109067630002850565751338,-0.97722780246008267290847,-0.211397052790118833431876,-0.128549781929103879019038,-0.052319836063097223399776,10.7910329430396050298668,0.079371371848609692523091,-0.0837867651796626450311223,0.931674465329968337634625,3.56705706003211275856302,4.96942279252224494712209,0.386216244312003353922336,1181.32658557879790350853,1193.08087752918709156802,1188.67219359586329119338,1195.63454456505428424862,549.896604592185667570448,-595.880554336553700522927,-543.515332586957356397761,618.039891471289024593716,150.129495089602556845421
0.202500000000000013322676,1.45023498214246671089711,-0.708234083551904092246332,1.03993725927788238649896,-0.123474389282315244464883,-0.120235817497240368711964,0.00516025859776507618559283,-0.0148770732691274228109979,0.0111113694507270627243045,-0.977228938495961152455038,-0.211371901023300279298667,-0.124813606118095804520252,-0.0530383270415694732524692,10.789881410312485598979,0.0784414099616304177908788,-0.0835692473973606020365423,0.934106901542380518854714,3.5670224631889020372455,4.96962788951401357451232,0.388550322549149007578251,1183.23922775848654964648,1191.24508712636679774732,1187.29362159291486022994,1196.88782207184613071149,845.171785362617015380238,-712.293083480471295843017,-451.970664812096913465211,268.330252533905650125234,150.127612231586766711189
0.205000000000000015543122,1.35621841327544356836654,-0.853666402506791377469142,1.10131164534019587719627,-0.120599353855449356598406,-0.12168891898402117712763,0.00819739683654301110049545,-0.0150107550238667633579759,0.0113255384292078598029718,-0.977231300812404501954234,-0.211340063986468484902304,-0.121160396965443784011995,-0.054335143754262904547403,10.7891240850082983371294,0.0775308898287413172933924,-0.0833656504922263563717166,0.936545044594377595892354,3.56698906198659493327341,4.96982868061459015507353,0.390890636203827135375377,1185.55244450561099256447,1189.5194121117847316782,1186.41234027180280463654,1196.97619582772381363611,1050.08988713361668487778,-686.071794061808191145246,-288.561045276946686044539,-162.314977287905861658146,150.126074343489449347544
0.207500000000000017763568,1.28177147699843985151347,-0.939741453701183893088,1.10099603437630211288933,-0.118138714268460787160109,-0.124484132399937608148832,0.0107670592584232904104224,-0.0151447427043331847573704,0.0115429562107973344986522,-0.977234536586808033575835,-0.211303796596779613903294,-0.117745414955841676274417,-0.0560857995420886851212217,10.7886834033013272460266,0.0766276458684666539333818,-0.0831687409347351691568662,0.938991184190254180030877,3.56695707140507334287349,4.97002528049020675382508,0.393237293188416714428968,1188.48967719415463761834,1187.81472815605775394943,1185.85081636653012537863,1196.07624718540660069266,1389.54223268988880590769,-703.070755004686020583904,-177.680073070724489525674,-579.266958888140834460501,150.124568700655856900994
0.209999999999999992228439,1.20540480423725782088695,-0.907030346377556750958604,1.03571720801958555568945,-0.115406123540798308257926,-0.129086746508008942679879,0.0138457997429704913333603,-0.0152762895666795593674347,0.0117563943963485649513157,-0.977237708956810946503424,-0.211268007170353044887889,-0.114691534970287972727832,-0.0581378395628592697930159,10.7884877527452847090217,0.0757215603324543629071286,-0.0829680451216316533491479,0.9414466483471546354167,3.56692645494328441913012,4.97021830922567353638897,0.395590167351003052509384,1192.50015566906040476169,1186.00405833676131805987,1185.52393990644918631006,1194.07986103328312310623,1507.15260359452963712101,-602.790496468972492039029,-73.3726567289980948771699,-833.558569306255094488733,150.122799176825424183335
0.212499999999999994448885,1.13596759484182596722235,-0.733209904215859409326583,0.931568419530469760125868,-0.113205107962620440953394,-0.133225558629924384357324,0.0163957961112754478649745,-0.0154025181600346075527774,0.0119622804859847824132668,-0.9772397217085531107017,-0.211238159555924120969195,-0.11209782667348014428832,-0.0604130439210305222874631,10.7884730992200381649582,0.0748034634789305069579868,-0.0827588994121051940711098,0.943911120839220019185234,3.56689698798401355617216,4.97040891009185337168219,0.397949509372017840025393,1196.02544021212725056102,1184.80077567371290570009,1185.48395308288513660955,1191.90845433887534454698,1389.35395757443870934367,-401.066723811208817096485,15.263365149121440822455,-909.016412879645145039831,150.121355819137789922024
0.214999999999999996669331,1.03011092123069780690514,-0.399228106922137060408318,0.782517714531764885244058,-0.110597037591750213536557,-0.136371141226679148950041,0.0184911523021503709784952,-0.015519978539810104847807,0.0121612570632126902603343,-0.977239574151775203247894,-0.21121909815037936963833,-0.110045740840158279283401,-0.0629213511276164039198733,10.7885839347938379262359,0.0738645140373765801689032,-0.0825437849358018754797328,0.946382637968277706796982,3.56686860215283640940243,4.97059827402581078104049,0.400316126090229096323725,1199.44692545693260399275,1183.99872471770527226909,1185.60025673219479358522,1189.53477896888489340199,1308.91609946597668567847,-247.961685829932093838579,62.9101326658200719066372,-942.619927270515404416074,150.119945462487919485284
0.217499999999999998889777,0.867315269201857641512277,0.0484697713235174298951335,0.602838684412439040904985,-0.107331277366695301833666,-0.138007029884589599300071,0.0200855677008177045672621,-0.0156266551630954847462718,0.0123554325865137051843057,-0.977236629783101773405463,-0.211213806263356840275947,-0.108569114043057690643934,-0.0656938922551552062500946,10.7887741117344297947511,0.0728988807833976931727094,-0.0823266943611650203749264,0.948858028514016904608752,3.56684175635619604705084,4.97078706681818616175406,0.402691191964764771960006,1202.57002070945713967376,1183.56096724456324409402,1185.7985037462142372533,1187.19535470252276354586,1136.01953636075359099777,-87.155251884450919419578,97.456763134050476082848,-897.074761255134148996149,150.11856314418707825098
0.220000000000000001110223,0.611396928467870859336131,0.58773241181994007042988,0.394059251253320363961308,-0.103846106525691067590245,-0.137453591455531098919352,0.0211207811025666235271725,-0.0157219615917612680344728,0.0125451456655263568484848,-0.977230879158885290536318,-0.211222364537210993695737,-0.10766926983463587230716,-0.0687149368724222220361497,10.7890065999222937165314,0.0719025937769466466642498,-0.0821074145071520045124913,0.951333806658982150672443,3.56681734967265562374905,4.9709753750369394253994,0.405075665711521537559747,1205.12702313873637649522,1183.56294845828301731672,1186.08754054786504639196,1185.04940516260921867797,961.391157125762219948228,93.7359772238777679831401,160.056192834417601034147,-884.833448035441620049824,150.117215754297291141484
0.222500000000000003330669,0.192564071335910830251592,1.26949604484856615194133,0.11778230451330631844975,-0.100758406156141344656163,-0.134157020657222819659538,0.0217746332262648972788455,-0.0158045947845655114505359,0.0127296693077859016801634,-0.977222808518528274213111,-0.211242678356618251989119,-0.107358143165636937821361,-0.0719476807814919822048338,10.7892527449768387270979,0.0708701716102273643338449,-0.0818838230468813405016348,0.953806671106658399139633,3.56679636015584655694965,4.97116284196944224760273,0.407469738456739505316762,1207.37697649508595532097,1184.02964713068263336027,1186.59878471038632596901,1182.77118746234555146657,680.997815637373946628941,237.145551222874729546675,229.262349609052563437217,-789.374040079155065541272,150.115641106121415759844
0.225000000000000005551115,-0.229008352783695356968963,1.81668025930203902440496,-0.129591261506390775792852,-0.0997680536731808675909861,-0.129478403482065018703651,0.0218721477177877370035031,-0.0158730875782835956222527,0.0129069783411225845470849,-0.977213359745093157471274,-0.211270642446648670986775,-0.107648908209338117769605,-0.0753272413696296772034344,10.7894916938489036084547,0.0697956558766100881863181,-0.0816514824238740027917416,0.956273967249550937985703,3.56677930440246804266735,4.97134889535506196978076,0.409872434668479779240613,1208.53201221692324907053,1184.74867621439739195921,1187.23385229591031020391,1181.10253496221343993966,320.570149174954792670178,338.875354349010819987598,311.364877462801530327852,-633.564103225489247961377,150.114365713575153904458
0.227500000000000007771561,-0.679769730371268088298109,2.29627476299449995167379,-0.389504567641064503025206,-0.10074509825468468127152,-0.123543610014979363120879,0.0216047799845814625374629,-0.0159275374757879978337982,0.013074173859218241391944,-0.977203606726775753088532,-0.211301482359063652616271,-0.108519299989349088386703,-0.0787626619737866739967558,10.78970977669527719911,0.0686761844278115929363082,-0.0814038424234275470592337,0.958733858808086147895722,3.5667662684093599523294,4.97153320662046116495958,0.412282260949724033149977,1208.97982724096073070541,1185.72402390242768888129,1188.15560909770033504174,1179.60336694621810238459,57.5617672385305425564184,465.731609208387055787171,471.014751611573558420787,-637.599539717984384878946,150.113130789965282474441
0.230000000000000009992007,-1.18902654000728702499146,2.76199616090740329710229,-0.704863733382579682462676,-0.10411914383919419757607,-0.115540935893468546535878,0.0207687343005083166480595,-0.0159710142680534739056952,0.0132294444363044820522912,-0.977194195810587751260812,-0.211332115202020276445438,-0.109875020736428463674628,-0.0821732204082964018398982,10.7898995796720100770472,0.0675157064260510364483991,-0.0811353379325825962986585,0.961185104178014060316571,3.56675701745422024657728,4.97171550396028294471762,0.414698454049883480365679,1208.819821053115902032,1187.07733426043932922767,1189.58892605396817998553,1177.91453726362351517309,-152.376580539976060890694,509.820598467512809293112,562.570737534405907354085,-606.79408209934933893237,150.111698283672495790597
0.232500000000000012212453,-1.54236094362668541002392,3.04677222291608496007598,-0.955504049070172278845803,-0.108456740125119369122508,-0.108282661475677166595943,0.0194038938573011764121556,-0.0160104936051650645345568,0.0133727534339945965807805,-0.977185344959390800312349,-0.211361036738626939524011,-0.111528272358644819917117,-0.0854979292327854856203828,10.7900584535400785313186,0.0663269513327437582050905,-0.0808425523446786170600475,0.963626996560139614800278,3.56675103721207831242168,4.97189508797037937881669,0.417120876710601551362601,1208.21794433826084969041,1188.27312689476525520149,1190.96846278537236685224,1176.56939653572135284776,-308.731828889540054206009,475.14607742523327260642,549.145639844118250039173,-518.536268209345053037396,150.110547274249967131254
0.235000000000000014432899,-1.78307280818639712904883,3.21829725843727665335336,-1.16556346612620620462053,-0.113889085107376247796296,-0.100774225228143915478185,0.0169632889586517898727891,-0.0160529346701016144283169,0.0135070473196204875188098,-0.977177030081776032410801,-0.211387673269425202526861,-0.113276151197288621474968,-0.0887375345849810426290816,10.7901854131216676790928,0.0651243967742872464921078,-0.0805283327096736334382854,0.966059600254725925339017,3.56674805778427783664597,4.9720713334289481366568,0.419548805069526298261451,1207.27616190866820033989,1189.45306464756549758022,1192.33465425318877350946,1175.32185592257678763417,-457.80738953949327196824,504.169315772878235293319,534.783499935019335680408,-500.6602854888110414322,150.109442040105875548761
0.237500000000000016653345,-1.92364215602805899152372,3.29010366066753690006408,-1.33110794568728807441005,-0.12093738464306161284334,-0.0915906624697087751174607,0.0124906499421730821097754,-0.016103331236748466559483,0.0136367625606098642754294,-0.977169260676440387669572,-0.211411341077792774845179,-0.11494959472597160443641,-0.0919301912531679255025097,10.7902783902568071283667,0.0639197361151396248324374,-0.08019995412215616403806,0.968484183973175483117757,3.56674777929489916772354,4.97224412684189331912421,0.421980846236238715807332,1205.92890739056338134105,1190.79397347362964865169,1193.64238028504746580438,1174.06609510827729536686,-505.188129868386170073791,478.037728806250413526868,378.963950671461077490676,-393.138682612563570728526,150.108169715722510773048
0.239999999999999991118216,-1.92428848225428694718175,3.23504109634344549917273,-1.37244983768892936382144,-0.126587797677968627585443,-0.0834679508746828807685958,0.00764869036386884790235108,-0.0161665827443295065379836,0.0137645529274473665121148,-0.977162365725315673614659,-0.211429991746236389804636,-0.116389757601828791599985,-0.0950720806371627702446858,10.790332907491487546281,0.0627238135948518932272222,-0.0798622237667913070779946,0.970903452372507635992349,3.56674949275231201184511,4.97241330690923089008493,0.424415706375069756717267,1204.75022125932628114242,1191.84325329159673856338,1194.22947400654607008619,1173.35616250951397887548,-456.42624866832403540684,409.279796574766919547983,92.3133232874538123269303,-179.882107083631979094207,150.107154775206254271325
0.242499999999999993338662,-1.83326858607343012863566,3.05850450358139891449127,-1.30397449309693636010365,-0.131361236479311305203055,-0.0748108910030753360143052,0.00272576477717886020771254,-0.0162463807930979878269007,0.0138895585416001342976555,-0.977156633461570556242748,-0.211442080370765672636679,-0.117480973083491507802378,-0.0980867052578843073851189,10.7903404721335594018683,0.0615440396436446185424174,-0.0795142896113194552754067,0.973321559527375534948135,3.56675295748887322133669,4.97257822865052911964767,0.42685254460528443409828,1203.64677614722177168005,1192.84037245650347358605,1194.10394690148473273439,1173.16668457285913973465,-412.376563736551929650886,392.225916205188354979327,-176.121205544313681912172,31.0328250095153350684996,150.106186864980458040009
0.244999999999999995559108,-1.69708593335830570936196,2.78833629224424051074038,-1.15822003210117885352304,-0.135190094378664277252611,-0.0663153555665959987264202,-0.00107212532874107120163532,-0.0163438582747347724288822,0.0140085707909749918043119,-0.977152189760598366419231,-0.211447157387127993022347,-0.118175022153543335390324,-0.100855675966769878226792,10.7902877761940398926299,0.0603823394167382968000801,-0.0791520927140965252499782,0.975743436572073741253064,3.56675864127008512838302,4.9727385462097615231869,0.429291074989389676019869,1202.68833844064351978886,1193.80438287262268204358,1193.34886797882450082398,1173.51132663456155569293,-332.614620393132724984753,373.964246568402472803427,-430.787305727289606238628,278.416314915830071186065,150.105257601030189107405
0.247499999999999997779554,-1.54282990003188480443441,2.4336804372853420019851,-0.954996886802580213782221,-0.137908604023511599523388,-0.0591816024148793182191319,-0.00290582265781719282365936,-0.016455859556599818083189,0.0141205853682061822917948,-0.977149070857420753988265,-0.211445367215842727759423,-0.118507515423790982245222,-0.103322191939701324425727,10.7901566660314394141551,0.0592335525238139315451491,-0.0787775467521716343810567,0.978173458150860541948646,3.56676681324879174539433,4.97289464854279472660892,0.431731935666977428844859,1201.98370304525610663404,1194.71019368934548765537,1191.95001037284828271368,1174.55876614743829122745,-236.493820769964969485954,370.275178084738968209422,-695.231124155224620153604,618.188665761908282547665,150.104374109617708654696
0.25,-1.36782875759850841568266,1.9700569516405033176909,-0.690585337589910808198113,-0.140348970032387387885109,-0.0530551229433080112629639,-0.0037380901064451941412381,-0.0165750905364320591517391,0.0142291934884037421515934,-0.977147119329703106593854,-0.211437760403797747610355,-0.118584564280901527677514,-0.105541417789319622033695,10.7899251381279572825633,0.0580866076348549448260528,-0.0784028690445298936939622,0.980614392029290460328639,3.56677746285893082500706,4.97304685919025146745298,0.434177118172967890785685,1201.50586933679369394667,1195.65575876304637858993,1189.87271235804837488104,1176.60226996337109994784,-108.822015138275574486215,306.679355460391604992765,-758.637302497071914331173,863.419645504654113210563,150.103365380282582464133
0.252500000000000002220446,-1.23482911007640239198224,1.60103408454652473835722,-0.472831633304537257700417,-0.142253047093948009615971,-0.0498062707606689233919006,-0.00416063913169259069063655,-0.0166912796546824226950889,0.0143400315813745921761369,-0.97714610085391817584366,-0.211425836564969632513922,-0.118570390488283244900813,-0.107621872301270279925767,10.7895688646322778225795,0.0569255113392889283696618,-0.0780451688636807638932424,0.983067357253985862897139,3.56679069524189795714619,4.9731951978810329251246,0.436628882263214834758003,1201.43959296956472826423,1196.24359046664744710142,1188.15682386036291973141,1178.87586437496156577254,37.2675795149006816586734,171.845611003618472523158,-597.342336310384212083591,997.840442463938416040037,150.102566496135835905079
0.255000000000000004440892,-1.09816279287360218930303,1.29834937505891767628441,-0.262167959496294122878624,-0.144654493289950891732332,-0.0477953938790675394998608,-0.00486686322492705519815459,-0.0167919289561658663378907,0.0144589342219731391975257,-0.977145746839199969002721,-0.211411406737450291437597,-0.118680313811785898003848,-0.109684170993790394699197,10.7890630685679731470827,0.0557299191895070100688514,-0.0777224835705303679356248,0.98553197439489248488087,3.56680641458414537936505,4.97333957284609606830372,0.439088206893051169465991,1201.6922072343681975326,1196.51498681806447166309,1186.88600067649645097845,1181.59147217569079657551,160.645005793958119966192,24.4201380587128156207655,-381.062339171239386814705,1256.92858181341648560192,150.101809521703245309254
0.257500000000000006661338,-0.893773428089477461888634,1.04214222913144438642519,-0.0107136107379366060654569,-0.148437468006604789128033,-0.0460046411476726369027546,-0.00597266315661944269255201,-0.0168656657948653768142044,0.0145921287400828190300439,-0.977145718059463042060031,-0.211396485850559784358538,-0.119109440543542444146397,-0.111851381989543557926581,10.7883856020593409397179,0.0544816186775733818370426,-0.0774526073891518146430357,0.988006192955039774794557,3.56682421855705111823909,4.97347992508756853169416,0.441555426988682664379837,1202.2428179985345195746,1196.36569115694101128611,1186.25151216450672109204,1185.16050728402865388489,215.146577581208276797042,-144.007348289460281876018,-60.5006087883338636856934,1330.15371870751437199942,150.100947973717296690666
0.260000000000000008881784,-0.666318478446038087170677,0.921029376981078340413944,0.199510458213341679289954,-0.152020615204804587783372,-0.0446910207365553979741435,-0.00653597686356956284609021,-0.0169050629626383078218943,0.0147450641659356701529404,-0.977145491158082357685544,-0.211383678972680510987914,-0.119978811323323414361752,-0.114213719969669724729755,10.7875196302483740140588,0.0531696136422838139257152,-0.0772494285193424112812011,0.990486552554322718933122,3.56684416768658429930383,4.97361658773220316476227,0.444031245741579039254532,1202.76794012227423991135,1195.79495007661716954317,1186.5834976325547813758,1188.24224076922837411985,187.231467088622423489142,-322.080677998610269696655,296.005410995030331378075,1219.72558532943253339909,150.100267842841134324772
0.26250000000000001110223,-0.372308017818189229686254,0.880321421351924704445935,0.401097995501635606885316,-0.15492943782127299723328,-0.0433373731126611705377627,-0.00595637527633672073101856,-0.0169079141717371796149738,0.0149204095563879920310901,-0.977144439887140725531367,-0.211375842016134130041394,-0.121317670935745580695908,-0.116782415999458405453382,10.7864554832340004963953,0.0517918653769639525386026,-0.0771183213731152367165222,0.99296881110942292192334,3.56686708590430789911352,4.97375017191477031275326,0.446516066380424958559558,1203.1789753339776325447,1194.75528776694795851654,1187.73153921948187417001,1191.25913521067582223623,123.508865834719358645089,-549.129226554623073752737,628.760355519625022679975,1275.41967282286236695654,150.099625552259198002503
0.265000000000000013322676,0.0302832004202819027316451,0.887489501200910857470205,0.612582357269782940001335,-0.156488576815887431292751,-0.0409772239398108542585142,-0.00396384490687034379829967,-0.0168780398567149533817222,0.0151174485535439800942825,-0.977142038475998342406115,-0.211375120935891280815611,-0.123049062101634743005008,-0.119474768874372985760779,10.785192101398772379639,0.0503566236159355626322842,-0.0770545109382804044306781,0.995448454203478827473361,3.56689404635661766462817,4.97388143743507882277299,0.449009484982215434367703,1203.38548445144783727301,1193.04930394384405190067,1189.72729941015290933137,1194.61933913334269163897,21.9938233276024952544958,-676.759739585622241975216,769.67830824705674785946,1165.73350952262330793019,150.098896905299682202894
0.267500000000000015543122,0.369228676152428658685523,0.90683271150859690035162,0.750645391706376785556643,-0.155857065576907288795283,-0.0382041661939120022473126,-0.00171907424425269696709184,-0.0168235170505326644962985,0.0153337611892643676386738,-0.977137972898111439867819,-0.211382462984620211887687,-0.125019330345258916636908,-0.122159439297749028430218,10.7837372089169267752595,0.0488796952325995931465386,-0.0770470695891739554284072,0.997921006101734398008318,3.56692590314188384681415,4.97401122063480460866458,0.45151112947621196980208,1203.28894445061564510979,1191.37148906901984446449,1191.57993076071716131992,1197.08780275828894446022,-76.9378255223272589091721,-682.347787128855429727992,701.767042282198758584855,895.395423407307248453435,150.098323589128085586708
0.270000000000000017763568,0.660711511122749062252524,0.904682157617060056509217,0.842957832264801254495978,-0.153356964069422924135111,-0.0351728224354477189694812,0.000735170362512015140334098,-0.0167535109497603702799484,0.0155661512536790017091626,-0.977132472076020386353434,-0.211396282347796921063932,-0.127060250017576203962477,-0.124691256211712744872422,10.7821062992460827700825,0.0473784251135538417298854,-0.0770822882350046117982956,1.00038249883141849849721,3.56696271970038747411991,4.97414006155521448704349,0.454020933452003783159512,1203.00079532383620062319,1189.63756500819977190986,1193.23613462156390596647,1199.09631625037923186028,-118.313245050330706931163,-667.814675191629589789954,582.90874370791186720453,712.881536463827842453611,150.097784032541198939725
0.272500000000000019984014,0.882889072520513185082791,0.867642933277412153891817,0.900173182988458386866171,-0.149847284675888176019853,-0.0323004630694693206649504,0.00324494048507155017843639,-0.0166780245560341246202629,0.0158094717336125338558173,-0.977126211791169874132379,-0.211413016367746176005227,-0.128999483386852853428195,-0.126889628724615177723933,10.780321946106598218762,0.0458706672145172550392189,-0.0771417176318875824625465,1.00283003290149430597467,3.5670037192440595674725,4.97426800814505831738188,0.456538011240671337542807,1202.69737822536399107776,1188.03241569306169367337,1194.49447447925672349811,1200.65221044060808708309,-81.9149198689500934733587,-571.903417654493296140572,375.59532930081297763536,502.711281331175541708944,150.097271421958566861576
0.27500000000000002220446,1.00726957528753313653169,0.780353688249136090426816,0.925922052400458550636131,-0.146229122872175043568177,-0.0296142395385599332957582,0.00559139042261793447335938,-0.0166061660805691818643126,0.0160578474469741244723409,-0.977119886886444688478548,-0.211429152554349769621567,-0.130691517242757959671451,-0.128575004848023699555171,10.7784121122231830725013,0.0443720875188527083543555,-0.0772054806246171565486947,1.00526191258897923397342,3.56704809810208001152887,4.97439470687162987871943,0.459061018498532202869455,1202.59122072449144980055,1186.77804791992730315542,1195.11411126806797255995,1201.60987265703511184256,47.8022501670238426640935,-432.66460325648910156815,119.381280667403089523759,284.902652545269802430994,150.09679004771038535182
0.277500000000000024424907,1.05424124125387397299392,0.621386088747178044755515,0.939817097294992631617561,-0.142693568425582090197778,-0.0268787715379701121209965,0.00777076844688663614935109,-0.0165423306485759508133171,0.0163074222100043804417613,-0.977114106580032393267743,-0.211441811185529293659613,-0.132085136375060724356345,-0.129645233269512244467236,10.7764072288105978714157,0.042889848056987041335919,-0.0772595723449623766887484,1.00767745075078529737311,3.56709528760052840823391,4.97451990941490063136143,0.46158947697838592638675,1202.93638947619911050424,1185.86909267677924617601,1195.09138088259373944311,1202.07672370333443723212,226.039584403451755179049,-218.108986924880611013577,-118.167877872474392120239,72.1913849088650039220738,150.096246905145335404086
0.280000000000000026645353,1.0287391344769005741,0.456034944427121169407968,0.949571925846601883058895,-0.140471404883166367527636,-0.0253502405278625102258427,0.00923553403928897148622568,-0.0164868516163419812081692,0.0165539659123019912423391,-0.977109157294615449096398,-0.211449971204603515140263,-0.133220226918912609814782,-0.130023338354978978959053,10.774338517105348955738,0.0414230128016066304064147,-0.0772910948957741261722276,1.01007722751800410598833,3.56714464149889920463465,4.97464362706546125991736,0.464122844725692651479676,1203.72141864650870957121,1185.68750298530289910559,1194.52327187870560010197,1201.97082958157943721744,416.520800724355979127722,49.91694081154487605545,-303.073085911773603129404,-114.500569370647909295258,150.095821885450334320922
0.282500000000000028865799,0.962282064666252656692791,0.278212763104318638873735,0.96205863999052043666893,-0.138661733013946825154861,-0.0245327311107509521415082,0.0109777545557436725931488,-0.0164388835640350110256502,0.0167902118955748705375619,-0.977105043822203089831646,-0.211454253549370918552341,-0.134178509950768409808575,-0.12958786202304517498618,10.7722371844476896285414,0.039967146858345972693094,-0.0772819493777564120451373,1.01246319713808108353703,3.56719571090013687353348,4.97476547439739835709815,0.466659450229994055003857,1205.0189934798208923894,1186.11867738083697076945,1193.57601545303487000638,1201.50422085648119718826,655.782769573215205127781,312.693266689029485405626,-452.009911550430445004167,-245.537490139440478742472,150.095424153318333537754
0.285000000000000031086245,0.85686421020285208349776,0.0775666403603977872016628,0.971735532209095698163992,-0.136479059789795492685371,-0.0241270218416919507431473,0.0136347841659705051875484,-0.0163991100353515217857847,0.0170089984360689491782459,-0.977101794796409794940928,-0.211455052398461490481552,-0.135011178199804293686981,-0.128224427617874336959858,10.7701338572462592679813,0.0385209470759933572669986,-0.0772140239939944211799983,1.0148377171415414732536,3.56724864504183880598021,4.97488451794004671313587,0.46919845317974007148365,1207.00033249437478843902,1187.2509693187480479537,1192.26322232095344588743,1200.74314213088223368686,755.910372066272657320951,487.386045393349832011154,-474.316904229499016310001,-281.93442109959482877457,150.094976872257660716059
0.287500000000000033306691,0.756944335283823099835843,-0.0599898089445888849091659,0.964815530140250454671502,-0.134455569610524738877189,-0.0243786968120575549268114,0.0160967070914576383666716,-0.0163717298702986020775274,0.0172068929305223550230153,-0.977099580607133422205379,-0.21145154429082263503048,-0.135679748119573562181728,-0.125891026072766060162067,10.7680579153317808049906,0.0370918305525195432514884,-0.0770755677402387845420506,1.0172024416716645145442,3.56730412517627426538525,4.9750000018450801775316,0.471741617774205201918392,1208.79854534015225908661,1188.55560760780372220324,1191.20443093188737293531,1200.09454875098322190752,690.699975423929345197394,542.028180838775483607606,-380.087218046677890015417,-230.578752369458555904203,150.094628025262380788263
0.289999999999999980015986,0.653398405295956052896145,-0.14713904796790769347048,0.930280235303685310022104,-0.132198229566922259570205,-0.0251943426117697544253105,0.0185112171437190470291156,-0.0163616171130941540079462,0.0173862995795669786347482,-0.977098909568364648592365,-0.211440828074239584033478,-0.136105382687931625307343,-0.122673035997225746140948,10.7660351522889374820124,0.0356912341144933614733858,-0.0768666202012821125899578,1.01955778027292121024061,3.5673631098694951191419,4.97511177034162876964274,0.47429161685218440558387,1210.45383237149439992208,1189.96111022294189751847,1190.36278623072007576411,1199.59024836903495270235,628.393255400766975071747,563.779266631496625450382,-289.335226478991216936265,-156.925231717288397703669,150.094302672641816798205
0.292499999999999982236432,0.542516958087220335649192,-0.179476333648701386058733,0.846158915704471326080238,-0.129350624778646450252495,-0.0262372456722500917158936,0.0212815256488457955896809,-0.0163712431520129687856357,0.0175542653786363161971806,-0.977100275788870709092748,-0.211419889374574121454486,-0.136238789178357383446993,-0.118771940577317602905083,10.7640854675635644355225,0.0343281873542850626823686,-0.0765979308854331658595882,1.02190318790128564785391,3.5674267783318169833251,4.97522023615571917787292,0.47685048059532580966291,1211.94051161715606212965,1191.37450394096117634035,1189.75775479949243162991,1199.30992259239678787708,423.488070251095962248655,416.656027695170962488191,-138.762578737760009062185,-27.8893376817449940574534,150.093937937041573604802
0.294999999999999984456878,0.485057664201502314327286,-0.143215583399458834534812,0.735033571499045024211227,-0.12725986943512601623496,-0.0267931606568582204863649,0.0235731310241509527114712,-0.0163998019618609054692815,0.0177159916938230410643484,-0.97710357211602838489739,-0.211388905127368881275984,-0.136108146370636950983624,-0.114373672122152325592026,10.7622212407761210783974,0.0330049580786769755635923,-0.076278397396372113470342,1.02423854673577485741021,3.56749594519050905461199,4.97532568753521076132529,0.479419121101209710911206,1212.57127272274988172285,1192.04439036141775432043,1189.66897333703127515037,1199.45080168062622760772,102.156001902403573922129,111.768750307601195004281,62.203687933015260114189,154.476132974559590138597,150.093654345051078280449
0.297499999999999986677324,0.507539764521331537849846,-0.0430117986908797600431598,0.579658647858241504735588,-0.126101421031519667081966,-0.0270324509824591170670249,0.0258023652822824758890086,-0.0164423657125980227089457,0.0178705149119074771513205,-0.977108202216520171923264,-0.211351138711574015882633,-0.135855472977221808372761,-0.109559579233690029820281,10.7604457134103341786613,0.0317130862243350866713776,-0.0759069176638201142948148,1.02656536968330036607711,3.56757001628218306521489,4.97542781886795282275671,0.481996574153773060800177,1212.45129162666808042559,1191.93334769249918281275,1190.0687732391575082147,1200.08230325726958653831,-170.408020087961489252848,-190.526790342209835671383,243.880688566923481630511,341.752408310958060155826,150.093390654666450245713
0.29999999999999998889777,0.634993428793586001113169,0.107781019605723157872568,0.392851895962293251596265,-0.125796745261505221735732,-0.0271358857657167766574968,0.0276888749697013526740452,-0.01648960372652834988072,0.0180133003511670081175922,-0.977113448808073048468259,-0.211311052385505904194218,-0.13572885576005305763303,-0.104358674567571321767367,10.7587520571589738693774,0.0304332670306199683241122,-0.075477844155362031064449,1.02888683334708108674249,3.56764755771873254275306,4.97552634831174955820643,0.484580346464779487813956,1211.71923262231007356604,1191.09175640970670428942,1190.88837677986589369539,1201.15956372218101932958,-415.479168522005807062669,-501.397528439519646781264,422.735416737577509138646,531.030588156635985797038,150.093142575548483819148
0.302499999999999991118216,0.927761151359245861414138,0.315286095259985299499306,0.18488986478580471395361,-0.126119878818393982289336,-0.0268674836783366066672585,0.0287810182577934933756403,-0.016530375827933898452704,0.0181388325916729264974947,-0.97711885415440002944365,-0.21127213519445553480125,-0.136013847132137266626728,-0.0987864570344655912315091,10.7571238582140544792765,0.0291411160807212923917753,-0.0749851392988436227238225,1.03120750307895336916886,3.56772749109229270203514,4.97562126603391430279544,0.487167386184502171353472,1210.37389578405804968497,1189.42636005030158230511,1192.18245032284539774992,1202.73745619805276874104,-683.622394110079198981111,-872.959175805043855689291,651.351473102976683549059,772.535018762254594548722,150.092912270903553917378
0.304999999999999993338662,1.48711104388970261069858,0.620297936523158455202065,-0.0568511332975708758019628,-0.126447113468978328265635,-0.0258330595693962786207898,0.0289752551038279550221777,-0.0165555910581988777185991,0.0182433868560088925658835,-0.977124515734584031534382,-0.211234998465925721822245,-0.136937295317341917177956,-0.0928820698533661254225891,10.7555365539318490419873,0.0278158423418956336770069,-0.0744262708645726522860286,1.0335326492438390300066,3.56780930313206434689732,4.97571288818386570085295,0.489755308514116804996519,1208.30112065175967472896,1186.72696053068148103193,1194.1451341453807799553,1205.02223881599229571293,-795.850611906552558139083,-1053.14667814691256353399,750.1152162177270383836,856.857694033532538924192,150.092655134730875943205
0.307499999999999995559108,2.10139492825894391714314,0.910799555719738140879826,-0.225159100213267876489098,-0.125515474097352447424569,-0.0244223717721692608340067,0.0282123567875826354589552,-0.0165611062517763453494357,0.0183237071383768254650981,-0.9771308468323074425399,-0.211198366944956278379308,-0.138610902700088356453989,-0.0866663391150335193913179,10.7539587011411885697498,0.0264457749726530501332977,-0.0737981924029767061279372,1.0358678897057587153796,3.56789292336447738662741,4.97580145093013559431938,0.492343095235155736588695,1206.39464272452528348367,1184.16062665956701493997,1195.93302640393403635244,1207.0217446682204354147,-755.491635218049168543075,-1022.71571801470508944476,683.452829666065895253269,751.504061193099232696113,150.09245594547004998276
0.309999999999999997779554,2.78618979265324595573361,1.22154707777752991049169,-0.330984994468278892476576,-0.121083788238688649929742,-0.0224163490292358345834511,0.0266510862016054936307619,-0.0165503965972008323936926,0.0183739987566388374151671,-0.977138120809851740133922,-0.211161224831197563700513,-0.140987857523046600238814,-0.0800666934662886686790984,10.7523536073733723128498,0.0250329364440871303398861,-0.0730899666245894419347451,1.03821885691833992737543,3.56797852143704208316422,4.97588646802833345361705,0.494930695926906527581934,1204.52366247566942547564,1181.61338194060795103724,1197.56239829371111227374,1208.77975912195779528702,-773.739067946370823847246,-1043.85886592963197472272,599.972285556031579289993,638.36991533817069921497,150.092271403565973741934
0.3125,3.54401654295217083401326,1.58765525960393949489458,-0.367180349176141007649932,-0.110055765757357704170971,-0.0190088425881731019895238,0.0243587737434472345610104,-0.0165284965903737639247861,0.0183895708891432391185461,-0.97714662285002584773963,-0.211122276448168999518629,-0.14397202726241839498833,-0.0730194439039405784885872,10.7506792630817464839765,0.0235824507083523121631075,-0.0722927043909230016005552,1.04058992687844731328539,3.56806635140984118592655,4.97596713844220772671179,0.497519823628081003796808,1202.52594738479342595383,1178.94133232991885051888,1198.93288783171419709106,1210.21359424491129175294,-667.458528619681032978406,-874.940034453765406396997,357.331649367005979911482,365.574290956191930490604,150.092066098627753945038
0.315000000000000002220446,4.01770146335811073612376,1.85746223221984863016587,-0.321893526509796190637758,-0.0972451650631680625247455,-0.0150149550887888009326199,0.0226431346880601007398592,-0.016497117019417896488509,0.0183716332157422591875306,-0.977156344136636212382996,-0.211081329960610408758015,-0.147498108517544357365381,-0.0655929193218492689876342,10.7488899126081065560356,0.0220948849444730921476321,-0.0714113984505395371638059,1.04298284772622884553073,3.56815643059746268050958,4.97604270019899619370563,0.500113504603045377905346,1201.18636983257101746858,1177.23868176833912002621,1199.3490565405461438786,1210.60763057673875664477,-444.785125370435309832828,-541.267176098744585033273,-11.9987885233513118521387,-42.9575913146436150213958,150.09190826348822156433
0.317500000000000004440892,4.2490346906723459596833,2.05040306350963552617372,-0.214892690375553419013244,-0.08386489829362553383163,-0.00958057255275433436447763,0.0215452360629190507734787,-0.0164579683966471559952716,0.0183277329489912634008508,-0.977166943885346528375635,-0.211039177520861348513748,-0.151459003220702825842636,-0.0579809796262801963040445,10.7469409602837302486478,0.0205731279895068133733993,-0.0704643239760549822126023,1.04539626693165232929061,3.5682482295024167129327,4.97611227519070720148875,0.502714450623742203916322,1200.30202175794124741515,1176.23499644942512531998,1198.87289388909744047851,1209.9988062883380735002,-263.22187136202023793885,-275.600610008586727417423,-331.849893249409149120766,-414.158932803774973763211,150.091764398007057934592
0.320000000000000006661338,4.26687872947038471238557,2.15311068976853992040787,-0.0778572446441351678769749,-0.0717068755666619012112406,-0.00322068738785809228694634,0.0210027342829725259532037,-0.0164137668076408844985981,0.0182702470931075527937892,-0.977177932713123142960399,-0.210996799610247615097691,-0.155690963642603208416659,-0.0504660597009266645440739,10.744792940767782241096,0.0190236869882268316844787,-0.0694793673744891066013096,1.0478260470504501267186,3.56834062253892891902751,4.97617556848968511928888,0.505324631311886429685387,1199.87026047576091514202,1175.86067871829618525226,1197.68980707429909671191,1208.53683591271988007065,-50.1210354921567642350055,-0.990247306299351315317381,-605.235205827056574889866,-768.017782766718710263376,150.091632617835415430818
0.322500000000000008881784,4.05352679750612132636434,2.13090291783925955826362,0.0649114652237815503710294,-0.0616002237379509459680449,0.00346771915259232654457633,0.0210355272222526451519897,-0.0163705344330821525589137,0.0182110819672450865991387,-0.977188869345789190568041,-0.210954735302802232066455,-0.159949387806512188792141,-0.0432973529269978646416561,10.7424149589682649263978,0.0174591161321423632424299,-0.0684818324655539628631473,1.05026645927092898702426,3.56843239827503833083711,4.97623351490804477492702,0.507945030425280719121872,1200.05141658048046338081,1176.23004521289362855896,1195.84671785996215476189,1206.15871737450447653828,226.774349658034935828255,313.841524505278073320369,-889.853460358835150145751,-1197.30413622291848696477,150.091516430723970643157
0.32500000000000001110223,3.58299027751698329069541,1.96788300310549191252107,0.202496549388992558293765,-0.0515087600811869328332193,0.0108682583645532578053849,0.0217654608850003650211136,-0.0163353441692066191082144,0.0181577211000827631881549,-0.977199520543173161257755,-0.2109128614961505998604,-0.163975002677036685305723,-0.0366187968067996916232687,10.7397856764417785058185,0.0158919262732547597605226,-0.0674868638907057116771426,1.0527113518518806944968,3.5685229313388910910021,4.97628783260147677935947,0.510574488647348667669235,1201.00413222405109081592,1177.42988634082257703994,1193.24053977250491698214,1202.55031523160528195149,462.541025420204789497802,542.087402123206175019732,-963.504250798268003563862,-1386.99800809631483389239,150.091396878321120311739
0.327500000000000013322676,3.04662349800074716554832,1.74431153996395238436889,0.261812790336716560979369,-0.0439470766207086804833182,0.0157910885435729071712974,0.0229843396066035828007035,-0.0163121702474196723919864,0.0181130534012078833749904,-0.977209532440549422105391,-0.21087224920122488169838,-0.167584305470044159225296,-0.0304872534953072871211077,10.7368933534903643334246,0.0143265977523692848716319,-0.066500556380826858493549,1.05515466610050023810174,3.56861245794090464755755,4.97634033979382550683113,0.513210706310414987996182,1202.36412170758148931782,1178.94048222350966170779,1191.0291966059708101966,1199.22372733402289668447,630.947881028668575709162,677.19146747313004652824,-834.411010191433092586522,-1312.66003236537358134228,150.091315536468755453825
0.330000000000000015543122,2.39167778733065494733978,1.47505867096209630773274,0.239246895491070643569032,-0.0369825636851949871020118,0.0191238391264473908681687,0.0246461719934146852861723,-0.0163023804628010422768103,0.0180796550398083163968543,-0.977218560719257611779653,-0.210834154742353813150046,-0.170641858421699571524144,-0.0249608498305245174453404,10.7337381499675910134783,0.0127628800680944284179352,-0.0655284239426961595542664,1.05759006816927447758303,3.56870168169561807758328,4.97639211230333433633177,0.515852653059835186688531,1204.15887162919443653664,1180.81584367818823011476,1189.06848472154774754017,1195.98701506977840836043,830.927461743703361207736,873.719794122597818386566,-763.18522698238598422904,-1308.98367485169615065388,150.091255618603042876202
0.332500000000000017763568,1.50587357676300426234661,1.15155271722914998022702,0.10739602473077505817578,-0.0304963913739295169880172,0.0216479676735887305305539,0.0264794216746755024793902,-0.0163045309127179301189603,0.0180624493258912666160398,-0.977226190436930486349354,-0.210800181434248057321668,-0.173055901005716744611718,-0.0201573677600550144051184,10.7303332452984729883383,0.0111971159438460678148264,-0.0645811540009903900516619,1.06001063122394145743499,3.5687916994756818667156,4.97644298170127807878771,0.518501013589348191956674,1206.51875901630000953446,1183.30908119412265477877,1187.21327047105887686484,1192.67880895976441024686,845.232382841094590730791,934.319514758407535737206,-587.576443647503197098558,-1062.77895842354064370738,150.091211541315317390399
0.335000000000000019984014,0.720625576828653691130455,0.909194107019799191427012,-0.0819269581211922032215611,-0.0274931505760361294399274,0.0229546727779662389223869,0.0272802251412017048026737,-0.0163140097601360625767519,0.0180675200170847399805396,-0.977231838713743750091112,-0.210772859248507804519335,-0.174795442976168363680145,-0.0162327994865451991080008,10.7267041163835568085005,0.00962150119427867579757763,-0.0636726533087646345832056,1.06240902116927182774475,3.56888372936444175920201,4.97649247919311044086044,0.52115781899128055254522,1208.38503354339991346933,1185.48744125198027177248,1186.13060250331022871251,1190.67312027766070059442,658.148198145681249116024,876.84755240038532519975,-347.895063640134765137191,-610.677942731853704572131,150.091200260028671209511
0.33750000000000002220446,-0.061922986096304172276561,0.709434649403372530329648,-0.328950004689502417676294,-0.0270369988506256181404197,0.0240353651283791679149626,0.0269542814039342576437619,-0.0163252547618324972411585,0.0181004018536531606498041,-0.977234957980535612342976,-0.210754673752771626293878,-0.175855431334514589192253,-0.0133356968192942099138421,10.7228877570913798678021,0.00802814543722259188474055,-0.0628158388798680106246408,1.06477795365482919009992,3.56897936118147818262969,4.97654012497181597041163,0.523825264939648316264709,1209.80950000702841862221,1187.6933189561245853838,1185.47379515285820161807,1189.62541924610513888183,459.498831954442323421972,969.304033646857533312868,-223.762089771389383940914,-240.263069579259308738983,150.091218123451909605137
0.340000000000000024424907,-0.937824653252415929571839,0.514570855650101632861038,-0.653646842673174521820556,-0.0289373476663593101609884,0.025464175346813548717062,0.0253141139591436421796278,-0.0163335703274663304740422,0.0181631692252536489085024,-0.977235608939002631245785,-0.210745512719619942920701,-0.176235153716749692875965,-0.0115364093280000690189269,10.718930393261521416548,0.00641146812306157224542469,-0.0620160030884179189203387,1.06711111048106110921196,3.56908007717830777494328,4.97658500767324429858718,0.526503739178097562856351,1210.68252770317212707596,1190.33396142021456398652,1185.01179205445328079804,1189.47180492976440291386,151.797452234722953789969,966.179146901275998970959,-145.162580732130521710133,102.031566114965158931227,150.091276454986513044787
0.342500000000000026645353,-1.57564541524266843453006,0.378739241068137666434978,-0.919930670642575165629751,-0.0323936390246698305284134,0.0267291980169255954935537,0.0231529754986404164018854,-0.0163335941716786954558405,0.0182547864750241886633297,-0.97723421677128907703036,-0.210743887738582269530951,-0.175973870003646504223127,-0.0108429510465904016536243,10.7148837789891882010807,0.00476522760875845632216885,-0.0612724859890807216356023,1.06940379169917254564837,3.56918684115841777781952,4.97662544337898360424788,0.529192418462325342431996,1210.56848726820203410171,1192.52421469063096992613,1184.74798224919754829898,1190.13557707667996510281,-225.616578574272153900893,874.222063557271326317277,-113.776037594652635220882,379.662995350508595038264,150.091358170080155787218
0.345000000000000028865799,-2.0784433020598185315464,0.257026931578834716418669,-1.15299809812372400230629,-0.0377214227610071853313833,0.0277802050129237233788704,0.0203910202024250586383403,-0.0163186302540595414012348,0.0183727716934747736798883,-0.977231342815378711819108,-0.210747903254615009949191,-0.17516180870056730078943,-0.0112398679925470867946302,10.7108015733180472750519,0.003081643640266869266231,-0.0605826436098442708266809,1.07165341774839828481447,3.56930015996795813038034,4.9766595968444118369689,0.531889871498850475006748,1209.55444481030076531169,1194.70507173800092459715,1184.44291186648001712456,1191.37011990651694759435,-535.483224660355972446268,868.24894183950993920007,-146.604134078006467234445,545.527912453780572832329,150.091477090576120190235
0.347500000000000031086245,-2.44849530120985070524853,0.140030057400628710206902,-1.34074477819035897674382,-0.0443459286191934878851306,0.0284647572344514272757454,0.0171077577606003478072338,-0.0162852605868032511426957,0.0185129917070295246794842,-0.977227275368265146937574,-0.210756815131152547282412,-0.173848721791619781340543,-0.0126643882688066145014716,10.706736943336201406396,0.00136059809771504110903484,-0.0599394219195464039717791,1.0738602349662622614801,3.56942050672790411880442,4.97668665957890787865381,0.53459366126073448732825,1207.89107114490025196574,1196.86545939982852360117,1184.01496157880751525227,1192.86321663894887024071,-772.660082164701861984213,848.265707189874888172199,-208.733555041498931359456,612.726739273920770756376,150.091629007931743444715
0.350000000000000033306691,-2.64975241396089433720817,0.0241320703363732055879431,-1.45702064520964746918708,-0.0518418780641276347176394,0.0287256196631081005266051,0.013136612381827833875847,-0.0162344870162341448072141,0.0186707750384917034458532,-0.977222235460241894777766,-0.210769900628739320636029,-0.172016923617795025602817,-0.0150230293458692154562328,10.7027388670174943285929,-0.000388172540306036886748053,-0.0593330180810276858194285,1.07602758623530858628214,3.56954830850217064153185,4.97670676562564562317448,0.537300020817987777910218,1205.69114439947725259117,1198.94640027395030301705,1183.399244091272521473,1194.43375360288655429031,-1005.80571113374503511295,871.303528273674373849644,-304.435841877196651239501,664.006819725461809866829,150.091823333268592932654
0.352499999999999980015986,-2.71056749139213959409744,-0.116916737906634066179734,-1.50176493553816148285307,-0.0606852477290994868353025,0.0288016339033760893073577,0.00798004279602670257842689,-0.0161712039427604585550835,0.0188417802546925437778835,-0.977216455977408360311642,-0.210786064025584057857188,-0.169589599919510086722951,-0.0182110043184399994498079,10.6988478142779754875846,-0.00214650884158751765334872,-0.0587527801803553323400919,1.07816175810730485729039,3.56968331478134093259769,4.97672038650611714416527,0.540005820055015184344427,1202.86204258923157794925,1201.22197704119685113255,1182.49278236942154762801,1196.18325073757614518399,-1000.862776178802278082,771.82088861419163094979,-339.197511713886171946797,598.640976578196159607614,150.092108963408321642419
0.354999999999999982236432,-2.63762953409671974114303,-0.236665150453884004511096,-1.46095054940555080236209,-0.0671373776453175891143488,0.0287905718687673506384073,0.00399975122384853363360913,-0.0161006744218094369203165,0.0190220289444937643019706,-0.977210268998189968137069,-0.210803705027814730632585,-0.166504406985551106634702,-0.0221276656934026455525455,10.6950905276424830248061,-0.00389596883754171011832179,-0.0581887655074940848831666,1.08027133595516589004148,3.56982444018195987922581,4.97672865603051661764766,0.542709247799112448618075,1200.68683051858329235984,1202.80550471702122194984,1181.70325653270310795051,1197.4269584857775043929,-761.948461209794231763226,534.73115121782893766067,-285.82326788145996943058,440.748502681344291431742,150.092393198613876847958
0.357499999999999984456878,-2.47685449947336833176337,-0.354614170399078831863449,-1.35016388524733899068053,-0.0723407731923439711874124,0.0284640966042838151894845,0.000719212411062147534759892,-0.0160266837565003553156551,0.0192073475148735739459482,-0.977203963396827801624056,-0.210821573315739335674479,-0.162753822858532459783021,-0.0266728061975917418724435,10.6914763712228850778274,-0.00562256337326264444415047,-0.0576314158927823672051716,1.08236624589883789759881,3.56997007420834577828828,4.97673293293115293067785,0.545410339057426196696099,1199.05230028318260337983,1203.89563279728599809459,1181.06366603001424664399,1198.38699325098286863067,-545.666811502405380451819,329.526981139360657380166,-198.559950185926766152988,352.107959036720444601087,150.092728417628734405298
0.359999999999999986677324,-2.22050956775838015389013,-0.481083217553079534045679,-1.15310580858876710053096,-0.0777560086412496798136118,0.0273910307676917090524693,-0.00262166497320572965817886,-0.0159537726344514789456053,0.0193909704776378949420135,-0.977197926935670424519742,-0.210838149666326163389485,-0.15834668476735885844775,-0.0316848312602010934169172,10.6879962310680287629339,-0.00731360601986909796001779,-0.0570654807349059295384919,1.08445696530973800797426,3.57011870432264455388349,4.97673423103941470202471,0.548110146892682337238512,1197.95849646107126318384,1204.45313962271802665782,1180.71045678177347326709,1199.18749828096110832121,-250.837155993849364676862,59.5450302510470876882209,-29.7508362780717767748229,234.618413770703938325823,150.093193153408151374606
0.36249999999999998889777,-1.96771449524093378080636,-0.560934164712778127181991,-0.945712854122174095827802,-0.0821584994112387612119619,0.0258819657884318717055994,-0.00513287218668197556259436,-0.0158846625744238356681137,0.0195664019515802284354677,-0.977192734498931070419303,-0.210851175580226979366927,-0.153345725053720322028639,-0.0370105644404649380962979,10.6846222243506243643196,-0.00896204754627479872886031,-0.0564772998768577894068699,1.08655303671783065588841,3.57026937809030275872146,4.9767330666091194046885,0.550809575261210881969021,1197.79811450321335541958,1204.19335794854123378173,1180.91491184862388763577,1199.56008531983638931706,63.7072822195022467894887,-265.19376517067007625883,206.816357194702334254544,89.9451273968224143118277,150.093635087433113994848
0.364999999999999991118216,-1.67588323423582341575866,-0.600184629364049926358859,-0.703706558359861178431061,-0.0863721191022151640881432,0.0240130854142653754612624,-0.00733564283397568264039057,-0.0158196721141296986479219,0.0197250634852592574008945,-0.977189219447501589144167,-0.210857582784575836587493,-0.147886622994284150367506,-0.0424575337434057176189128,10.6813083230563190539897,-0.0105687593839184773569784,-0.0558502041570003368575748,1.08866234419847995873454,3.57042167665020793165809,4.97672887302603239589871,0.55351060141967378669392,1198.277032872168774702,1203.12717079686467513966,1181.74453856774698579102,1199.63722391794522081909,295.460080847032884321379,-647.715381238139684683119,504.761972665300618245965,-26.4704275617077406934641,150.094136864343738579919
0.367499999999999993338662,-1.27452206606440654468315,-0.591781257502204782738886,-0.387586919664047457878553,-0.0906433856102535212562188,0.0219297734358493458250994,-0.00925646516148292963777067,-0.0157601908334773430087061,0.0198597512814748106135809,-0.977187952768146961268769,-0.210855326262923303826113,-0.142086685243136556788812,-0.0478511142492597171815838,10.6779950342972718146939,-0.0121332641102504072694312,-0.0551704754894974044865386,1.09079017826796120793631,3.57057510114976972559475,4.97672087533662921288169,0.55621631346779354387877,1199.27541490744852126227,1200.95478104235053251614,1183.43872171195039300073,1199.42773318202785048925,383.809499440530657921045,-925.306611891709621886548,711.542608633180179822375,-114.73531751298641268022,150.094811813028570668394
0.369999999999999995559108,-0.892419249986409313102342,-0.537751186450487250745311,-0.117069450177151535008591,-0.0934059247433952632988508,0.0205396720123958154147203,-0.00999582966390726544714251,-0.015706341950562807685543,0.0199661473226144525749959,-0.977189175028417178481277,-0.2108437300375758938209,-0.136082829787863790471647,-0.0530758438420062678142486,10.6746119982977045737016,-0.0136577855845919308303005,-0.0544317104662736944709067,1.09293868027902152384456,3.57072906146894375467582,4.97670814056378230105793,0.558929139587417078693932,1200.19608036937142969691,1198.50063773740612305119,1185.30225161091289010074,1199.06354733038028825831,331.769653179162276046554,-1076.66842522912611457286,786.552848449991188317654,-160.342297357737919583087,150.095437582512772678456
0.372499999999999997779554,-0.456354687526602464942016,-0.436791249530919689636477,0.140361424928190037242359,-0.0954258584600353731985933,0.0194899510199885508954232,-0.00965118850406775953543193,-0.0156576012242642635674539,0.0200457243796299151850082,-0.97719222594600529951947,-0.210825789735285429316036,-0.130002498615562511741217,-0.058134346327190986047917,10.6710823482544618912016,-0.0151442113050646517957709,-0.0536408730626251051276654,1.09510667696520558322959,3.57088321602058389458989,4.97669000725841481624911,0.561650053848967711900286,1200.93426317334433406359,1195.5714389162048973958,1187.37148595420035235293,1198.62602169523916018079,239.414326145560863778883,-1214.1481726771405647014,815.184191138131836851244,-163.042554130379215848734,150.09613199489291446298
0.375,0.024382659475851359287546,-0.29794295201306053577639,0.372508759198509842303082,-0.0968308576229218315178926,0.0186378228823675141934135,-0.00842873997814404078698924,-0.0156153272953369268161161,0.0201004914738317878863949,-0.977196397944259498302699,-0.210804520005066858834297,-0.123929007622181869274769,-0.0630228213878427784289116,10.6673262808062609963144,-0.0165911336195737335597045,-0.0528054875959567959764485,1.09729074241123858435287,3.57103742155729175777878,4.97666628570892211058663,0.564379644836630056659033,1201.39315200009923501057,1192.42989687402041454334,1189.3781725666035526956,1198.24833455972839146852,110.776029334874593246241,-1261.37375000448514583695,736.177566783816700990428,-106.806295270098317473639,150.096885231068057464654
0.377500000000000002220446,0.54906590536553190329272,-0.113559232165104467826566,0.563681918739250331640278,-0.0971694055178986826337706,0.017980630539595171546452,-0.0066418725794483704158444,-0.0155793074606567494289067,0.0201356717516675276513638,-0.977201254675587827058791,-0.210781477802318262249059,-0.117957478373091118051263,-0.0678013922411239561283125,10.6632638190594146720969,-0.0179998701190510340675033,-0.051940543127797993150363,1.09948528765393560568953,3.57119194577443987981269,4.97663748747927314752815,0.567119363530981246412921,1201.4881433200187075272,1189.26457016618246598227,1191.05237378811943926848,1198.09199021888866809604,-18.5597871127356306431011,-1343.33740426641156773258,613.4707275514296043184,11.8451492444364596678952,150.09771132428699047523
0.380000000000000004440892,1.19776924533157713703702,0.158586238843830718003858,0.744698704435705405302315,-0.0957165828409137497967407,0.0175788832351640479656485,-0.00437584039934118401715679,-0.0155462977828786132195038,0.0201550973088593307624983,-0.977206919716598565450738,-0.210755969464527848078461,-0.112242716738086500960492,-0.0725047049651504627032494,10.658816686722182964786,-0.0193795817108876056167333,-0.0510589267443879515906424,1.10168357074906353432198,3.5713470819638013509234,4.97660386196636572719854,0.569869967057043957936457,1201.30035306453555676853,1185.71320985268835102033,1192.44552620436070355936,1198.30756030595057382016,-86.7501986915612377515572,-1227.90420795804379849869,392.615748415937218851468,155.555520134293914225054,150.098788866232666805445
0.382500000000000006661338,1.71739710045068005861424,0.422557331753582732236652,0.861263512480387571912388,-0.092729462354335476237388,0.0178645612564818957734847,-0.00260047894271590558992746,-0.0155143203460570509172323,0.0201642988371517513368492,-0.97721339318231192905273,-0.210727604750531261057489,-0.106894384477807857791731,-0.0771902708233070250498642,10.6539126433936655047319,-0.0207362317014088276545536,-0.0501760215541987991683115,1.10387842247354206470789,3.57150315352121694445486,4.97656579867956683216335,0.572630902657557117052534,1201.05439232656090098317,1183.12504912639224130544,1193.01545253019912706804,1198.86976781956013837771,-73.3185677055643481025982,-927.440093676840774605807,106.677103552283270460066,296.84071770243434684744,150.099759784714279930995
