t,ang acc x,ang acc y,ang acc z,ang vel x,ang vel y,ang vel z,quat x,quat y,quat z,quat w,acc x,acc y,acc z,vel x,vel y,vel z,pos x,pos y,pos z,mot 1,mot 2,mot 3,mot 4,dmot 1,dmot 2,dmot 3,dmot 4,vbat
8.14250000000000007105427,-1.16074578449252441281203,0.641302708949653466063978,0.924970010085716887182627,-0.00982271763636308886669113,-0.00697212206081658340817153,0.00527057943582922953928982,0.00420907604599157249281038,0.000517612894208538897554417,0.057347057497494177691344,0.99834519762267914799736,0.0426649142993809904478297,-0.0374493451102476254677143,9.87226568550369876220429,0.0208060863174135760034211,0.00681807684803780855026245,0.0050921059060483461408686,1.3755066552412165137298,4.295553008747160284031,1.22900479511459326253942,1137.48929032359251323214,1132.51932235590970776684,1123.5684758451775451249,1127.38035082406531728338,47.0785900501689837938102,-11.6769840846723624849801,-129.998843555975724939344,397.769141621290145849343,155.466554590130442647933
8.14499999999999957367436,-1.09449347097339622081336,0.646496061552477074840795,0.999268802279353884898683,-0.0129878042374992237750764,-0.0043336044622990623279013,0.00967469365407757492247853,0.00417922107822108531566263,0.000539222411288082376090713,0.0573756988154338898322493,0.998343671914807440082029,0.0415935616064504742883656,-0.0380003165362562400630964,9.86899698866197283564361,0.0209299634171175863439629,0.00665735659491432235634889,0.00529319712545033103229253,1.37556118881074374016293,4.29558267549766892301477,1.22901542350111747659014,1137.27361330386929694214,1132.3867871064337577991,1122.9267405179218712874,1128.620517634693214859,-219.364564950603636361848,-93.2698153349828942282329,-323.24370270020557427415,506.411887843853889989987,155.465167005968851299258
8.14750000000000085265128,-0.963422341820004302093139,0.615604105106040688788482,0.976007700985259574189001,-0.0155963108294908132239742,-0.0024074562146489098500568,0.0135213858943372886023404,0.00415737997197654710057613,0.000557366391714490382741642,0.0574023785109464973475113,0.998342224268369604622819,0.0404906330872671083032088,-0.0382186647464402423635121,9.86560716625312394967295,0.0210431502189103655786617,0.00648431432188083505668841,0.00548659882969951273601339,1.37561497492456008551187,4.29560944755805973471752,1.22902866371088737018624,1136.39246749883932352532,1132.05297327923472039402,1121.95225733167626458453,1129.91241026328498264775,-490.540250083191210705991,-186.895313414713996280625,-449.370208717685045485268,555.189220637343737507763,155.464038926023903286477
8.15000000000000035527137,-0.755114578911123879301215,0.562713082913689932595958,0.876849503985403289085809,-0.0180843767073112192400597,-0.00105243968717739079347939,0.0165717670430228676548001,0.00414991272020330884129358,0.00056880519352603929605916,0.0574268348588862012626954,0.998340844676621541609052,0.0394592292868631358548903,-0.0379589915253628756852677,9.86210759382356449975759,0.021146600700831429120452,0.00630154514488174503222817,0.00566831408604811983614757,1.37566727433596369678526,4.29563341255193353873665,1.22904452435808542176687,1134.82091205345295747975,1131.45231053936004173011,1120.67988947433309476764,1131.39646373788036726182,-809.595003365918387316924,-328.929077686481775799621,-584.844376793924197954766,668.013583831631081011437,155.462943186291425945456
8.15249999999999985789145,-0.423803540827079994190996,0.494577711149188803396726,0.709035572836391736473161,-0.0206213934042399175960991,7.48536664729875802180847e-06,0.0189314754908992480264551,0.0041593267624539355734048,0.000571962438056311788664443,0.0574511816309812989311823,0.998339402054170377276421,0.0385641134664037321666541,-0.0371565762679294739334601,9.85851721154427274029786,0.0212417433463965646400773,0.00611199231120002160061455,0.0058345882248826861846136,1.37571833654688568948643,4.2956552633012368147547,1.22906270285681440412873,1132.34449248201053705998,1130.40832789080263864889,1119.02803544770722510293,1133.25247818244247355324,-959.440253144029952636629,-433.95658130961686538285,-596.358137513498604675988,665.906040441628306325583,155.461667783671231291009
8.15499999999999936051154,-0.0938006009965162562691532,0.446085503590621434977237,0.563338967872887841359386,-0.0220336153195474782062746,0.000606749324326603402778024,0.0199221115781286657597793,0.00418403914620863945361684,0.000568427342562646906870549,0.0574779616750831848226433,0.998337756201314374671085,0.0378009008781936550747105,-0.0358315067465354367137742,9.85486193945478916589309,0.021330150748719543807308,0.00591873870148898646725844,0.005982281805035793119385,1.37576860502846876066485,4.29567553422008696628609,1.22908274592396971058861,1130.02371078773376211757,1129.28252763281238912896,1117.69809878676619518956,1134.72599394008784656762,-917.183355163472128879221,-494.107058819022370244056,-496.153282869013082745369,540.430077328080301413138,155.460638449628504531574
8.15750000000000063948846,0.263530443752399867740621,0.413110344363057768735104,0.449046328332795452453752,-0.0222147815315460496476963,0.00114535675027485931917748,0.0202048859417756146439338,0.0042202665452240016585872,0.000560514457882657917038582,0.0575102038898745518413769,0.998335748515835619265602,0.0371454758266700907354263,-0.0340551896638178197562752,9.85117323537541267342021,0.0214133420693294954095798,0.00572482800754536315379628,0.00610899668375997073610506,1.37581870408737083621986,4.29569511127901026981135,1.22910408688929706499948,1127.75857570619245962007,1127.93779259670714054664,1116.54726903336177201709,1135.95462856908329740691,-914.314615425012448213238,-624.214717075203907370451,-451.954207832588792825845,451.606315232513566115813,155.459643566488892929556
8.16000000000000014210855,0.678628052838640472010923,0.388903776929395705863612,0.376365857701984884986501,-0.020476247242598853703921,0.00189113013938213710661562,0.020117680898796841404419,0.00426268721757214717749118,0.000549762988772665170747467,0.0575482975439454147448259,0.99833337962715784641432,0.0365837344266124880887148,-0.0319393674620294110155783,9.84748642351330083499761,0.0214926408085694860272685,0.00553331396707911794818902,0.00621319024007572617146478,1.37586939002002051068985,4.29571463551883070408621,1.22912637261642432306985,1125.45213771060798535473,1126.16145404743588187557,1115.43832774760289794358,1136.98402551625076739583,-738.343918066913374786964,-660.639643948793036543066,-362.254408906373328136397,289.421113094898203144112,155.458488744774570022855
8.16249999999999964472863,0.979472218017834794778764,0.373938957526091242389299,0.376306804656042048762288,-0.0175321099834528162930702,0.0025855081435390623971482,0.0199573994051555243800511,0.00430514260177899434067772,0.000539627202978369127292502,0.057589685748184023250662,0.998330821036413240676666,0.0360590331134966954329535,-0.0296194735731153263591509,9.84383900165027903028658,0.0215691286725387086631311,0.00534728743623632315346006,0.00629440233374846218328269,1.37592068248745569292169,4.29573377638229114694468,1.22914905079862646353206,1124.06685611585862716311,1124.63459437696383247385,1114.73599698883026576368,1137.40173413455750051071,-416.001360227918212331133,-594.169170210259721898183,-243.121595890541556173048,74.3893328339592869724584,155.457558953108531341059
8.16500000000000092370556,1.20458311274604024099233,0.350746005330329180260662,0.429571100894924229329774,-0.0136961150714101642655862,0.00328229570445356770569401,0.0200089953577864479439263,0.00434584704526603041174759,0.000528514549845670081849869,0.0576314913720995802837166,0.998328245283703230583683,0.0356146435784133949531416,-0.0271602172728137025714545,9.84026772598684473791764,0.0216438135410075317699441,0.00516984199081553432580938,0.0063529538816545711235606,1.37597234163130877071524,4.29575190120532912629869,1.22917156619900258540667,1123.37213090946806914872,1123.19060819638411885535,1114.22271976815000016359,1137.35597218042062195309,-159.146846409587539028507,-541.639274065761924248363,-181.166779753101650385361,-84.9952042777980665277937,155.456663999743597059933
8.16750000000000042632564,1.35888895327668701717982,0.308090165308012198241983,0.507567175492905087175188,-0.00952407571042707470909683,0.00409822436991802863809342,0.0204616032372783203385769,0.00438409271708242558041047,0.000514115411309936515271701,0.0576701479869095243180332,0.998325861113657508916219,0.0353047171291484204735944,-0.0246150027748256727821996,9.83680699579065453974636,0.0217176094182999074311269,0.00500401009725382796278215,0.00639016416250272247662201,1.37602472494015493076347,4.29576860911604185844226,1.22919339065073884853518,1123.27112188381056512299,1121.92639800663459936914,1113.83016309006461597164,1136.97675811316844374232,89.5832084271838482436578,-435.816945851088632934989,-134.682023877784985188555,-210.300015112257824512199,155.455799475117970587235
8.16999999999999992894573,1.43581366053720183018072,0.225688950297553508894666,0.580058385294540457266521,-0.00542140881857192981352345,0.00505174817454708251912576,0.0216602337820129969836458,0.00442009802853002026906681,0.000496639114264301362484944,0.0577035468882394209089171,0.998323788462760930428885,0.0351305982736412752975852,-0.022024512370740469135999,9.83348703792807654622266,0.0217913553251528474552501,0.00485255318336017069796862,0.00640840571477130187261206,1.37607794500594504683022,4.2957841972045756051557,1.22921400086622023550831,1123.82004695160389928787,1121.01152346712910912174,1113.549309648761209246,1136.30447210485954201431,354.936701220892814490071,-294.707941497440003786323,-104.479676000503658883645,-331.89353951263240105618,155.45497443047980823394
8.17249999999999943156581,1.46676730003220701092914,0.0636164025748917477676159,0.608538975420875649646746,-0.00126533359586709871422161,0.00614758769587867796163616,0.0241943403227031748892184,0.00445506778026602372200227,0.000476876570207280039981335,0.0577316205443211896697342,0.998322025547974112313909,0.0350792175507590731076135,-0.0194164911169439624583077,9.83033198078043568557405,0.0218659025589474260986567,0.00471779166446675488066909,0.00641086308204349714784387,1.37613162494701479765524,4.29579857540038290153461,1.22923296445702057155813,1125.0458053899146761978,1120.45285829914769237803,1113.30776471006220162963,1135.31729041560561199731,506.708822904204623682745,-104.855326625813162877421,-78.5377732958627348125447,-372.550095614029430635128,155.454034801717057234782
8.17500000000000071054274,1.46731070017833609142599,-0.130545505101557074434382,0.549582143678724377444667,0.00117101316893058441000186,0.00710931809017171286585457,0.0271732488726759841002334,0.00448972107647318662698721,0.000456023031377482163280235,0.0577548873802374365671319,0.99832053945276777451312,0.0351252331275043114255929,-0.0168331064453852569107184,9.8273585767931859180635,0.0219421438927357818904351,0.00460151156076626585700318,0.00640131745730814199352166,1.37618537280490027541191,4.29581189504275595680838,1.22925000022700103841089,1126.3535910661253183207,1120.48724683399996138178,1113.15662078228183418105,1134.44172162678910353861,533.110570900506331781799,114.756782006934628270756,-61.4086100588242018716301,-349.10394928396272007376,155.45329814104968590982
8.17750000000000021316282,1.46345206496290414222017,-0.380558598647572465800692,0.383442190597025667209152,0.00279880875963610126905268,0.0080229828871362807857226,0.0304394913666639170546357,0.00452258429175644502406861,0.000436604485298175881615584,0.05777583802254673134291,0.998319192544335431982461,0.0352113535171476171869998,-0.0143615220257502645972991,9.82457553809028638625023,0.0220210080244471369248505,0.00450475475075314858719455,0.00638393244244224878497507,1.37623907369995435168164,4.29582438952603595794244,1.22926507624978631483259,1127.71135824441762451897,1121.02664220918245518988,1113.00072165976803262311,1133.57177066918552554853,556.74211502639241189172,332.512298435015281938831,-89.0652009823220254247644,-386.771518087911886141228,155.45261574794955095058
8.17999999999999971578291,1.4483180764919172389682,-0.711798859994185684207935,0.0746965771449153992378456,0.00511844891644603391250845,0.00805118108458462676535472,0.0329743921031308978575325,0.00455251661791007938145937,0.000423215482922985298478574,0.0577962373373995461078856,0.998317886332283022099432,0.0352372608522519004115026,-0.0120810966904984773417908,9.8219829632900719218469,0.0221033827906579778688201,0.00442785893968952303650921,0.00636296202687539839276676,1.37629242525793826779079,4.29583567529575827137478,1.22927828861429255802307,1129.13730164125672672526,1122.14980832617470696277,1112.7112947773703126586,1132.50786403634992893785,461.265142396697001458961,466.125867527507466547831,-138.783995317977456807057,-409.562186935072190863139,155.451867248708651914058
8.18250000000000099475983,1.39889122004580213065594,-0.969269168785916845898498,-0.236899464623184646816512,0.00831707554514709429538399,0.00632975095294144220886556,0.0327438716393155734851739,0.00457978724234285594629768,0.000416232754999490330710676,0.0578177650379954471970834,0.998316521982364646348174,0.0351847428082080262989884,-0.0100471356743739997918752,9.81957196204438353959176,0.0221901199392185166647806,0.0043703213619950284987703,0.00634218273189308782977758,1.37634501733565794978631,4.29584621578368786032343,1.22929020270621003341205,1130.01768395640146991354,1123.35727154682035688893,1112.30680168317803691025,1131.52395973450984456576,272.163238224405404253048,504.218883907390875265264,-209.794506883430528887402,-440.321676282086912124214,155.451307350322224465344
8.18500000000000049737992,1.26310494487039504107884,-1.14108710524184919776758,-0.548550451166966324123564,0.012742656232376255165395,0.00267139317530566515468404,0.0303361328567357813046357,0.00460327374226261222533996,0.000413866142451504569633319,0.0578415419753527046409225,0.99831504028642348291811,0.0350749095710703312489542,-0.00834109907289495161597515,9.81732577396003769365507,0.0222818770095257363828001,0.00433069242546033506685577,0.00632478232080738254211605,1.37639716111790488817235,4.29585727705341113846771,1.22930152001432069219788,1130.49811783237896634091,1124.67090274571205554821,1111.6623222429529960209,1130.30625565493915019033,121.246089126795155266336,563.979210114460670411063,-342.165225829444239025179,-615.06545326481909796712,155.450819286796331653022
8.1875,0.955548450307870722575387,-1.18042987205476679335447,-0.872982565489800910185636,0.0183065459315968522002738,-0.00305787392226743951623158,0.0266269903831742663080639,0.00462234311627506434111412,0.000413834079447792117702892,0.0578666874142890960697194,0.998313495991675070584392,0.0349382156034774085662242,-0.00702938415324915605308931,9.81522082394612560563019,0.0223789669081525081917317,0.00430668213243425284514343,0.00631326918225974271364764,1.3764493071043177874202,4.2958695611883541687348,1.2293127455503196632236,1130.62391440203532511077,1126.17716759739209919644,1110.5959755540311562072,1128.44863246818636071112,-16.7979914496333329054778,519.204911134296366981289,-431.062704905384009634872,-752.328898329883145379426,155.450322281353976450191
8.18999999999999950262008,0.56879817999587178878329,-1.04647249929037777782526,-1.08575629793290051594568,0.0222964065561703748963307,-0.00823443145111897763233078,0.0235947448586343345999783,0.00463463211016955627802316,0.000414569010536540709811054,0.0578919894366931656048969,0.998311970879294352521072,0.0347892174571696119467212,-0.00620344916928990824933621,9.81322860555325426901163,0.0224812999762387284719001,0.0042951988462075988556288,0.00630949007559052522237097,1.37650183082236865494963,4.29588319764250137211548,1.22932363980221337484977,1130.4141278751308163919,1127.26692730138302067644,1109.50700871842650485632,1126.54461116329048309126,-128.277992027622474324744,387.132059799690466661559,-455.274080637556608053274,-819.078851188859744070214,155.449985559692834158341
8.19250000000000078159701,0.0690957981308629592964721,-0.74387111960668739207847,-1.23709180499713000678241,0.0247383037430958657720836,-0.0126865579981870566644853,0.0207101842877491539030022,0.00463831954071777102788232,0.000414967373209294550055748,0.0579162563259571633311751,0.998310542978527504232034,0.0346349715965062268652197,-0.00593374047823834460668735,9.8113172241318675759203,0.0225884027658098812674226,0.00429256229431156273446124,0.00631455443279651217058923,1.37655494347702722635063,4.29589849452598127044212,1.2293339897812707306457,1129.98252444189711241052,1128.11282789639085422095,1108.31960515084301732713,1124.35323821224142193387,-193.273520146355423321438,294.640575670291013921087,-469.646477496070701818098,-894.686882474794629160897,155.449732828403938356132
8.19500000000000028421709,-0.483090373639650072501439,-0.335137035783590608861715,-1.34189104699489103467158,0.0251688464878827948545403,-0.0155709234439922600268247,0.0178384638194603283023465,0.00463238075079403996414662,0.000416962876693401031553965,0.0579396825548419355800256,0.998309204663822669090223,0.0344258216251900617255188,-0.00626044500996428276984318,9.80945353053984980817859,0.0226994494877079747152671,0.00429467991526922849426784,0.00632888298672204183126233,1.37660821973084535052578,4.29591583061356541151099,1.22934391428973954774051,1129.44776027439888821391,1128.74013017973470596189,1107.15877633094578413875,1122.0711767509158107714,-223.123124659376856016024,199.101192313577087134036,-430.719860442690560375922,-883.929530217340811759641,155.449551955418456827829
8.19749999999999978683718,-1.0296827816423044232863,0.131655783515233160141378,-1.39528039930190961293022,0.022244906436617785383536,-0.015962061819608346080468,0.014880567006477191105418,0.00461590959289652057878639,0.000423571092906208795676043,0.0579606758641724173486409,0.998308051108235727788554,0.0340936341355702679511985,-0.00720778127738927465451013,9.80760518113888402069733,0.0228133032663568012521349,0.0042974472873935571151649,0.00635206211201961093437696,1.37666156319073462732661,4.29593446311277649130034,1.22935419345588203832165,1128.86690881860045010399,1129.10833385795854155731,1106.16600584862999312463,1119.93359056115559724276,-253.942970271423803296784,104.074663311960435407855,-367.304740387299148096645,-837.664475516824722944875,155.449459837756791102947
8.19999999999999928945726,-1.59484680163128422769603,0.65365997193866609560331,-1.40078374403663818981158,0.0151675197617438025504688,-0.013515143896663243949785,0.0112688441432825595112099,0.00458843489095159089152798,0.000438625925513299675176371,0.057978016691378857216943,0.998307153582630890653604,0.0335580102836873853111577,-0.00877774070032621978043608,9.80574265031451730578738,0.0229285504584761587465458,0.00429689053924151975055734,0.00638281951751489169677445,1.37671533399528911445486,4.29595331248370282395399,1.22936520821761585686716,1128.17804542304202186642,1129.26050349629440461285,1105.32225262900965390145,1117.8828543733325204812,-248.327887064949493378663,8.15223152026064745712119,-234.915333185708391283697,-625.289239107034973130794,155.449454078061933159915
8.20250000000000056843419,-1.95599992083996898628584,0.986489768288793755779409,-1.35262516706617064166096,0.0084116126206309742990852,-0.00952455142530974664671906,0.00807638308440060924409121,0.00455169442046713182414841,0.000461794342859120614946944,0.0579922237273965482384774,0.998306473646525915910388,0.0328263617249559269684056,-0.0109210896260435383342546,9.8038406500039645408151,0.0230435971253253844837072,0.00428923395224510995565881,0.00641884600399165571732452,1.37677034203731452066677,4.29597175955257792878683,1.22937719209876905601675,1127.62526938327550851682,1129.14909501555985116283,1104.99142918270126756397,1116.8071443656199335237,-220.199765970357617561604,-93.2505314267327491961623,-44.0113797167145435196289,-274.461104776721924736194,155.449537953251422095491
8.20500000000000007105427,-2.20711266336839262436342,1.1559322680685775175391,-1.24151199650969124022026,0.00310996222481867016021462,-0.00468168305213422474009288,0.00428999542270246114750165,0.00450953272785393956961775,0.000489790253611628264608646,0.058004141153650594364688,0.998305945861180044076377,0.0319701055115911500492665,-0.0135383315942884177585093,9.80187992747596936737864,0.0231567272554281458618597,0.00427095238343651491252917,0.0064569683324547013508754,1.37682692232759795736285,4.29598995040687636759458,1.22939054440071715568195,1127.07704659319006168516,1128.79425083916066796519,1105.10219573042604679358,1116.51054884944869627361,-252.478174348384726499717,-208.505305481590426097682,152.953543266706645908926,43.1201323052932181667529,155.44971527629920160507
8.20749999999999957367436,-2.41539073290398587090522,1.14937699688227890071346,-1.03245343519958199252073,-0.00130421935043218491408201,0.000900738178430057073731163,-0.000546285589529536602312887,0.00446534215665405926493081,0.000518851348749830849731157,0.0580151613466813251274168,0.998305476241364231348996,0.0310731610930683084526027,-0.0165278351171445417322481,9.79984902700584648016502,0.0232662323785298892631079,0.00423868120509216395747076,0.00649346305753077581573995,1.37688515302711933507851,4.29600887822080856892626,1.22940586205510182793432,1126.36287851153383599012,1128.10656848815210651082,1105.75619689903464859526,1117.02274502714635673328,-284.028235817278243757755,-288.833845703220845280157,322.555637936370260376862,310.106530933805231597944,155.450037460256424992622
8.21000000000000085265128,-2.52542700202742809167944,0.982702966992003545954049,-0.807263297333018159385176,-0.00444833495165472894705694,0.00486974896819829944361047,-0.00389179048692754039548425,0.00442332978289752473677332,0.000543870604344352023135079,0.058025346302622078653588,0.998305046254055694632257,0.0302500118796421926803397,-0.0197631179529356090784908,9.79774492040190381203502,0.0233706118039938084973706,0.0041893445051206555998502,0.00652424421013459310964011,1.37694479090223476092092,4.29602920513616304276638,1.22942321017463052079677,1125.65690541410344849282,1127.35008161064433807041,1106.71497392010815019603,1118.06108150411796486878,-320.527963098170346256666,-325.843728833337081596255,459.375442787014492296294,505.738888531334907838755,155.45039792509228959716
8.21250000000000035527137,-2.54794129874290797843628,0.692188578108585694792509,-0.563931015225775378318929,-0.00947154716741701804827436,0.00749437583517551138279078,-0.00533491796912468306535171,0.00438898016856246412503717,0.000559177123121781761636018,0.0580324873297114046666323,0.998304764464456595440822,0.0296303855604758935304854,-0.0230844636388103027768715,9.79557329378679852993628,0.0234687487633507482764905,0.00412035113329969459455837,0.00654518028826115479817949,1.37700444073263961186626,4.29605101557180901750144,1.22944222985227780142736,1124.76023869604273386358,1126.47734984398516644433,1108.05307411297008002293,1119.55143946980342661845,-448.521359829190373602614,-385.813364491590959914902,658.617310785297490838275,717.331067355423215303745,155.450854619761997810201
8.21499999999999985789145,-2.4098391518692143797864,0.272049233792621136807099,-0.301007741626412916868816,-0.0185276339896286272590498,0.00824875957913071000682237,-0.00481361879040477502744722,0.00436595572296882665497275,0.000561952882236424326213575,0.0580367792085948464020362,0.998304606943607342195435,0.0292881568221970284282563,-0.0263579135452371160486251,9.7933486931882640647018,0.0235599911567250241972715,0.00402956069179716356437604,0.00655256125388827340150222,1.37706352216793326270761,4.29607417207139619108602,1.22946251873697920409256,1123.41429861495794284565,1125.42101478818676696392,1110.0080604740339822456,1121.6477368408943675604,-536.565031457637246603554,-367.801862235119585875509,757.408603315766981722845,792.632728849387945047056,155.451514513762504066108
8.21749999999999936051154,-2.11486215186926607145779,-0.0847244559803842917089511,-0.131009488255280331925334,-0.0268260485989816992169477,0.00702711222527896417489046,-0.00363329030133775201724666,0.00435407929903885732719759,0.000552287338993374108710166,0.0580403656384013491575935,0.998304451953808902331389,0.0292370542779848106851315,-0.0295167906918587519271568,9.79109371358182301037232,0.0236441059720178606284868,0.00391552101306606552266754,0.00654334139144868535964417,1.3771222250826717914407,4.29609840428660927358351,1.22948329157880498208044,1122.07741353875508139026,1124.63834053280993430235,1111.84011712954816175625,1123.51460311404957792547,-564.592074162467724818271,-270.040273296266207125882,747.809234348070731357438,745.193816485445381658792,155.452157898550836989671
8.22000000000000063948846,-1.62045660220210474555813,-0.402330019691348406141174,-0.0148813598054991346603115,-0.0336364096949064023123199,0.00497201488928111431930823,-0.00280894017157124311137584,0.00434955955507845999641336,0.000535537770208733697636927,0.0580444213246965670660593,0.998304245004359325221799,0.0293838429452605749692129,-0.0325567714035703698050028,9.78883760157046189931407,0.0237211475690364964608037,0.00377783327335362529783569,0.00651538054697141551241391,1.37718094122286327518623,4.29612295913864450369601,1.22950420079339695078602,1120.59133824414516311663,1124.07081342170522475499,1113.74710664577492025273,1125.37370592332217711373,-600.316255615504701381724,-180.24934304791625550024,750.564746584333079226781,726.982317802662691974547,155.452898190310719428453
8.22250000000000014210855,-0.984265342356746564256298,-0.671421936977273148272616,0.0717607708047631742687145,-0.0385737968026175007119072,0.00284885111187896042372891,-0.00253544909067122004736605,0.00434993962794394482124227,0.000514190419135527264880847,0.0580495247558165949897102,0.998303961792232352756571,0.029692098469355627382571,-0.0354509024458286511882754,9.78661362662813871793333,0.0237915273270330462906941,0.00361733372901664124512977,0.00646707793462245224269669,1.37724027426118511563402,4.29614643136319074301355,1.22952572807668558674266,1119.07583226067708892515,1123.73709381757021219528,1115.59294086247041377646,1127.14951470306345981953,-586.312604181446886286722,-73.5366519626641945706069,690.630338985603088985954,675.928487676399413430772,155.453718126258365828107
8.22499999999999964472863,-0.237224568121906065343296,-0.880093286573501165648281,0.150281019591886250141854,-0.0410509658668182647600631,0.000815430673533889052717605,-0.002853791946792075782946,0.00435136642559097799876078,0.000493604527239248380178493,0.0580573655346085029660408,0.998303519071688461039571,0.0300657857484265787773037,-0.0381990191746847881915095,9.78445749804184217168768,0.0238559579366634383346124,0.0034359674838251893884411,0.00639775281484632196704609,1.37730033319596878449431,4.29616759342790555109559,1.22954864909585337429121,1117.65977522323851189867,1123.70313016189197696804,1117.20025834070224846073,1128.75334836170350172324,-568.295091418487913870194,48.4991519268911943640887,612.270801248537054561893,650.835990955136480806686,155.454632279021694785115
8.22750000000000092370556,0.683228007955086313884863,-1.06729865872209050969843,0.265765901815532556984323,-0.040333653073683264911331,-0.00172419648681170325013601,-0.00341288150612741123662852,0.00435100022329937882042961,0.000480310464674816922289735,0.0580692960158361373701474,0.998302847381996150133432,0.0303843821757603001210146,-0.0407847537935559084631976,9.78240480512338805851869,0.0239154982789887629590631,0.00323668480862577536902314,0.00630770456686750337349512,1.37736038075492328580651,4.29618554905508975849671,1.22957248157754328587998,1116.2343568035842054087,1123.97958957720470607455,1118.65429486871357767086,1130.40369465783965097216,-460.8275593663809672762,145.046368533371662579157,432.915372063303550476121,549.846342555161299969768,155.455834594932440495541
8.23000000000000042632564,1.38706010497063303432697,-1.17508296148372881617661,0.391103346720720612683664,-0.0362046254344791304524698,-0.00414744584425480455891488,-0.00344028765315003643224245,0.00435113003356253549153143,0.000472619115043272240619249,0.0580855286868241019182513,0.99830192181555765795764,0.0306901702865568018485654,-0.0431077257918713180329107,9.78048789571450249979989,0.0239716465459859154329969,0.00302318106945447927919046,0.00619791752501077080478309,1.37741988774236245873794,4.29620065386209049052013,1.22959615978604963615339,1115.35563742640624695923,1124.42836200455894868355,1119.36483520101910471567,1131.50258007447973795934,-279.231238426028596677497,210.016357961736446213763,169.977617194979018222512,372.755585445003418954002,155.45692079182583711372
8.23249999999999992894573,1.94124829114171393307231,-1.23421976016447199064885,0.545376743139506681146145,-0.0293404886138839103570941,-0.00700811627780835270928872,-0.00276661828795525966545599,0.00435391090454864161662929,0.000467118405954064616798782,0.0581061701698242019653584,0.998300725753333395573463,0.0310545856391538747931502,-0.045080544842659581172839,9.77873419372744123734265,0.0240261461290328555417961,0.00279941732808357008482902,0.0060705101399647224194589,1.37747867270928026073307,4.29621359839751981724021,1.22961862898648743858132,1114.83820061145434010541,1125.02967136701317940606,1119.5041829546883036528,1132.26747258506429716363,-147.178698788804638297734,278.710941536074585656024,-62.9194221065188372676857,252.38537584046318329456,155.458089208298588346224
8.23499999999999943156581,2.38376104976345537522775,-1.24787949545511755999883,0.749180822696063897225827,-0.0200661646249665967522979,-0.0109577997510154276361583,-0.00137792081293811518802328,0.00436091079564993999023725,0.00046166732012771911604701,0.058129893207822830314413,0.998299329032888982382588,0.0315188549650327401452365,-0.0466351370724777530840655,9.77716420215038084506887,0.0240807911474846605970335,0.0025693830135242938343676,0.00592881529246115819564711,1.37753745689351414505097,4.29622467349167891370598,1.22963847335214704337147,1114.61974393246237013955,1125.82191671223904450017,1119.05023809048657312815,1132.76450695368180277001,-19.888273913508403012429,285.532704043544924843445,-254.076973017305448365732,109.726684824528220474349,155.459578929740303010476
8.23750000000000071054274,2.56873519070839773092985,-1.21286047181730904931385,0.917829043414652656629471,-0.0126596145532409162098864,-0.0143289357440925576442359,0.000293001539135648270909679,0.00437392328120870220453664,0.000453634463287367467859007,0.0581520017979125433682519,0.998297997026289740674088,0.03212923108810641220634,-0.0477092184515118256094013,9.77578955528579740530404,0.0241373308815326127751977,0.00233696694085081067143728,0.00577704822157354240530491,1.37759627610269985709124,4.2962338579535161997569,1.22965513932313497136306,1114.73875924188678254723,1126.45733488723112714069,1118.23379808960157788533,1132.81610600918702402851,100.921989717910633999054,230.029180939628048463419,-391.427827982381813853863,-55.8279142136510984073539,155.46088707762612557417
8.24000000000000021316282,2.5986332668226368447506,-1.13761194354878525381025,1.05967156457744882125382,-0.0066372400792634967878203,-0.0171458934922136749245958,0.00271961915274360763530859,0.00439553379948260519727299,0.000438371036164360034642629,0.0581695496449560617291397,0.998296891105587835824053,0.0329672154219796398333386,-0.0482373349380463903313121,9.77461162302139108248866,0.0241974482551547444286744,0.00210551090434106481438792,0.00561985565015315872983148,1.37765472457030879738227,4.29624143169844696643622,1.22966885733757558263335,1115.12435388105200217979,1126.97206261693736450979,1117.09309895057435824128,1132.48536738261350365065,222.542962825626716494298,180.328842809821651371749,-542.779927780492243982735,-234.431228665381496512055,155.462256194261897235265
8.24249999999999971578291,2.51072342828106753742645,-1.01458383335155089000068,1.16690213753152915998612,-0.00105763632697073524553677,-0.0197762406840715776468187,0.00668479408199678000468413,0.00442803771184908153552007,0.000412399665256685710353068,0.0581812194882909070048349,0.998296079015715154270083,0.0340862957759054188699999,-0.0481679900823299422807366,9.77362108987513700242289,0.0242626356599384834789035,0.00187763055535386481562088,0.00546207507868600675854376,1.37771269274789753822574,4.29624796907550621227756,1.22968033118029484995759,1115.85147405601469472458,1127.35897910128005605657,1115.5198984506996566779,1131.64394986586034974607,305.932074083009354126261,93.6927209750446223779363,-585.87130605837887742382,-380.900100158427960650442,155.463959882532009260103
8.24500000000000099475983,2.36318635615649919046177,-0.892285866778459779702359,1.185371009397972574817,0.00318322473216482498478697,-0.0215763471884439679560064,0.0106552256553335000788252,0.00447094050944242017708863,0.000376325031727270007623348,0.0581869855549559458762765,0.998295563608212477291204,0.035452781811180930637839,-0.0475084363213191251951173,9.77279829026408997094677,0.0243340542644884215428558,0.00165510803813812956003515,0.00530854998215312800374788,1.37777027567212106973216,4.296254657185597736202,1.22969002479038924668941,1116.65401425146728797699,1127.44052622181266087864,1114.16374242028200569621,1130.5808668818210662721,357.433541172293701038143,-23.4765284760178154499499,-523.783507777952763717622,-491.392532422983606466005,155.46542328647197450664
8.24750000000000049737992,2.14712327314330808647469,-0.751139285294046832319736,1.12340052849241955890136,0.00781736369871463901426445,-0.0233022523058403138729311,0.0144743862043507191816882,0.00452084393303053746343556,0.000332418980681088108847243,0.0581885566944017607049489,0.998295259066685591875512,0.0369934368261660220800202,-0.0463288387454126870945714,9.77211385958555744934984,0.0244124699460817710938709,0.0014388953666534106887176,0.00516375202749763152765272,1.37782783553887777650004,4.29626204898248342800571,1.22969825798995358034915,1117.63864176187644261518,1127.24159645889994862955,1112.90098091180948358669,1129.18698720374504773645,420.889233028394357916113,-125.773941439344994819294,-471.083279682719023639947,-597.679095830545293210889,155.466923886233502116738
8.25,1.86543407198844213290556,-0.590991265453414849062597,1.00365469817992702949994,0.0127585589934377883342131,-0.0250703625437144715648596,0.0176068482490507015325587,0.00457320402597483077755669,0.000283383795863300833560439,0.0581888112786698996625745,0.998295016899477971605847,0.0386224283922043526429135,-0.0447284566305541503306031,9.7715300517169794147776,0.024498218923357614751346,0.00122929456870327384263031,0.0050315128091475919483444,1.37788611353878054366362,4.29626972718184862998214,1.22970551669404914996164,1118.75846041660884111479,1126.81165651461606103112,1111.808326021868879252,1127.5924714026689343882,475.67408273662664441872,-221.27051125134894959956,-377.872024103665069105773,-658.452828655294069903903,155.468449390879413840594
8.25249999999999950262008,1.48928259113785710354705,-0.403318666064525155334763,0.837451796112601565269529,0.0176963757569905261179954,-0.0266545629989740559540046,0.0198054424741813568655591,0.00462448068479170797118183,0.000233663118938729933793744,0.0581902798338713167503045,0.998294704304577007469845,0.0402191482027887611816475,-0.0427912513435918101523114,9.77100276789635380225718,0.0245912188736724240945009,0.00102619798143552525687694,0.00491493685713460803921038,1.37794519417037175657015,4.29627749846987239124019,1.22971179738594771357896,1120.01701217555910261581,1126.13524390264342400769,1111.01162079129153426038,1125.89472306046923222311,577.60611872590811799455,-340.489173738561930804281,-266.450834722949537081149,-728.335542566560320665303,155.46999789097165489693
8.25500000000000078159701,0.920696116833433886306182,-0.146168334984756564942643,0.619389666424676521572223,0.0229778139393688879410504,-0.0278683122290929730091591,0.0215990402276768529710171,0.00467128146950355257333021,0.000186974986892430531520981,0.0581951328207827717209355,0.998294209742680793695513,0.0416762694548329787336272,-0.0406046341318013204180204,9.77048388099766462744356,0.0246910704815079262708366,0.000829190987669625604108981,0.00481618248819954460765436,1.37800477022800471615938,4.29628627403752538782555,1.22971724468247511907748,1121.64649101023883304151,1125.1092106459229853499,1110.47607184825392323546,1123.95079368983556378225,610.208492998022052233864,-399.794313790636181238369,-122.613308525277645344431,-667.460916873856376696494,155.471873767454979997638
8.25750000000000028421709,0.360842830475286813207703,0.0894556966226763145000334,0.446184808668530441533306,0.0263924179520641961904648,-0.028180090977629006915306,0.0225816781081391824981264,0.00471215455309925874971544,0.000145709597894361377436526,0.058205443384680977114698,0.998293419460847264446102,0.042914402711366102238788,-0.0382245732813107294556509,9.76992386160785919457794,0.0247971384948229567335432,0.000637717286326393252224309,0.00473633167644169419951972,1.37806490753920063419002,4.296296782327379659705,1.22972218248610953850175,1123.06805464054968979326,1124.13627233368993074691,1110.39855424866505018144,1122.55741847609942851705,572.504462199663294086349,-400.172336518596750920551,38.1922074086636271772477,-483.808914203023789468716,155.473445354674822738161
8.25999999999999978683718,-0.246564188051865473827462,0.336193954563858476980442,0.305792771199171475871026,0.0279449293619142419276002,-0.027730933661464715611622,0.0230679078739392702523947,0.00474687183256043525314549,0.000111933643935533544281138,0.0582228442945585469847636,0.998292240393609753290605,0.0438625394388494002639867,-0.0356879655118420291426418,9.76927484828422443285945,0.0249086150135783140902035,0.000451357717266474508556462,0.00467537109749595596736027,1.37812596800070696900775,4.29630937457918626876108,1.22972636859687800559016,1124.50901332123657994089,1123.10834896333039978344,1110.66703288529720339284,1121.53174911882092601445,626.618938201943024068896,-452.868400261785666316428,173.950607384938905397576,-352.737780478971387765341,155.475018154273868731252
8.26249999999999928945726,-0.947596197580372057167608,0.629181506113854593920109,0.195519898372364997474193,0.0264005197581594075462164,-0.0262948769226431754153506,0.0228427130561772995243075,0.00477696145902153142953628,8.66632000187685769916277e-05,0.0582449039124176837223246,0.998290808229437054421851,0.0444737103097951128050092,-0.0330024941559842188709695,9.76849358491288377592809,0.0250246296657919524430991,0.000270350304559414944538531,0.00463207599757853999422608,1.37818797137574744482436,4.29632312175456743119639,1.22972948217579758356521,1126.2011493315587813413,1121.87193033238145289943,1111.26830728558957162022,1120.79372957370492258633,604.336293791535467789799,-446.995932792672817868151,241.19843847662062330528,-191.032849053969727037838,155.476898430106160731157
8.26500000000000056843419,-1.43671238922254551617641,0.858896849932710981789796,0.158695262734894732004065,0.0220735190869434244609337,-0.0245162810850933499118298,0.0220544764939608790854653,0.00480447010469045240887986,6.85869585978503054548433e-05,0.0582691278044771138189262,0.998289260057831140393603,0.0447489856398549379346008,-0.0301724048747472745057863,9.76754435006175647515647,0.0251443894215190068275323,9.5662060617596479639678e-05,0.00460384128071145495852967,1.37825082081785010856834,4.29633646386457979104989,1.22973206996570172400141,1127.53069479019472964865,1120.87336929936668639129,1111.87302507768049508741,1120.57658487355092802318,500.857425203470427277352,-384.668358046368553004868,229.62952391932097384597,-19.7034160291847122437048,155.478453340134876725642
8.26750000000000007105427,-1.75312556078404746529031,1.06018428609123405159664,0.170361829175406154224248,0.0157484395880369762443785,-0.0222660604062746986242516,0.0214480689033824806211115,0.00482821239443669610741372,5.81473213735186959761833e-05,0.0582947979444328814868648,0.998287644109849159335113,0.0446541994761768742949748,-0.0272670310284719996651859,9.76640234404842111359812,0.0252672354004526214521498,-7.10334211474450926120799e-05,0.00458680402458073923493975,1.37831436989631295197967,4.29634768432337477150895,1.22973511798381518467238,1128.70543645757652484463,1119.94858854214930943272,1112.41645490518635597255,1120.6952124935589836241,462.385991676275011741382,-377.71669384854487816483,193.017929926138293694748,102.999608159118480443794,155.47998867053115645831
8.26999999999999957367436,-1.88927980649506066512799,1.25300571795928572527146,0.207454038759321501839139,0.00764935735887532514826193,-0.0188975457608000566023243,0.0218156752818797275428331,0.00484741636270857867430095,5.50077063015135222828929e-05,0.0583208361651103845968436,0.998286027864287994759707,0.0441741612935955471619387,-0.0243521322505087303711413,9.76505556953435949196773,0.0253927126279616839632514,-0.000227353301141255151286355,0.00457572060219532585761959,1.37837811334302773325078,4.29635567801365159112947,1.22973999190452021323949,1129.8426247485756448441,1118.98478583012433773547,1112.83811472731099456723,1121.09158291434641796513,359.00393353571263332924,-318.375694163883281362359,104.184496405088879100731,167.506801767168525429952,155.48180029342216812438
8.27250000000000085265128,-1.80183496476007221076543,1.36140807534232499698135,0.225677626557484828362377,0.00130403439297620792058918,-0.0153900005278011283577078,0.0230936470573774553505242,0.0048574980573286349189166,5.8027578710387213423421e-05,0.0583456177016377849908757,0.998284529177923984910592,0.04330890409851279043707,-0.0215717777295481721866466,9.76350690333384108043902,0.0255205370289716196308127,-0.000370569043641427015543799,0.00456418037797519642734256,1.37844131981346484927542,4.29636033790591653769297,1.22974895627176428192229,1130.50045612525536853354,1118.35671007132964405173,1112.93737738721188179625,1121.53274650239495713322,193.924577176646067755428,-201.982809867936595082938,-9.72046163901571169674298,180.079904286430121373996,155.483278486515558824976
8.27500000000000035527137,-1.54415146095819255656068,1.40539471131971316353315,0.198036330040537944530143,-0.00403113890311327001392261,-0.0111388194102827724901728,0.0250605346999258835061219,0.00485653935685559021151469,6.6369881814039676632376e-05,0.0583668774252632110988159,0.998283290747179807844702,0.0420600727355171857824168,-0.0190199095436443810225313,9.76177451981306809614125,0.0256504586949506813153832,-0.000497965449919913344389855,0.00454511584079396891572289,1.37850361398581733318736,4.29636179405393203722952,1.22976337980790884074622,1130.81224763445902681269,1117.97487178078449687746,1112.78951241911590841482,1121.99198243577870925947,67.6270568094558228722235,-104.401786093897356977322,-85.8483141012755197607476,178.000375047703471409477,155.484717112548707973474
8.27749999999999985789145,-1.19490152600755128453613,1.39644034882146139686654,0.121375489350239507135854,-0.00800521453035814810339499,-0.00668470926379590314053702,0.027046957175819990454313,0.00484832012670481735799877,7.78588392476334506357716e-05,0.0583823045147861402481837,0.998282429775959379014694,0.0404670523571960746855858,-0.0166819861194674734505838,9.75989129277138189877405,0.0257820643827209108889242,-0.000607269983418767984872932,0.0045114382913496401533715,1.37856478958284522917666,4.29636041475815311230235,1.22978282856796239386199,1130.83859140930258035951,1117.83470114086026114819,1112.50813581670558960468,1122.42274837763329742302,-48.7867510379243611851052,5.46360877874685257893361,-118.245053324495401625427,162.355676300499453645898,155.48611785947881003267
8.27999999999999936051154,-0.810177207915202979293667,1.33951445478280284362427,-0.00479379781231145316033881,-0.00952008357111187343557734,-0.00301528880173908536005412,0.027993604966153082941327,0.0048373962758982702592192,8.96667886640099853247377e-05,0.0583923837214743446377696,0.998281896631370457839694,0.0385886987679942908280317,-0.014528817620287973189086,9.75790419128015784622221,0.0259145092042697908207849,-0.000697225962115323926945876,0.00445688021746750307611196,1.37862503884286913269364,4.29635730048025799021616,1.2298058101826749854979,1130.56831387926945353684,1118.0021898246782257047,1112.19828715249354900152,1122.80376081728104509239,-167.927351198996916536998,139.090763619766306646852,-107.890244844367273913122,158.872779864052688481024,155.487466922378501976709
8.28250000000000063948846,-0.400395578231626136922472,1.25014988890288569756137,-0.178600609993068371039726,-0.00846449727564633352949741,-0.000104157600185023546321417,0.0272393050123340974000286,0.004827835764562867816585,9.72038059523664337664359e-05,0.0583991154855370425691419,0.998281555001272469240803,0.0365242723048719367118231,-0.0125404561378705328711369,9.75587234737320052602172,0.0260462911836416843858188,-0.000767821183541028315887311,0.00437660386129716267450407,1.37868554526477260502304,4.296353668435616945942,1.22983043588664764378393,1129.99895465330746446853,1118.53015495895920139446,1111.96868459248366889369,1123.21711227695368506829,-235.164588050256128326509,237.080502643638510562596,-42.1061272467275244935081,148.610320301281234378621,155.489018683462944636631
8.28500000000000014210855,-0.147447645286155837318631,1.18131896339731667922024,-0.3140036909658368569076,-0.00641762540901471157522851,0.00157853950800077892646645,0.0255347451340151194998374,0.00482073930990477815539119,0.000101219109920042680313829,0.0584071382670395058966939,0.998281126163591436828426,0.0342729532899891664587955,-0.0107443718855128877986971,9.75386504398713505281648,0.0261750783703684798686684,-0.000820494687600002280819522,0.00426798600377015138057635,1.37874793585204868939798,4.29635089246953594255274,1.22985410705878428494486,1129.39249093901798914885,1119.18759233789660356706,1111.98775651625987848092,1123.54681241878756736696,-258.586174752560111755884,288.637204257896087256086,57.6322792973429471885538,133.947900267302713928075,155.490250915820865884598
8.28749999999999964472863,0.00200902966962289430963295,1.13012912366189977042552,-0.419181053311710571929183,-0.00462374010324148078387996,0.00329462045564380204276667,0.0236773072326745548377147,0.0048164531238916261784988,0.000103652944830450575064602,0.0584184239420140888343624,0.998280491082241150380128,0.0318176074471969161372442,-0.00917462689406571552108716,9.75195781533569672205886,0.0262978684202928546242983,-0.00085780983780551405080278,0.00413048995989767370878853,1.37881285264580655258726,4.29635007602151919314792,1.22987526374937838902213,1128.70602377954492112622,1119.97334098024839477148,1112.25684598897032628884,1123.88685177829006534012,-318.065210683057841833943,346.74423042542036910163,162.999475109219929436222,154.550598489571200389037,155.491414484794745476393
8.29000000000000092370556,0.0972608213074399319264529,1.07928749987585437253301,-0.508718498164758670121444,-0.00355712421739445405072244,0.00605579730001863745375568,0.0218643039508109732205199,0.00481523929684568412212808,0.000106224525407262650883444,0.0584337619497847238214661,0.998279601209071332235112,0.0291531627456391023711646,-0.00785871228020688233906199,9.7502286579267742894217,0.0264112960844878931487845,-0.000883341808699980731399426,0.00396538917860982977059425,1.37888028335983192640413,4.29635133473765584710691,1.22989344684862111911627,1127.80216488560245124972,1120.92131349002397655568,1112.80275389180610545736,1124.31956541123554416117,-349.01215546114144672174,325.328247035344304549653,219.162800383503366674631,160.721487830162345744611,155.492725670113429714547
8.29250000000000042632564,0.151539697490778169086667,1.02903054220370138160945,-0.561162325425042518567409,-0.00387238191016659729845606,0.00902726927794159257623097,0.0207332994237230255896165,0.00481833323087938521916973,0.000108785818373684854925947,0.0584518824902281672328819,0.998278524566135860851546,0.026319536297423989229527,-0.00679734034656559460430003,9.74875420974393946949021,0.0265120108893293522644985,-0.000901355900523834381067589,0.00377531916217693384527077,1.37894962419328148683917,4.29635476451458053759325,1.22990855018219003014224,1126.9609630022389410442,1121.59998221542537066853,1113.35265999088801436301,1124.69045921744100269279,-361.871040581972181371384,222.145639628523525743731,217.5418493087796321106,142.82031437995215128467,155.493743635928723278994
8.29499999999999992894573,0.234648389655684630472621,0.951688686824542773301516,-0.602761735334786385998029,-0.00493394812647173896386077,0.0120869928327936790313224,0.0197662016007711174858663,0.00482596214002435804080182,0.000110282858637547360059622,0.0584720285100624528884516,0.998277304969832246506201,0.0233799831288085437075441,-0.00600109454280188525654438,9.74760667465690211486162,0.0265969871825793777175839,-0.000916652531174657323777277,0.00356392926607001885030979,1.37901986318583280599626,4.29636117756275659473886,1.22992093709742955631725,1125.99280968269295044593,1122.0320416881663732056,1113.8904631383497871866,1125.03366698313516280905,-457.782925159608680587553,111.094951907011179059737,217.434558972624984107824,130.253593062187519535655,155.494680038638449559585
8.29749999999999943156581,0.408872607078161864890831,0.817606186480446472941708,-0.648444929063576758210274,-0.00603964325285610663385238,0.0149204749281192424609221,0.0183979695592150875593784,0.00483675753344718281634407,0.00011043124060322552157376,0.0584941557731472536185713,0.998275952972781488448106,0.020386704750832786853243,-0.00549951200013990698645117,9.74685097037235870232053,0.0266637329171692874507649,-0.000934197786038815959630544,0.0033355996525070812086522,1.37909016525591554547248,4.29637097886855290340691,1.22993123521451153123962,1124.67204837644135295704,1122.15545697496031607443,1114.43983278575092299434,1125.34172718275181068748,-505.091026012599456862517,-26.4589822986594782605607,182.255358687524392280466,83.3482226060238389209189,155.495705329466517241599
8.30000000000000071054274,0.623716820222776413551458,0.670861454755745101330433,-0.683573653858898566682001,-0.00667636479455333692323293,0.0164964648846679211302568,0.0168323523392465319858946,0.00485075625456951251002202,0.000109734861405386694213626,0.0585180454678340747354248,0.9982744826055722775493,0.0173823987794040450693966,-0.00528280387173998833283406,9.7465418167111295133509,0.0267104050631936686122092,-0.000958593797159103364231847,0.00309514764343249990444229,1.37916065899633366598209,4.29638296999077340387885,1.22994025518032379373778,1123.46735455262955838407,1121.89974677667305513751,1114.80173993178755154076,1125.45040809616534716042,-488.533441139967237631936,-167.647690922032040816703,129.599218060118545281512,-1.42057518046363462360659,155.496475242426726026679
8.30250000000000021316282,0.890506505566714845478771,0.487378619555989767153648,-0.713297053315295803699314,-0.00650351497700852199806976,0.0177880938443247677005488,0.0147378945272054577564358,0.00487194290227250647457025,0.000106843556298189012229022,0.058543683025032412781119,0.998272875426123196263006,0.0144527951672602100741116,-0.00525621452596059662853989,9.74672137655041659343169,0.0267358916664239276705928,-0.000993677612031272118608971,0.00284749178104934689767513,1.37923228185676993717834,4.29639599235944125155129,1.22994751050385198176684,1122.22938117074113506533,1121.31721852035002484627,1115.08782887605161704414,1125.33462430684949140414,-530.994885665737569979683,-301.17447814510876469285,118.022689741543047148298,-114.744789301244139778646,155.497155464438549188344
8.30499999999999971578291,1.21051836938036583291023,0.22156509144325226001726,-0.744305264167617330883786,-0.00398513949573025237638202,0.0194219632660802624113394,0.0120513337905924604320784,0.00489982816290628151595365,0.000103163058994528610478811,0.0585687262494595933803865,0.998271269711797248902485,0.0116252589447222477725408,-0.00539989740880236768205691,9.74741903966935829828344,0.0267398974551409894517828,-0.00104218852769420353664154,0.00259774532706872566395484,1.379304990533110730766,4.29640903894802583806722,1.22995254008958188052247,1120.81238012430139860953,1120.39387438594781087886,1115.39185338049514939485,1124.87668414965924057469,-495.340896428447081234481,-344.367040075249690289638,109.467351747463169431285,-223.773337461772399592519,155.497867321415327523937
8.30750000000000099475983,1.41862502687798808231889,-0.0371036184557597195632361,-0.774068448380922924378922,0.000560663828774578786029448,0.0205852895478993158651093,0.0102832452735908477792215,0.00493033847878368916561875,9.9988471331985328215651e-05,0.05859032113178124639985,0.998269851264377172661568,0.00892349542613268473245647,-0.00575667501364171552147297,9.74865040892200696021064,0.0267231099977725192196054,-0.00110577131635525402648945,0.00235085484782165390557629,1.37937780302717194480522,4.29642139711414916547483,1.22995560762595879111814,1119.75267668859851255547,1119.59538331997350724123,1115.63516563478901844064,1124.21575761954045447055,-391.860374527989392845484,-285.615134870614326700888,92.7453431243375803205709,-314.461511783016192111972,155.498374074068266281756
8.31000000000000049737992,1.50485209457629509621768,-0.321365873175702754238614,-0.821123519283847969063572,0.00663891638949384074036564,0.0209946144270052766078738,0.00938545930114066499772019,0.00496158055939116028609792,9.68605342341679486804426e-05,0.0586051609278198937236226,0.998268822240344966267855,0.00640399776236972705784067,-0.00632372408926606954793215,9.75041635612586610193375,0.0266872832820417328625329,-0.00118499067867105850257459,0.00211128705830005867702392,1.37944981578316139270157,4.29643230615749782685953,1.22995718743829862695804,1118.85307825166114525928,1118.96579871159451613494,1115.85558009611690977181,1123.30437659074391376635,-335.285860060478967170638,-198.683787088924390218381,75.4489501959747030923609,-389.702859922258767255698,155.498792999815833582034
8.3125,1.46863114269033379066798,-0.606025152582612136598073,-0.886571798265536337169124,0.0126846198949656496085536,0.0203184126139422972789905,0.00889977550130093865432546,0.00499451090557266781655432,9.44702056505893126951701e-05,0.0586121240227760326169104,0.998268242882157208484273,0.00409835920290745406302513,-0.00703826990714212508137848,9.75270328655058449385251,0.0266351493089566765393172,-0.00127960672818737235256759,0.00188302174097880925703052,1.37951994605328631671171,4.29644146834555940017708,1.2299582136543092403258,1118.07624738829645139049,1118.60196438452908296313,1116.01241038576881692279,1122.26724331992954830639,-289.536586416773673136049,-62.0241492714863582591533,30.2809532034249286880367,-413.141470047403686294274,155.499141470615114712928
8.31499999999999950262008,1.29685104490082614425717,-0.856732621364827862109337,-0.960105030306507289949991,0.0172820128666573494258252,0.0178286393350850572159239,0.00776816184124236135122299,0.005030982638141346871552,9.35644229556541298957126e-05,0.0586125815002474376269603,0.998268023630699219417295,0.00203059627379741699376714,-0.00781876222525158121046118,9.75548411040622731604799,0.0265702011884607243452638,-0.00138878889958254253013392,0.00166943507772555205237452,1.3795874586280063578414,4.29644890859993378029458,1.22995939398838172174067,1117.40539531957756480551,1118.65567796523714605428,1116.00698486213400428824,1121.23866924050730631279,-282.532030709172829574527,130.336649776770713060614,-63.1700961319794629389435,-401.128324526672315641918,155.499409000302790673231
8.31750000000000078159701,0.985011441681955868254761,-1.07847367787026060526046,-1.01465969085415386174986,0.020248354162558795943383,0.0130530946065797216759652,0.00477746658860084532499668,0.00507232587521694658350135,9.60646771643052410812047e-05,0.0586092890469259927832546,0.998267997286864217088009,0.000192340050546907634018701,-0.00859302713819803942740805,9.75871951834332662656379,0.0264963429238575520763277,-0.00151125128750060591827087,0.001473408093026784462104,1.37965231086599349197286,4.29645449733506179512688,1.22996075103011159868061,1116.66358723475036640593,1119.25364763341303842026,1115.69655990510887022538,1120.26160169729587323673,-266.221920534102764577256,307.79478418639621395414,-177.20876872173860760995,-281.625734353839675350173,155.499643096703010769488
8.32000000000000028421709,0.681524992756380343372768,-1.18517880031592603984336,-0.994155259460144269390014,0.0210078681203650398379157,0.00870773658792262615635504,0.00125917137135695181814066,0.00511576564850936121170433,0.000105081867865033207849398,0.0586052320398966972159194,0.998268004524324070736441,-0.0014625049260941005990766,-0.00936969447654120018986745,9.76235976207161471052132,0.026417495687620744238,-0.00164538007091549753901916,0.0012974236249026949337193,1.37971530898023009292785,4.29645871944940616060649,1.22996199485017432273537,1116.07428571690684293571,1120.19465188616936757171,1115.12094101852517269435,1119.83054056873788795201,-226.693800541033482431885,463.585281568249627071054,-302.078862700469528590475,-66.9523657884516438798528,155.499771453236036222734
8.32249999999999978683718,0.372775160326078214279022,-1.2242269136132744034029,-0.870667256613209539217735,0.021006077533639831711465,0.00523170335393096427173409,-0.00266289757765246840048867,0.00515557093477735182279753,0.000124143897228264050254173,0.0586031331354421869406224,0.998267915646906422999507,-0.00300183559746999275782975,-0.0102181936583524562989211,9.76634611235495420089592,0.0263372632611044467376704,-0.00178934695197781822549599,0.00114359255796512887699834,1.37977727061466093338993,4.29646242077440554396617,1.22996236990669127742137,1115.53011823204542452004,1121.57157404125382527127,1114.18616559160682299989,1119.92683986835368159518,-213.521716909323657773712,698.4296842521441703866,-488.135589649352141350391,164.638147705669325659983,155.499837790432422934828
8.32499999999999928945726,0.0164838728518632154917967,-1.23186200938637702151368,-0.593199929052118379857461,0.0206665097595472233016345,0.00234812764070253723186488,-0.00715800532538881685573617,0.00519039969437393253898216,0.000149962037537419202743588,0.058605706923253508833227,0.998267578001163058409873,-0.00436577041979143050387524,-0.0111349442915393698205762,9.7706119492577307994452,0.0262587381583803403106714,-0.00194117935990374885536769,0.00101326206650239323582563,1.37983932103468087682074,4.29646590823337959363926,1.22996120304830536262841,1115.00667713236043709912,1123.68680030742939379707,1112.6802630702788974304,1120.65373130726607087126,-153.38923891647357322654,843.643786140141855867114,-602.835396003225810090953,346.551885888621143294586,155.499854117069787662331
8.32750000000000056843419,-0.267723965577643441271505,-1.23443107065482959860958,-0.272811263094539291351737,0.0203619409972620214743788,0.000637180192156352348011039,-0.00993441183177750687660623,0.00522195700179553783798481,0.000177310059781916418229081,0.0586129370946054870095132,0.998266984017059821887585,-0.00546263077681227292997646,-0.0120645664980789171782938,9.77508487354478816655501,0.0261844469660307797853616,-0.00209863868893727257419757,0.000907169296980208750107166,1.37990258973972634848337,4.29646857308167362532458,1.22995892772177217722174,1114.76317203746293671429,1125.78979297195519393426,1111.1719886115902227175,1121.65959929779705817054,-35.9241689448425205455351,894.232496218043024782673,-630.063925501228141001775,439.074061329551625476597,155.499821116913409468907
8.33000000000000007105427,-0.54427839820410639504189,-1.25273234021082258138335,0.0872479840659822342141538,0.020090514920589219727276,-0.00115530817508115385763845,-0.0105391373534497144459632,0.00525044923227767617451844,0.000203162096351581312808285,0.0586200638665454257236753,0.998266412129537261677115,-0.00625398987456808348045501,-0.0129842065609751949883943,9.77968914819297729934533,0.0261164629286902878757548,-0.00225917311095759788114323,0.000825517196596742578937334,1.37996709630841363214415,4.29646971610824746079516,1.22995599404648792152273,1114.82705628763619642996,1128.15796278852030809503,1109.52994344277226446138,1122.84910161391417204868,117.400572726524558220262,1072.18097255775728626759,-712.800556402049437565438,502.682265048233546167467,155.499747027779392283264
8.33249999999999957367436,-0.866464647493744299922014,-1.29073231832610990643673,0.481870511048333782788688,0.0192262334817684607535249,-0.00435352873218452021686353,-0.00843082552723788646031888,0.00527435640617908776950351,0.000226003484923750064651896,0.0586235357651847463489325,0.998266079593881361375907,-0.00674044853805988355283096,-0.013908789323298448303845,9.78434772229027416301506,0.0260565654269486711436254,-0.00242037208111515762115618,0.000767842857006911425586659,1.38003222510458090077634,4.29646876173485736671864,1.2299529245091225249098,1115.35017490109544269217,1131.15069783474291398306,1107.6079858295806843671,1124.17301062303772596351,270.158711390925930118101,1093.24049802881927462295,-662.49876669165689690999,428.565930961373226182332,155.499619042908079791232
8.33500000000000085265128,-1.11436274040473182189714,-1.32342446830784621347732,0.72344504542817811287847,0.0175645642736303835007572,-0.00805235315555092277806093,-0.00504724191808869366432377,0.00528966147555522646361847,0.000243468635571444236417524,0.0586212267054390251397322,0.998266133765004615163718,-0.00691520240339366272508403,-0.0149085551933491461396031,9.78898430985646150759294,0.0260063663353813055711949,-0.00258019842280687514146642,0.000732865181369303877491339,1.3800968051943474090848,4.29646605886876375990369,1.22995040280524925435657,1116.17784984459103725385,1133.62416527866525939316,1106.21744960931346213329,1124.99193126872137327155,402.751673779294605992618,945.793948640891812829068,-471.671123558343367676571,241.337147267821393370468,155.499485952095852780985
8.33750000000000035527137,-1.31226961278403053690056,-1.34437868747639188704568,0.833215326724346283526756,0.0144541004382533599254002,-0.0120794357896500184623712,-0.0011903310861171522393176,0.00529183606551919191729461,0.000257513295004005232039651,0.0586117106859839406829416,0.998266681420961088377908,-0.00686147641724641453586653,-0.0160638361581670885414042,9.79352489838060868976299,0.0259672995853704076385515,-0.00273716382737251504031484,0.000718817004172905035623564,1.38016012107154883992166,4.29646234061523646374781,1.22994920166237298175815,1117.36393326999223063467,1135.87966757794811201165,1105.24963021178859889915,1125.37969635937702150841,516.200692871200658373709,836.966886623470713857387,-291.425779885925066992058,82.5989544982058419009263,155.499332710082200037505
8.33999999999999985789145,-1.44367893256722901185185,-1.35484226564958198935074,0.827579711999120615217862,0.0100464695642043348733363,-0.0156825812662704684730119,0.00246466162711317989669757,0.00528342132817554745172206,0.000267232305274908222333247,0.0585953070448056584362817,0.998267688468209790642049,-0.00660197123686208451470714,-0.0173241976683782897272756,9.7978987814228979402742,0.0259404919037020294247942,-0.00289050692032000351716636,0.000723251967983505042111836,1.38022197671353707981723,4.2964582813931855298506,1.2299499866571501627277,1118.75885330894652724965,1137.80899971178178020637,1104.76032070988412669976,1125.40492604121232034231,577.847676923989979513863,663.252177376939584974025,-61.6879389045275203784513,-56.2686054153458030668844,155.499168146700043280362
8.34249999999999936051154,-1.4747774083198361694258,-1.36091810959322501162205,0.703024082372180947331231,0.0046635241561536157003931,-0.0185810561846144924047497,0.00532621174579327952974817,0.00526976195487562516089897,0.000268615086958661180693148,0.0585753805054688020392817,0.99826892835823000105222,-0.00609719540210329306872961,-0.0185909673781720213847635,9.80204037855527587908,0.0259265545935845088953986,-0.00304028526122429500894162,0.000743281357172954123407882,1.38028254283184192985345,4.29645448796402096292013,1.22995240048671194976748,1120.25317165461160584528,1139.19592846483214998443,1104.94119051726602265262,1125.09835333230034848384,637.159927693610825372161,457.5952411996889850343,236.566974787191924178842,-165.774918593589518422959,155.498996057307294904604
8.34500000000000063948846,-1.40030926626638940746261,-1.37349090654155880919518,0.467611486764923256487236,-0.000926357677556215934437656,-0.0216493585440259671270891,0.00722289597444634567241506,0.00525565874920801579667229,0.000257848311686869106039433,0.0585557721374433751138078,0.998270150946312884165934,-0.00531210522436199959056546,-0.0197779908537924903333405,9.80589050674127982176742,0.0259254006175778789478059,-0.00318716743187930908950967,0.000776000106637002827481009,1.38034264485454594151292,4.29645128072939641583616,1.22995568257855603100381,1121.94465294741507932486,1140.09697591778058267664,1105.94315558382027120388,1124.5760514482442431472,574.686118767887137437356,192.597463112376232174938,482.344976112578592619684,-179.745149692707030908423,155.498787831769959666417
8.34750000000000014210855,-1.27013686663721303560237,-1.3886674520230390950104,0.24588693550646870122911,-0.00355966388477013803356974,-0.0243065121375300556560983,0.00740008615878980091640216,0.00524385810364868479999112,0.000232177614354858350646099,0.0585408500942132190014711,0.998271087271075829860933,-0.00423299131732269868361174,-0.020839412378390501090486,9.80939716515142556829687,0.0259361355582511526884915,-0.00333229650677447329643055,0.000818710043939596373088752,1.38040364535170678728093,4.29644923718623150676876,1.22995942586411843855387,1123.12660224845149059547,1140.15891578039418163826,1107.35291539782929248759,1124.19962758383667278395,402.084229311902106474008,-119.391184958272887683961,646.635300874360382294981,-100.577718460110190790147,155.498617255740100517869
8.34999999999999964472863,-1.10463703644426036731829,-1.39793906551101398960668,0.0479802841020837006480448,-0.00453153020416145833199062,-0.0274017520055755206542791,0.0064393562184756961142007,0.00523609385838071442198505,0.000191233624460618133319642,0.0585351166706219866453509,0.998271465418648418221892,-0.00289064673403010511526512,-0.0217471275926424331692566,9.81251579163174980635631,0.0259571049468152251216146,-0.00347707732912297612717922,0.000869084977676627917601848,1.3804661673988838366256,4.29644868735230822665017,1.22996331375357681459093,1123.95507409397418996377,1139.50001999298933696991,1109.17633208819142964785,1124.07316285594379223767,275.029833683904826102662,-442.476365121523429024819,842.919007356617953519162,27.2316202473533124361893,155.498454109120217481177
8.35250000000000092370556,-0.881237913546663143016247,-1.38081763093103315753751,-0.124500347206644698672129,-0.00578088774532498333308395,-0.0316194410861479618946035,0.0049401337118958428204496,0.00523563359794923261630872,0.000140649918544769096879002,0.0585387313593909164310958,0.998271256603048273703394,-0.00142687338662415797926886,-0.0224362836017360164908574,9.81520917205683574024988,0.0259861023977449728805666,-0.00362270716776117666230173,0.000925395791564991476892132,1.38052980818631176873623,4.29644920393780704870323,1.22996682492252240592734,1124.50175141687122959411,1137.94653395478621860093,1111.56751043461304107041,1124.33578568507346062688,134.462597802282175507571,-675.446869562014285293117,870.731717315311811944412,169.121122828365457735345,155.498270921325968174642
8.35500000000000042632564,-0.663840316924439011181391,-1.32722087701721025432278,-0.203925007609707636957452,-0.00762473788656901647203812,-0.0355054007818010053387781,0.00393553449334493789940614,0.0052428986790623369196318,8.39637633187366509658275e-05,0.0585502815602827186847179,0.998270539709091964120091,6.02954382255885528579809e-05,-0.0229000379168513429339882,9.81744792290855272653971,0.0260205756623166466201535,-0.0037701087371013316737467,0.00098603590034907211310522,1.38059448348709667975243,4.29645022842450607925002,1.22996989401663570085077,1124.62738708298570600164,1136.12278564517873746809,1113.5299906747686691233,1124.91876847008575168729,7.52783960201818125312911,-801.144818558191445845296,740.663303285111396689899,297.534141646806403969094,155.498130963185104747026
8.35749999999999992894573,-0.390234417920875542584724,-1.22118247255126854966534,-0.219346166911282447475884,-0.0104796547282027616848632,-0.0395093659232048366458656,0.00318018167861141556537752,0.00525811252378866403334179,2.0765855103417041723152e-05,0.0585692212960358532525262,0.998269345396247231860798,0.00155682966333095095662342,-0.0231397075354415476811099,9.81921004639239747291413,0.0260577925610215622997945,-0.00391989345297286389396829,0.00104935561046589232586657,1.38066039231457571290207,4.29645150405012099525948,1.22997275709159858969599,1124.53939061488131301303,1133.94080986199605831644,1115.27082695103786136315,1125.82345639330719677673,-44.3975479623165583120681,-986.462185148471462525777,688.268849671886073338101,442.980558986479877603415,155.498005980310438189917
8.35999999999999943156581,0.0137913060785625485316075,-1.03689098196187745593022,-0.176370763342662384420834,-0.0139693820768551392463852,-0.0435119725556404393640442,0.00216788862088117479168248,0.00527872425048465758468108,-4.69514281803285396109555e-05,0.0585956524421185689921465,0.998267681810751872362175,0.00300584876104066037877383,-0.0232080464924149174055223,9.82048081348009560542778,0.026095003232220047306722,-0.00407226188159673201105715,0.00111390879477397692493001,1.38072780106494530372174,4.29645224102883105388173,1.22997559780485321567767,1124.40539934317416737031,1131.19047471943736127287,1116.97133492312741509522,1127.13367126501771053881,-18.9719549178760082952522,-986.691532120476381351182,550.761612546926130562497,488.835099968278882442974,155.497874384187980467686
8.36250000000000071054274,0.392534829308802901692843,-0.849809441009026667046555,-0.102747975202815755579877,-0.0154326981761759070982398,-0.0455987313874628638621367,0.00143790545365473656190536,0.00529826700251612853209693,-0.000114395974276769671622474,0.0586267225372885669720802,0.998265750562619902375161,0.00429866413818061430390793,-0.0232313333441430888703927,9.82125255857729761999053,0.0261296517865312223627416,-0.00422681865019383824766397,0.00117841721388379822195447,1.38079622059374007569943,4.29645134212676182983159,1.22997839033919031948017,1124.44453084029191813897,1129.00735220139290504449,1118.02463501377292232064,1128.26763189314897317672,82.8359407434943619819023,-803.721824818978234361566,346.321607793006933206925,425.589727669991475522693,155.497780306510009040721
8.36500000000000021316282,0.753358490392961543946626,-0.648471762942457674583352,-0.0120233862236620268892917,-0.0141412534744060555680356,-0.0464588788324510754135233,0.00147820129396149593792309,0.0053133170228438610441235,-0.000179621925637368491743967,0.0586584252949083478911874,0.998263805541250381914153,0.00539325686833035458644936,-0.023279531310995374426831,9.82152370348046765968775,0.0261595304781100830571194,-0.00438277920107789636244844,0.00124147920741537977004643,1.38086524401894972235993,4.2964484688998094696899,1.22998145012492177130525,1124.81957904689170391066,1127.17186559534184198128,1118.70294296209272033593,1129.26161990336800045043,221.510413184749694437414,-650.69878471503432137979,215.138371907048224329628,351.352959318798525600869,155.497702287015584943219
8.36749999999999971578291,1.03935186472932472590003,-0.444359629301133651768652,0.0746747521446729650707042,-0.0107957211383684966582441,-0.0468283035624587062883961,0.00232532710308387896916416,0.00532164029637069869310695,-0.000241628856395579178504077,0.0586858305442079578040371,0.998262149885253080583425,0.00627437855570131802068756,-0.0234005227118861333646116,9.82129845496755038425363,0.0261828596047876047125946,-0.00453920018241838439665425,0.00130165732315952941897108,1.38093454251532876675412,4.2964439758274597380705,1.22998490092832057918315,1125.5520829062154462008,1125.75385827781838088413,1119.10032687330794942682,1130.0243966897426162177,378.074354751274768204894,-451.022883201833337807329,104.434739196978668474003,233.509941580914414771541,155.497637187165679506506
8.37000000000000099475983,1.17087693609488763257787,-0.234082363581579910860597,0.141766004105666809653741,-0.0059690456528364672569853,-0.0473950117068819148924419,0.00363419149214423611166103,0.00532254336551264087967761,-0.000297787327479996774201587,0.0587075960951370864893128,0.998260867157465314747355,0.00690261638593420070314499,-0.0236103106373136625850684,9.82058631188484909557701,0.0261982681916544668521141,-0.00469542278062303006930245,0.00135764152735826267026642,1.38100385642219669612984,4.29643886246982642518333,1.22998861769019840473049,1126.70995082064837333746,1124.91675117933232286305,1119.22511665807769531966,1130.42916961127275499166,578.041517481825053437205,-235.426238892941483982213,16.5048753102811716075848,93.3692466736228681156717,155.497586814310011504858
8.37250000000000049737992,1.10164563180888208648867,0.0395383922617282418388029,0.198620415708968628409892,0.000591656924184355537642277,-0.0485146156902194550242235,0.0047616296882409155089011,0.00531959873473269399118957,-0.000352078980344663601629446,0.0587250546445304485998484,0.998259856844110449181073,0.00737814281987463852635623,-0.0238490813891708008931403,9.81940126929469947469897,0.0262048135634803010252103,-0.0048511320628875061536367,0.00140786170091346165417212,1.38107287272657397458886,4.29643380615792125354346,1.22999271496146178606068,1128.44229049362502337317,1124.57672708335348943365,1119.18285124985936818121,1130.49124292311080353102,653.336415126698625499557,-28.6758143289319136215454,-25.1140709002861441945242,-37.5456631766230302105214,155.497541817635067218362
8.375,0.853844438091825863601514,0.292224912651357471293778,0.236656692932533357920377,0.00570039226627274461106643,-0.0495027835000003690879566,0.00492691379537543803351918,0.00531507417225990548559356,-0.000407486719610699839929507,0.0587395979501268497569022,0.998259022567464238129276,0.00778396983076916782612331,-0.0240816178171366912508233,9.81776181230525146759192,0.0262019531093059532267375,-0.00500622274132266325413765,0.00145088527118169868974917,1.38114158254105112710874,4.29642891220179112821143,1.22999712633777336101559,1129.97663289628121674468,1124.77337210768769182323,1119.09954630357628957427,1130.24144129538967717963,574.702210812598195843748,148.638641619647842162522,-15.5946343476929651927776,-141.753212624126717855688,155.49751570620944107759
8.37749999999999950262008,0.453340466175463752129815,0.561559377690208250122339,0.278854187872422221161628,0.00911742330010403140283515,-0.0497907769246882236924279,0.00449725336909681007446782,0.00531106477856558949202093,-0.000462146371037831565822124,0.0587506094160115191482596,0.998258388372680660616254,0.00811066564813862217464546,-0.024270570326946197536877,9.81569032093609727951389,0.0261895101819292104583514,-0.00516061463413004361394654,0.00148565665670832977238169,1.3812100688061232922621,4.29642398559501259569515,1.23000168167622936366001,1131.31580154768744250759,1125.31992029145158085157,1119.10487807812091887172,1129.78247685999031091342,478.100230579746323655854,278.247806962919810302992,47.8826413944186910498502,-224.147710890803381289516,155.497499231854249046592
8.38000000000000078159701,-0.103586708120309067826526,0.865541312591865508174749,0.335791695532810852142802,0.0102283015741951935351217,-0.0483512201411466502332104,0.00420992168196743753172395,0.00530986650414704951933542,-0.000515777026904504264440132,0.0587571494369544672364825,0.998257995972304801313157,0.00838161844789769155950054,-0.0243764653686604701454677,9.81321242418519013028799,0.0261676308894335657440067,-0.0053142750859894970216768,0.00151118216891559637403419,1.38127785225173527194897,4.29641850870427965958243,1.23000663718841707350293,1132.36713404918032210844,1126.16461114250250830082,1119.33895951054842043959,1129.12070274093548505334,255.645573133238997343142,308.595038399786915306322,131.971039598217714683415,-245.581231484409528320612,155.497487612839506709861
8.38250000000000028421709,-0.541363307329048581983955,1.06177492846597831821498,0.375311804458581033117071,0.00818364875398930845251666,-0.0451987070735982640612427,0.00476025981542289519654609,0.0053161942131378170720013,-0.000569697275689489660184528,0.0587603007071008931472278,0.998257754663505969539017,0.00865463458436003044149665,-0.024314202356185976583447,9.81035624067430234163112,0.0261366908104169945459283,-0.00546731016925911667003746,0.00152657080984429848954931,1.38134523999982050668223,4.29641244703345304145614,1.23001144649569504885278,1132.59402941335383729893,1126.86289548345075672842,1119.76473327611211061594,1128.55457070256807128317,-66.4776649954679186294015,243.467434584502598227118,211.813197348143461340442,-217.573569190515257787411,155.497482389902330623954
8.38499999999999978683718,-0.851644168858890937556794,1.15282848603772336559814,0.380284590991808002513608,0.00362746422327909915153676,-0.0405939931668940420794733,0.00631114650653173507588445,0.00533268754483848597680584,-0.000626138965909907221213393,0.0587618187245744216795629,0.998257545151840619546135,0.00900215088212745484508304,-0.0240402682082306584643305,9.80715219902207557822749,0.0260972328874100809037451,-0.00561992221813668261370944,0.00153104405754210201075216,1.38141290694965013230444,4.29640565698115572956794,1.23001611955499323691754,1132.03474572420304866682,1127.38194831542477913899,1120.39802549728892699932,1128.03283489498312519572,-420.880655701596026574407,159.07375673767529633551,297.769800636811055483122,-211.512040775684255322631,155.49747900735900429936
8.38749999999999928945726,-1.00436415131702139191816,1.11665033636223998136927,0.319552785695288832368277,-0.00267242577529931951002551,-0.0352914689159201516721609,0.00885348797615252355863724,0.00535886665666746725422698,-0.000686402425391960391287682,0.0587627682720334443278176,0.998257306280099010464824,0.0094728466035735522932093,-0.0235709487195864333952677,9.80363261214168346668885,0.0260499617199713567883279,-0.0057723798588932076492064,0.0015240073526632939328318,1.38148071757669033132743,4.29639826709107097713058,1.23002120544826154535656,1130.48962613484627581784,1127.65826426713897490117,1121.25358227929586973914,1127.49701049868986046931,-686.024870206603850419924,35.9404919899532799831832,297.023519126786538890883,-176.111815306212264431451,155.497473865158042372059
8.39000000000000056843419,-0.937190564924740066032882,0.973485687644108366178841,0.207383700306919799283278,-0.00760761153644165088322238,-0.0320400125467965798953252,0.0109875923619631773314742,0.00539234372775869701815976,-0.000750332848059502110875385,0.0587642168050376278998215,0.998256988093483399460126,0.0100818386273776143535752,-0.0229578912511528773765512,9.79983110416867475578329,0.0259957595090996654296767,-0.00592508673441516191260359,0.00150511128225913832015537,1.3815483805525174965112,4.29639084600030241034574,1.23002733034257993871563,1128.60462137316949338128,1127.56165077537457364087,1121.88314309292309189914,1127.15227581845192617038,-828.518993575842273457965,-97.4935500331714592903154,189.138538123522721434711,-108.261496200049251115161,155.497466351117139993221
8.39250000000000007105427,-0.701455003875966154325283,0.743086135928041180420678,0.047420642170735584353114,-0.0115607457657381836740873,-0.030178358174636404909208,0.012488609368696338558502,0.0054301494435582305098098,-0.000818912236127277218256104,0.0587673139734360625019427,0.998256538337656595949454,0.0108621003450983973082078,-0.0222650881951088688848195,9.79578204668285579259646,0.0259357048153581633276321,-0.00607856211281720265615647,0.00147422816364439096016581,1.38161562155082418001939,4.29638414137079305277211,1.23003417981235507738802,1126.34703116696641700401,1127.17079651697304143454,1122.19927496991363113921,1126.9557030176895295881,-921.65949192012851653999,-186.379357956585209876721,42.5395786819620340679649,-47.2773970846995723604778,155.497452729475071464549
8.39499999999999957367436,-0.380220728079177450187132,0.467045990036337677064893,-0.122998507186044117589496,-0.0137375375728325463398072,-0.0292592136208224447291304,0.0129157724385942085376655,0.00547137375656138371521342,-0.000891439337330564144680489,0.0587728990185371127918934,0.998255913321314247710347,0.0118116075921051548458518,-0.0215140515232048745719595,9.79152002059070802886254,0.0258710517403796559643414,-0.00623330058999254244672672,0.00143174178613392536450755,1.38168212021472180950354,4.29637800065603858712393,1.23004040442256346032934,1123.99632391356976768293,1126.62975398559183304315,1122.09584098633285975666,1126.91588883302847534651,-913.230424720125483872835,-222.350379915871400271499,-169.399750407293026910338,26.4366595733422009573133,155.497431999168384209042
8.39750000000000085265128,-0.0426441234623126247393898,0.162841902047771824868505,-0.258055637371626511722411,-0.0129698856178616199474884,-0.0291793532710184558287558,0.0116067260349927807439041,0.00551397732068616142075967,-0.000965870185687533349717937,0.0587804186324022218124163,0.998255158868545544592621,0.0128958371734232066230241,-0.0207467462139206554327941,9.78707987542730961649795,0.025803198871133956049384,-0.00638957337602938553466903,0.00137850688356267879648709,1.381748403801843272376,4.29637189731211766030583,1.23004482909731027717726,1121.7808790433650756313,1126.05904461739351063443,1121.35227621787703355949,1127.08788631555626125191,-892.58369386702418069035,-221.045703506035351892933,-485.169309588551755041408,121.103833260421367867821,155.497400241891568839492
8.40000000000000035527137,0.27607380652339130744366,-0.211997558201864028104566,-0.322373727697362277844206,-0.00919773239475908839513085,-0.0297677799979245531758476,0.00853160632782974832910572,0.0055567671757205915061828,-0.00104051841559104577689121,0.0587899652076159517921639,0.998254278665023919714372,0.0140828803725090746790105,-0.0199891053875146315621514,9.7824964775323994814471,0.0257336352230747196501159,-0.00654742103412046198146479,0.00131561670969754197432766,1.38181485262560266313869,4.29636529075574813418825,1.23004713037132629160908,1119.53340544423394931073,1125.52452546806148347969,1119.66999443838972183585,1127.52140799933067683014,-731.09898349399361450196,-152.517294739921794644033,-735.131334510252372638206,186.12719467295457320688,155.497346271943456486042
8.40249999999999985789145,0.42189862616907852777004,-0.523564163410658589548063,-0.27208216633856002752978,-0.00503583999706441135663093,-0.0307013008208160860512681,0.00579930242565720663328044,0.00559712704387807773870334,-0.00111226450602177544084437,0.058801805100923018598813,0.99825327631640214942621,0.0153056611893495411735877,-0.0192935402710588885244469,9.77780510597437846342928,0.0256639508362934316842985,-0.00670660553710338610405861,0.00124420546040571308385458,1.38188133170011973049895,4.29635806288994537283088,1.23004755077641414473533,1118.12538412589583458612,1125.29645814369405343314,1117.67661954532650270266,1128.01852228892084895051,-453.206646279021811096754,-39.8549174644892616470315,-882.085091312904296501074,205.95147563080450936468,155.497285988017267754913
8.40499999999999936051154,0.438423666525669331051063,-0.82802343827205460158325,-0.119685069589306664061823,-0.00166979995705164412089783,-0.0319729812956790343525526,0.00407227792563108481616041,0.00563067203725747551096292,-0.00117701170290725881661942,0.0588147410942028159297479,0.99825225269498485403119,0.0164705271259837429664863,-0.0187463334374992213193778,9.77304185263911584513608,0.0255958843198668024865317,-0.00686654724021314947363104,0.00116513159867072044195702,1.38194750276093825114287,4.29635034551286842940954,1.23004602489968406509036,1117.26737221283929102356,1125.32525088073907681974,1115.25956898182607801573,1128.55116537748449445644,-251.29204562086380292385,58.0848463972324822179871,-1099.08743738957218738506,212.469315175816035434764,155.49720772131911417091
8.40750000000000063948846,0.36236545359945809829938,-1.17482043718177631141941,0.140230264197642257029131,3.90173869148244077805984e-05,-0.033792126769918925943692,0.00366202028132906181462358,0.00565681055863246750464723,-0.00123116678974831005206891,0.0588274982541350799358781,0.998251290666952950658697,0.0174927683405478040512548,-0.0183609126948696549375128,9.76824357032213086426964,0.0255313007347607173747051,-0.00702641066058001719646375,0.00107869038250426739662668,1.38201290894731365632708,4.29634181517996793786551,1.23004296939349910822159,1116.86892389779131917749,1125.58688237568026124791,1112.18118235837778229325,1129.08086886480009525258,-48.9871344670442141477906,112.2082011072786542627,-1108.94854678795991276274,154.162050068565349647542,155.497091137511802116933
8.41000000000000014210855,0.277815249861583235535534,-1.4320021966417904035751,0.379727062793483283176244,-0.000931628791931114860931651,-0.0358757663112976923902586,0.00459334281731729309611323,0.00567554940896424463259162,-0.00127852059997272580159355,0.0588405262386712812894274,0.998250358045090102621089,0.0184274802023039439846652,-0.0181482521599475310480898,9.76344854251929739064053,0.0254721103962675145260253,-0.00718524893361742380409884,0.000984005774409247918263488,1.38207743905499502723444,4.29633198613202260673916,1.23003961144449402986822,1117.02243654050403165456,1125.88629188627555777202,1109.71482624788541215821,1129.32197562782744171272,148.063059879798288420716,104.577692453151826157409,-911.385882145349910388177,32.6405797628532496901244,155.496974097672790549041
8.41249999999999964472863,0.23049260071487859269368,-1.62102313157252919673113,0.593765153348787100284767,-0.00324379973711293916396881,-0.0393256800741036832702591,0.00641606137433077886034205,0.00568750900984197563931,-0.00132719066019879386453262,0.0588531842942582802957752,0.99824947815104936310604,0.0194104199330486296148912,-0.0181129611977867907568474,9.75869707190904200899695,0.0254201716764652016489201,-0.00734194667599886215819671,0.00087910117279399750591512,1.38214053731294916893546,4.29632050226532680170521,1.23003765662333108821258,1117.60923919719016339513,1126.10977083794591635524,1107.62425294765193939384,1129.24407176361432902922,339.616225383080404753855,47.2255674364004178755749,-784.143146709734764954192,-125.01551254561356074646,155.496835658132965818368
8.41500000000000092370556,0.236798078259613298257591,-1.71585771433948464093078,0.774518594582646047186358,-0.00494847068267080091724663,-0.0452611200238355673719504,0.00956565456426642507503644,0.00569325190551223624113586,-0.00138191806194321096905309,0.0588646524769398937770859,0.998248690030782648285879,0.0205079988007806669758626,-0.0182572527772404263890493,9.75403215759325981082384,0.025377077686718943483335,-0.00749540371994462592541986,0.000761419822009209664760709,1.38220194018704289895538,4.29630737900823067576539,1.23003861111316137311178,1118.7205176674196991371,1126.1224197234575967741,1105.79411051433612556139,1128.69689806509927620937,460.330326091180609182629,-53.201478535030091165936,-536.402029802509559885948,-279.647176277468986427266,155.496644462175709122675
8.41750000000000042632564,0.274920231367518697052077,-1.65129537593649478033342,0.839105998223605098473854,-0.00457620052404610760943271,-0.0511728305334175348484393,0.0128101197911390084910321,0.00569513136803833329435687,-0.0014421171691202040905655,0.0588750942155133599742456,0.998247971565058733744991,0.0216828389916576963480921,-0.018542264542820582895466,9.74949949707106000573731,0.0253439027145367923310459,-0.00764474362774128154973674,0.000628309294868499589904742,1.38226220219433360014705,4.29629313465925299908577,1.23004284789294660029668,1119.91089082764642625989,1125.84376344527072433266,1104.94224279863897208998,1127.84583588222676553414,509.906602327884286296467,-175.010724347601609451885,-194.934476425389817677569,-412.57290121865503351728,155.496464366890734254412
8.41999999999999992894573,0.30508625336771733049801,-1.42138022041370248871317,0.80665649524562033079178,-0.00303106853414179333930378,-0.0569967355560279803627921,0.0158391729040511901327459,0.00569605471354999760846827,-0.00150532646794616703153635,0.0588851222578519531425378,0.99824727428856230293519,0.0228611947015747024591903,-0.018915536131234977901272,9.74514720588406468948506,0.0253210015632810668539943,-0.00778941492817448576796435,0.000477338104166659242012793,1.38232187265055084246512,4.29627786874513439840939,1.23005011101491912306471,1121.27005067905861324107,1125.24736610171976280981,1104.81943813220937045116,1126.63403355900641145126,552.433742013336882337171,-283.649591113009648779553,61.664769682932721650559,-527.009664074753573004273,155.496263264029551010026
8.42249999999999943156581,0.300184035842594176823894,-1.06728738378685417131919,0.703076975576432006143079,-0.00140087160789529696462707,-0.0617476105530240584884361,0.0182131831070117440607437,0.00569625121825019595928064,-0.00156838673006652910488223,0.0588969667585580586299798,0.998246470496670035288389,0.0239537796235492449203885,-0.0193744844784715028462863,9.74102532465795434291067,0.0253078573611118518016383,-0.00792934966563754208002113,0.000306720081342569362518186,1.38238179522434689872057,4.29626150234120363080592,1.23005916529252612434675,1122.67305953771256099571,1124.42551548970595831634,1105.25056664705357434286,1125.21078756185352176544,545.3784965252509664424,-365.672631516906335491512,279.518219644025464276638,-591.985289563898049891577,155.496045314666019976357
8.42500000000000071054274,0.231614196628208784956016,-0.608392813849644609192069,0.537242643566340660754577,6.92956565998499910384589e-06,-0.0642092831784253081917058,0.019706595813730055921642,0.00569784341216207981806186,-0.00163135163341352200545853,0.0589137665512264110945218,0.998245362937010605186572,0.0249386367395632718713117,-0.0198810505026017284024853,9.7371840152646047528151,0.0253030672242828894025202,-0.00806502127563420156963758,0.000115587121347227110264647,1.38244312511544831245658,4.29624446726176234534478,1.23006830098182229349391,1123.99694316168529439892,1123.41900294413494520995,1106.21702923042971633549,1123.67410711118645849638,531.657786226249868377636,-459.92640290221146415206,504.686254899218738501077,-667.03012762517153078079,155.495807781844462169829
8.42750000000000021316282,0.0644436731683405567006062,-0.0146845183376433929822724,0.301588651906892435405894,0.00144165630806013331938198,-0.0642598402951320840648108,0.0206471429790566554651754,0.0057029093580867138563173,-0.00169431283911999691280115,0.0589352824045847184519786,0.998243953788398807880355,0.0257986159266126238720496,-0.0203948587358672578373486,9.73367235425712173935153,0.0253045208013016990900024,-0.00819731789334667525215306,-9.56624341065889934564159e-05,1.38250626129108811213086,4.29622730308885181216283,1.23007598618948010837926,1125.33134846884422586299,1122.12588347519454146095,1107.77399792155006252869,1121.87563692372714285739,429.420764312357221115235,-472.041764841927260931698,603.586841865882888669148,-632.816879137352202633338,155.495501063479139247647
8.42999999999999971578291,-0.142498449659223924701479,0.460463866016903977662622,0.0990371396524451358400754,0.00242470499758235934900652,-0.0623625865838695822573889,0.0208798780457411688182834,0.0057140965013391734061976,-0.00176049944550484699368198,0.0589578533510099270231741,0.998242437844378938116563,0.0265835504153791833681364,-0.0208640178087862726563628,9.73053647875360283592272,0.0253096299719079292911417,-0.00832758419648328522544301,-0.000325540972529260604594048,1.38257106757424086396213,4.29621009701407174929955,1.23008107473551819843749,1126.1440469832466533262,1121.05879411992577843193,1109.23496343975853051234,1120.51002271550032673986,255.044216404308969003978,-412.185109869032316964876,583.585998355374385937466,-507.778314159725368881482,155.495228113092053945365
8.43250000000000099475983,-0.400221890754657860789223,0.867122865216195859439097,-0.0850447799955379168945768,0.00300701473101559323825027,-0.0593217206870992191936054,0.0206577311830045129426026,0.00573099712675455199434316,-0.0018315178463909980409452,0.0589791753367059704005193,0.998240948964657426323299,0.027314411692138159531984,-0.0212894672502222520593662,9.72781849832064082761462,0.0253155052329619156825657,-0.0084578505520726838390333,-0.000571498160628774640699967,1.38263696313925943393031,4.29619378031279808283216,1.23008295372468712258751,1126.60656955086597008631,1120.06495792584905757394,1110.6919279133273903426,1119.33674535292811924592,131.773153302108170237261,-416.2978665316390447515,611.420095355283478966157,-473.300681483868743271159,155.494938020116734378462
8.43500000000000049737992,-0.721414174511213257545705,1.24984704057870743554304,-0.260924768054286881913129,0.00264764885416687552679993,-0.0551186752452926392864541,0.0198674602731611811556878,0.00575499414407463528997599,-0.00191114284957377440071769,0.0590001202781276004594169,0.998239418936236577728494,0.0280630574009797725820725,-0.0216347858088145744703823,9.72555441253462760187176,0.0253191418101170948040668,-0.0085908255672032165367602,-0.00083039955919022201587254,1.382703977810715745278,4.29617960389282593780536,1.23008183353373912183315,1126.80291274975729720609,1118.9773047872672577796,1112.29206391653542596032,1118.14351930808061297284,28.7109077471143621096417,-383.044501239677458670485,549.797313039444134119549,-408.30926710917930222422,155.494571119021514959968
8.4375,-0.948688960317317864223696,1.47883036372170084682409,-0.355918063057786726588461,0.00089303430747985365970032,-0.0515700487509558394561004,0.0187104820486224676656661,0.00578618741666734118234139,-0.00199896419246008020045857,0.0590204905789650235981014,0.998237858466074823304837,0.0288255702885766885990027,-0.0218785245932419103453981,9.72377353987758219489024,0.0253176955684829285697646,-0.0087294268687522248717503,-0.00109861959218965940347779,1.38277176940707913210815,4.2961677759711118795849,1.23007831072294471219664,1126.75012408960151333304,1118.14973541965105141571,1113.44091447852406417951,1117.29519901738262888102,-41.834879495726589482274,-315.943493466437871575181,416.24116398628854085473,-316.31909136369284851753,155.494250476459427545706
8.43999999999999950262008,-1.06369426173586845152386,1.62250772079690319671386,-0.386238933022798214267368,-0.00280972739376204958677841,-0.0479649340512159627625266,0.0169827426724847192762713,0.00582192889582552192129228,-0.00209080803105931700008879,0.0590393663802236887128139,0.998236344799196206878378,0.0295286160074182540968835,-0.0220434689830526081566475,9.72249784246928605568883,0.0253086650299329321556208,-0.00887644257151105550707193,-0.00137240262381453214518556,1.38283993088653933689613,4.29615728826897935732632,1.23007332954791759327406,1126.59373835227870586095,1117.39758731993538276583,1114.37326973646645456029,1116.56192385126246335858,-70.4944204071470181816039,-305.906457649687069988431,363.908633188373130451509,-296.056010086339597364713,155.493915289394408318913
8.44250000000000078159701,-1.0020529028551272698877,1.70793544342920711187617,-0.348432969529869240865594,-0.00929801623280368354229619,-0.0433034190952222702852836,0.0144284262647756157671441,0.00585960190362529078494935,-0.00218189432511873291145599,0.0590552729996030173476029,0.998234990385236664600654,0.0300933530423122090613486,-0.0221470984004020071678198,9.72174107580720558985377,0.02529001514084784282832,-0.0090342291309594476705902,-0.00164819103649913728526499,1.38290849290449391340019,4.29614736497370408585539,1.23006743929352890809525,1126.39765198756572317507,1116.62020313140237703919,1115.26045764446621433308,1115.81491896695069954148,-67.2523283791983317314589,-250.890063605954196646053,293.148886421476731811708,-244.017353903707828521874,155.493496977310627471525
8.44500000000000028421709,-0.763029756190337415944214,1.71362402560992355127212,-0.270182859653341322925257,-0.0149699600362140829851176,-0.0391884438035259782817654,0.0123909594190832143129066,0.00589775774913262572363148,-0.00226462505507076406613409,0.0590693169772603179912274,0.99823375469194852716015,0.0303928017258583808846151,-0.0221782498164813171581677,9.72150869346546642191242,0.0252602132158526275496069,-0.00920467225339949464413269,-0.00192258960251896478081679,1.38297715601828974385512,4.2961375285652980693385,1.23006055874274267125656,1126.25747671038266162213,1116.14313700190541567281,1115.83901416857406729832,1115.3418370817437335063,-58.7496110574764784928448,-135.087458964953441409307,206.695606998751117089341,-142.152028354013140187817,155.493134933403069908309
8.44749999999999978683718,-0.357641205740181655770016,1.65901040345875250281438,-0.182438745941487401314163,-0.0182177179272089533046408,-0.0351985711193914044270237,0.0115240659161751357597581,0.00593624107235836591389688,-0.00233462138107813025472703,0.0590823785335097412252381,0.998232597162767021359286,0.0303680490891331429648137,-0.0221031519645467980361708,9.72179768028959223613583,0.0252183046362896151615374,-0.00938893491398800315861362,-0.0021927238884170796411055,1.38304556279731749590667,4.29612760775722968276114,1.23005289017808983054181,1126.10390393227839922474,1115.94476583657774426683,1116.29393567945976428746,1115.10415882518077523855,-78.3485101139532531533405,-20.7456630822476100206586,166.426577750904840513613,-42.8915151175346025524959,155.492758066216595125297
8.44999999999999928945726,0.129172231412801041816607,1.56011903613836633297751,-0.126839836432577540703548,-0.0181940828964586055749297,-0.0313918189532576413780518,0.0121413711177617341524515,0.00597573743066019940489708,-0.00239136665568500913006678,0.059093634183289861505628,0.998231565643454943348445,0.0300389203773558481624928,-0.0218767386211655076588833,9.72259695580649463408918,0.0251639309487782306118397,-0.00958731401660413429244301,-0.00245631221370107635793012,1.38311368025398939707316,4.29611741662119595019931,1.23004444843104776552423,1125.86573415981297330291,1116.03940868649419826397,1116.67114705732842594443,1115.12737950615610316163,-138.183569530907561784261,113.200415319652663015404,133.98764110873068489127,82.9425639653761663794285,155.492367657025624794187
8.45250000000000056843419,0.634006739246803285858789,1.41422520354424507971203,-0.153276148978857523763608,-0.0150736069784766502088758,-0.0278307950173357389334061,0.0139477284056244727611373,0.00601517613455049889731319,-0.00243648095383846305730935,0.0591027321815215250788711,0.998230686284662604990103,0.0294660971902922265430735,-0.0214930453981138011587682,9.72388831136191811310709,0.0250972663431577626413915,-0.00979928743136824521864359,-0.00271163319061871934539942,1.38318164313107527796376,4.29610711041658621667239,1.23003556118000489938424,1125.41298608462375341333,1116.51076791317609604448,1116.96387388500352244591,1115.51887164500772087194,-273.251537524905018017307,285.011507714535582636017,104.653978419702994528961,257.550130919440334764658,155.491958673282852032571
8.45500000000000007105427,1.18395810756486419279554,1.19302132062811860890861,-0.303847546316859951076594,-0.0102686947230038270323371,-0.0238955171707668119485124,0.0159100425421866767394796,0.00605032063501316150211373,-0.00246879364219125888024742,0.0591085444751527980256078,0.998230056278335498021193,0.0286525268471762468991404,-0.0210089090094637484518181,9.72564754602769809821439,0.0250190433497856287714534,-0.0100233870871247344319643,-0.00295728698836033969399306,1.38324899199291961870983,4.29609655200146356435198,1.2300267906674040574444,1124.49947647218823476578,1117.46446622506709900335,1117.19441694942702270055,1116.41513016075350606116,-404.558455546010463876883,399.069168280163751205691,56.2003306488007154939623,387.901777677902714458469,155.491442588495544896432
8.45749999999999957367436,1.56786011917426981732149,0.977623217708697977990084,-0.515663769948286776489965,-0.00649104655581540096465076,-0.0210679225215505937229832,0.0165441089788078005140548,0.00608074384886332641730888,-0.00249015772312036675825708,0.0591111583754863820217018,0.998229670301111315922071,0.0276629908845561905961219,-0.0204171390341806660573276,9.72784432383876129790679,0.0249304359586767602940949,-0.0102572853512420923693949,-0.00319230528430669091913274,1.38331539818735849145526,4.29608505201571233556024,1.23001842174034581312014,1123.39019380689410354535,1118.50611375457651774923,1117.24487553824747010367,1117.45838053339684847742,-508.863790764382940778887,446.49794914955532476597,-22.2070547727036533558476,452.459995437013503760681,155.490987968066434632419
8.46000000000000085265128,1.86130750234483710592315,0.742020384579159641980084,-0.770630874517691299985245,-0.00292336056317727592882005,-0.0188720757513108211567143,0.0156686662131208659376469,0.00611021593961269711414719,-0.00250499174469284496477584,0.0591100335780122693174476,0.998229527339485223080828,0.0266146348138858804266427,-0.0196400419221654104484642,9.73044298711453592432008,0.0248329902468658741954144,-0.0104977175326212823075478,-0.00341598152249640357389082,1.38338058484204529108297,4.29607150665767534292172,1.23001036719533618501998,1121.95515751836592244217,1119.69695597081522464578,1117.08338167556348707876,1118.67743013793892714602,-678.425973462693377769028,538.041230694495880015893,-133.441673172980756589823,538.015589650292440637713,155.490502976438818905081
8.46250000000000035527137,2.09369621149642837210081,0.453976145922038165636536,-1.04893031753882981504944,0.00205690845300322833200113,-0.0170264985766725024385337,0.0124112997114923344355031,0.00614283422125691015713844,-0.00251322153694599889281469,0.0591063710309634171569115,0.998229530983957613621271,0.0255344490080851999058709,-0.0185976689411384010774952,9.73340404188133057061805,0.0247284704613081988966439,-0.0107407077212020255624347,-0.00362742971409415462455406,1.38344491815866987849404,4.29605486751107790155402,1.23000216281469021417649,1119.9980639395801063074,1121.19631990804941779061,1116.57766717238246201305,1120.14845848164873132191,-727.228112013480426867318,552.876943148222380841617,-242.637785958052575097099,512.717335056379056368314,155.489879749091386429427
8.46499999999999985789145,2.168426631046467711883,0.224699622560128320358785,-1.20021736229172137910837,0.00749083116564670109527313,-0.0163029576355771983753318,0.00772685952188686183544908,0.00617995609914556622704884,-0.00251812794476149884662086,0.0591001392443385245578646,0.998229666183748531871345,0.0245075371951829629191266,-0.0172772288324570255646506,9.73668484128021027856903,0.0246187057824709988607115,-0.0109816730404510044805111,-0.00382593917879910701967949,1.38350849488815863530533,4.29603477044734116674363,1.22999352984744336758638,1118.31901695829924392456,1122.46134068655578630569,1115.87019274577346550359,1121.2410168132203125424,-643.809138431325550300244,506.497112600446428132273,-341.714201052195448937709,382.949947370328800388961,155.489321795443146356774
8.46749999999999936051154,2.09475035478039472991441,0.024717370789307691048009,-1.22058867946038085428029,0.0139484394573652047133461,-0.0165843468385118986141435,0.00215669977327321432669649,0.00621962668035372281266637,-0.0025235827484176060094001,0.0590907016101451867950978,0.998229972702565193642954,0.0236223287182163628472598,-0.0157413294787598911916859,9.74024057412941779432458,0.0245054521249613473099505,-0.0112158249407199057251505,-0.00401081049754377968324937,1.38357160361463216169398,4.29601166082662366818568,1.22998366397322378418266,1116.77901824742411918123,1123.72880547105114601436,1114.869096167121824692,1122.06320821849999447295,-607.931695631983075145399,560.948652604341646110697,-499.970120911270043961849,282.76736351240413114283,155.488719201773449185566
8.47000000000000063948846,1.82374916756543758999953,-0.167388803623045423485394,-1.08796159854263851940459,0.0212899131295027424504163,-0.017643177653245991493014,-0.00322027393663658085404267,0.00625877504063289923086355,-0.00252817457164935654317928,0.0590782269940787613249356,0.998230462013835362355962,0.0228585998219967521938312,-0.0140781570217941298661657,9.74402508261728428351489,0.0243903006891073859119246,-0.0114386374151619236994026,-0.00418106976739784919061549,1.38363446922778243752816,4.29598617765783075128638,1.22997230042118510517923,1115.27935848013885333785,1125.266083949577932799,1113.37034214121672448528,1122.65485363078255431901,-473.210071100783068231976,569.032946078143368140445,-589.376076720690207366715,149.503015707954830304516,155.487939778385964473273
8.47250000000000014210855,1.45725908892780275927237,-0.286247652968356469660449,-0.873102975247462276264798,0.0262374832585117873096081,-0.0187078527978767443495922,-0.00591013164641668656273943,0.00629563498092471605926956,-0.00253100024338768093273844,0.0590627339754689686945888,0.998231145660084084880737,0.0222027715252153291791704,-0.0123599959155783686859387,9.74799117566472617113504,0.024274594005854674416689,-0.0116461442137201481167308,-0.00433584047995122599111761,1.38369743165478631397036,4.29595851334946221555811,1.22995943336770019449489,1114.41296789191983407363,1126.5739702014423073706,1111.92221578351791322348,1122.8107232970398854377,-257.911654858077270091599,529.159012786172525011352,-606.189740901056779875944,1.16953407628012051588939,155.487240305707928200718
8.47499999999999964472863,0.978546460131940021298647,-0.371100835270593454318089,-0.598549428919450066111096,0.0295221276720807647431233,-0.0197352089846400680084315,-0.00714813103276170942051992,0.00632867628917413611866483,-0.00253359710658377290312671,0.0590449322621537514566015,0.998231986971443441269969,0.021684452475276189825637,-0.0106645188953962202771386,9.75209153180549570549829,0.0241593806294832791348171,-0.0118352448515785524385535,-0.00447461465776972846380977,1.38376094166215257708075,4.29592899495377711360788,1.22994522184968579914255,1113.98980020584872363543,1127.911879013508269054,1110.33939343671204369457,1122.66070130116395375808,-89.4445041731020182851353,589.233306212917113953154,-707.759618573553211717808,-117.241962868074409698238,155.486485852367138704722
8.47750000000000092370556,0.328295003090001979995094,-0.451871770896748681245469,-0.254995929812232791089599,0.0313046998433650774940062,-0.0208843915611511624086383,-0.00782399599857059972751738,0.00635880482344843185604777,-0.00254073468828954407081055,0.059027936891541260555627,0.998232782653980743603483,0.0213947681498328733107339,-0.0090306089973912762047803,9.75627932713147494325767,0.0240454176831893483290425,-0.0120040441958057450544395,-0.00459739586098922414086898,1.38382530292307448505085,4.29589807538394108377133,1.22992988552230264609477,1113.9657453710542540648,1129.52013673250735337206,1108.38341769064959407842,1122.22451348269942172919,59.2621911856802512374998,579.96907088900150029076,-709.31218848434411938797,-185.633108659038128962493,155.485513925605204121894
8.48000000000000042632564,-0.235064248116589546988564,-0.516406868138981511862085,0.00964387241783582448151346,0.0311671663342403572338757,-0.0217672460019101669803643,-0.00794726094671589083917596,0.00638596128780275201081151,-0.00255634512381526079333183,0.0590138426230042770215256,0.998233398143341776886928,0.0214036955843070163252317,-0.00751732444627333656894663,9.76050965024574068706897,0.0239333956593331398376989,-0.0121518493735264052763023,-0.00470469345509277360461997,1.38388978692715380880429,4.29586611608429258524211,1.22991411872156297668823,1114.286111161777171219,1130.8117243679537295975,1106.7928324942897688743,1121.73253575786861802044,178.124183913804671419712,489.095150733653099450748,-602.796041235689585846558,-203.650173958971720367117,155.484646705515359599303
8.48249999999999992894573,-0.774477946033806929904131,-0.593170200537644465299536,0.217667354178820687815588,0.029735965893123942477283,-0.0225487078556886287594718,-0.00714623250689387298772992,0.0064117022200108732613022,-0.00258416023078414944583181,0.0590030004030570182083082,0.998233792781655804304819,0.0217758509644676197247737,-0.00615157947583767905630481,9.76474002099243065799783,0.0238240387062994690703377,-0.012279283850341531775241,-0.00479756111629250480560271,1.38395369395259093536765,4.29583419344909067660865,1.22989894799444865469695,1114.85636629062310021254,1131.96561248617513228965,1105.36943748447174584726,1121.20626261290476577415,252.454076475992422956551,423.510199988679801208491,-519.336975659656332027225,-203.566611413948095332671,155.48371837390698146919
8.48499999999999943156581,-1.26261871496900823785836,-0.686467742031021344040198,0.357464014049237721604158,0.027283052590497788164603,-0.0233645689093397446178813,-0.00545831828442148048879945,0.00643813534694532944857581,-0.00262676376088762011246081,0.0589953629424488437682506,0.998233949659958152977879,0.0225512538417747161745286,-0.00494490222000693036008556,9.76893126516803000924938,0.0237180921496532304271199,-0.0123883485462053955644679,-0.00487751407324644916524425,1.38401677172793635683945,4.29580363912062246356527,1.22988520490397301720975,1115.54838154415688222798,1132.92927536789670739381,1104.19614761599200392084,1120.71470270079908004845,286.232682012178713648609,321.240325941284766031458,-379.854664389071956520638,-176.828809257239839780596,155.482738495064808148527
8.48750000000000071054274,-1.65293475258294053631403,-0.798031208077671472267411,0.400752500982970216725221,0.0234796308737068790128966,-0.0245336055212561875149557,-0.00341664262448378424491535,0.00646789860333142271886508,-0.00268452369349346476809504,0.0589901822049505308864781,0.998233895798266490650974,0.0237249909746477666283582,-0.00388992108457813373645351,9.77304811582004973047333,0.0236162978908224033269825,-0.0124822462279161570941621,-0.0049462986054432103374956,1.38407903430079004536424,4.29577470217265755536573,1.22987292741675835472392,1116.28752970068421745964,1133.5718141158818070835,1103.47016416252608905779,1120.32211856661842830363,314.387399255425350474979,189.068497976193157228408,-181.045749749881792922679,-141.214772703711531676163,155.481695852988337946954
8.49000000000000021316282,-1.9655717247111645917812,-0.938275695467176040764912,0.343642151305508902758845,0.0171364552007871318028975,-0.0266448606807385274253264,-0.00135308477922586639814739,0.0065022179737570084262499,-0.00275880487884377651602863,0.0589859870901738719828344,0.998233707057228691894579,0.0253082415401551900913102,-0.00299962236166886886401528,9.77705968747198284063415,0.0235193071477810093650174,-0.0125650853998294960434112,-0.00500585546293166091386118,1.38414035233309085093367,4.29574745003360813910831,1.22986166927644058333158,1117.12031854043425482814,1133.87461785777782097284,1103.29091886724245341611,1120.00862883728041197173,285.0977516871920443009,25.1306814137983529633402,67.9321736048358246762291,-87.7832165303691027702371,155.480371918572188860708
8.49249999999999971578291,-2.07382238790677853046418,-1.0432661691884794752383,0.220565618987027228792286,0.0104900269107796716844261,-0.0289343976233630596761603,-0.000187732638888566641562072,0.00653812063241509828365183,-0.00284479308304604484175515,0.0589815964691285318788339,0.998233484296442541428007,0.0271856834584404474797203,-0.00235169526358540437183109,9.780940254894666452401,0.023427662863645566659887,-0.0126415946001302136741939,-0.00505782397703078735740068,1.38420070863511601721996,4.29572176526414484243332,1.22985107447627739496454,1117.71301845911989403248,1133.69746752295077385497,1103.80982503055020060856,1119.88320248396667011548,209.37511296402954030782,-158.096209140942676185659,352.407312262439006644854,-27.4616384212506829953782,155.479208272974886995144
8.49500000000000099475983,-2.02031910453442531405699,-1.11242987264325998708614,0.0481894054092848328485488,0.00367162176751144667119497,-0.0316504548751962641595092,0.000332475863553062869759636,0.00657315593387711172290722,-0.00293485715337417699122291,0.0589760218063216240524937,0.998233322135642531236499,0.0291871622774763223029382,-0.00199909498558242804122642,9.78466846233440179503305,0.0233416944842772637602746,-0.0127168522397660375966577,-0.00510345151544524741615838,1.38426045331571789809288,4.29569822462141814867209,1.22984090688284530834551,1118.16719410525456623873,1133.08413681207298395748,1105.0529554285549238557,1119.87132064517413709837,168.263964732405923996339,-351.610363085173560193653,696.26739909884270218754,9.75555463446501036628433,155.477982790504654531105
8.49750000000000049737992,-1.8039486585068842394719,-1.12761487754947276052064,-0.174739133021768078268821,-0.00263981443582130903893757,-0.0353517152736526202305711,0.000185808746312003252336084,0.00660366361333915904280323,-0.00302201726615228000866198,0.0589687375295303226052646,0.99823329538783212022679,0.031154198446716407921997,-0.00200729029991575380620361,9.78822706091325045463236,0.0232614300245383466558824,-0.012795940723255952095605,-0.00514369488357339574302607,1.38431995844571775755583,4.29567725804944622325365,1.22983113059267301636623,1118.55433828278205510287,1131.93941570752463121607,1107.29116202604495811102,1119.93198025713900278788,120.326368336215026033642,-463.601343523443063077139,916.326901707271190389292,27.1165269790398575366908,155.476442315110602976347
8.5,-1.54051298300266470420183,-1.06833233564968588247268,-0.342394315924851866395073,-0.00593081008835724676764301,-0.0385707634953782393938404,-0.000625017834704336095949517,0.00662671429568402123311266,-0.00310265365327218670121745,0.0589597636354238993638965,0.998233433016294413597791,0.032996035900930253959018,-0.0024196159785445231493739,9.79160195035847102928983,0.0231865696177106228592635,-0.0128835805478662059064821,-0.00517922108375449326972406,1.38437935301986603242597,4.29565814219501618254071,1.2298221151459347577628,1118.76882594693552164244,1130.76613009445622992644,1109.63458993709036803921,1120.00690328006930940319,72.4986088113072213445776,-478.245841735092312774213,991.244393879211997955281,31.0128168613180470458701,155.475101925123311730204
8.50249999999999950262008,-1.24239760431175505495105,-0.924331229207173254991403,-0.455325878825603491684149,-0.0081176253885610460264699,-0.0415359283264726680817702,-0.00222018193010300188619532,0.006642066389341268715929,-0.00317550391968022312910724,0.0589510494477138713431685,0.998233625732737994695754,0.0346731876897934179759808,-0.00321859487596057314284792,9.79478128175447793068997,0.0231164948565943037528392,-0.0129838526455354295180422,-0.00521022121384013929545898,1.38443856413639543312399,4.29563996900786992938492,1.22981301136734155754482,1118.91683132683851908951,1129.54818649884964543162,1112.24738399544003186747,1120.08704434144556216779,62.7684055260844715462554,-502.949259076070632090705,1158.20451725999282643897,40.6886264046470458310978,155.473705035740152879953
8.50500000000000078159701,-0.885333650753978851355441,-0.654567208997497096412133,-0.49500686169238067302345,-0.0100204780117226794483587,-0.044818988886082475331385,-0.00498636253045038613240791,0.00664799516220892106749263,-0.00323879703448585196459697,0.0589446905455929537342996,0.998233767925187143177368,0.0361373089154134671807661,-0.00440549450794285035737374,9.7977555120964492374469,0.0230503742313230390592604,-0.0130998227391574927069851,-0.00523632039367344370717205,1.38449749303458569116287,4.29562168665232313458091,1.22980312314741224710701,1119.08266797456599306315,1128.25138379907548369374,1115.42561252339123711863,1120.21034641209257642913,68.0733993994984274422677,-422.126458850950655232737,1140.72550145056447945535,57.5760130256095195022681,155.471966394600315197749
8.50750000000000028421709,-0.603675619430263044051799,-0.359831134661120266571288,-0.437045537200643430253422,-0.0112862592387454972048255,-0.0469872627929227223986253,-0.00768357951060382945995819,0.00664572666105182723039757,-0.0032903735575164406480797,0.0589417804189369953782318,0.998233794895717285733383,0.0373392351210693820839914,-0.00591553234813968487060265,9.80051629346614383564429,0.022987192391764894872086,-0.0132334214265673599797424,-0.00525654435763947026905019,1.3845563947623196199288,4.29560283024927880290988,1.22979124224474190008038,1119.25719832383606444637,1127.43755420459456217941,1117.95101150269374556956,1120.37492440657365477819,85.5742328077837726141297,-251.71663847809674052769,960.770027251246688138053,89.3406696442248602352265,155.47046778838026170888
8.50999999999999978683718,-0.344340120039846486754698,-0.0201915399824499422476443,-0.294058716402510411658255,-0.0125927520024710498658393,-0.0479292252584549577365536,-0.00982856814911179516025541,0.00663858148102347816327251,-0.00333174294920774447317791,0.0589429462009385257692529,0.998233643086893329687825,0.0383078535188928620547344,-0.00764131732317322592829001,9.80305597700487574286399,0.0229256966528740176169965,-0.013385460421678320799832,-0.00526972984169461582115712,1.38461581723403992505439,4.29558296546560125506176,1.22977711696072722347139,1119.5105391386048268032,1126.99280060668525038636,1120.22946265964651502145,1120.65704976031361184141,117.604155527147412385602,-114.579642159355955755018,862.779948994410688101198,137.592260496585453211082,155.468920335761168871613
8.51249999999999928945726,-0.105258864641437632769794,0.326737732580478890120901,-0.105718923330524572357092,-0.0134460529497605878884725,-0.0476255900273519425236479,-0.0106733901641321831527121,0.0066283102759239764800725,-0.0033634691367990282757916,0.0589469256265369237479668,0.998233374020752739497198,0.0390559330149826064437768,-0.00950143368181559366814071,9.80536824868489453876919,0.0228645281553177849576119,-0.0135556094353033625143912,-0.00527469265698413299070513,1.38467566632540739490764,4.29556162378866890350082,1.22976112237344348265822,1119.84521910147168455296,1126.86465599379789637169,1122.26491124766494067444,1121.06288570905644519371,154.59476306984782922882,13.2800764859418602981123,754.329275201116956850456,191.529733287613538550431,155.467334539393192471834
8.51500000000000056843419,0.103937338809236806680403,0.642219406281208216036305,0.0948935720739469412698952,-0.0129817107356151491270868,-0.0458231239997371683769778,-0.00978940854938833461551528,0.00661647873661458472277497,-0.00338797865410226132706906,0.0589530191527382133043211,0.998233011311795759290533,0.0396367685254037649400516,-0.0114188309760290263028537,9.8074479044819646844644,0.0228021906243013085247018,-0.0137426680447385492211954,-0.00527062384318981343167554,1.38473582139082407316266,4.29553832954256709086849,1.22974441023853153787115,1120.28351295395418674161,1127.05920098911497007066,1124.00110903565268927196,1121.61469842675182917446,217.20287010504094382668,130.442659964071566491839,696.73083683463141824177,265.996449772914559162018,155.465705232205891661579
8.51750000000000007105427,0.315585473342198219448562,0.93908461967361478439642,0.301846522730146449298161,-0.011320592206756473901974,-0.0423468566668218429627224,-0.00759023703152691010115349,0.00660345097219104757574337,-0.00340753553871045835113596,0.0589619159156694397361242,0.998232505046016904692863,0.0401032277641741527474117,-0.0133404857764587089774544,9.80929148391627414582672,0.0227371007933864673067337,-0.0139447966364109835618601,-0.00525720514512521309991033,1.3847964572726481069509,4.29551303145557916707276,1.2297282071385742252545,1120.93123345199705909181,1127.51686929361835609598,1125.7485654318386423256,1122.39286795792122575222,258.63494057580879825764,177.757004744479559121828,585.249741125633590854704,291.89668571572281052795,155.463703433170479684122
