t,ang acc x,ang acc y,ang acc z,ang vel x,ang vel y,ang vel z,quat x,quat y,quat z,quat w,acc x,acc y,acc z,vel x,vel y,vel z,pos x,pos y,pos z,mot 1,mot 2,mot 3,mot 4,dmot 1,dmot 2,dmot 3,dmot 4,vbat
5.69249999999999989341859,-1.36358249929337982386812,-1.62643531593163381820943,0.654947794606657307525666,0.0165299505198473611899956,0.0121539717496012347752732,-0.00671078294150326964961906,0.00383917806289600996305644,-0.00366853111823264334268035,0.0790210714677958975249439,0.99685872078451120970044,0.0303539415569378974446568,-0.0178036391856028833324821,9.81764710196375034456651,-0.00384590669412959978296085,0.000774440065097266056720615,-0.00544473533476079636639344,1.72864796459132752382004,4.31177437734411928005329,1.293635972197099359704,1118.63632733751478554041,1150.25012732609980048437,1113.29538728944589820458,1121.49174360719712240098,211.045092601448175173573,-344.36317469631654830664,-33.625267123171205696508,385.370427003189490733348,163.31536735150152139795
5.69500000000000028421709,-1.73920468292564489587448,-1.84104385489217503568682,0.839755258344066057851762,0.0117325364748831467015533,0.00622742489932287274917444,-0.00422297072420319864749505,0.00383745365266419981298274,-0.00367150215088954531492127,0.0790275949209478939527784,0.996858207260423068163391,0.0328809019508422145650073,-0.0181259115791289129870911,9.81903472748654415624969,-0.00392982118439112650815082,0.000710368601607709246326117,-0.00543294265875051904379767,1.72863660330715984692063,4.31177716574286407080763,1.29362110915281580680869,1119.31669607139883737545,1148.93064542727347543405,1113.34339662041065821541,1122.56296395507683882897,273.52718811285416222745,-595.517828276719228597358,57.6422252487203436999152,383.059847407966117316391,163.314220063250189696191
5.69749999999999978683718,-1.97663949160328766829764,-1.92749611673002996248272,0.950447876900514576625767,0.00679100444597186686523926,0.000774056149404257266312401,-0.00193321911511025804064623,0.00382592723430749117805028,-0.00367906189151628003342065,0.0790388044834639119651243,0.996857339416744592242026,0.0355528263094278401679205,-0.0187184597330951607574434,9.82035744133776766773281,-0.00400379816933444255405705,0.000643310079030688804734017,-0.00541073810881712025100398,1.72862506298249618552632,4.3117801105273212414204,1.29360465111689793005212,1120.00396327807902707718,1147.27253818471626800601,1113.58359841568949377688,1123.4070428442369120603,284.008653099005357489659,-733.741937830079450577614,128.64725633176294650184,311.892913439403230313474,163.313205402863871995578
5.70000000000000017763568,-2.10619839479435100315641,-1.90463310781620354106281,1.01756260289972422228288,0.00119977216571621786607438,-0.00455677082554108592998832,0.000398900062355169739668204,0.00380570578070487004762601,-0.00369100809176311269593773,0.0790536858971976896803824,0.996856193850207850104539,0.0383330521772783372469462,-0.0195571894706088808546518,9.8215787959481595237321,-0.00406636254232600920233143,0.000572867899794441337232853,-0.00537634153811137553008459,1.72861381846701589459769,4.31178287495856604749633,1.29358642258066747210421,1120.73673933689383375167,1145.26193573812315662508,1113.98663290206945930549,1124.12242852227382172714,290.471421311764800066157,-825.188612373557930368406,187.65934715157018786158,257.260451679627294652164,163.312133985454011053662
5.70249999999999968025577,-2.13193157560043689002782,-1.79203786753019467248293,1.05054142879590828307812,-0.00466627954989986149653136,-0.00932291757288055723817966,0.00278927668775643235535289,0.00378073733671219127522312,-0.00370924418360465317848207,0.0790715494191720214001151,0.996854803091587804431128,0.0412262438915767387426214,-0.0205649123298494995726315,9.82266201203090894011893,-0.00411620418251473167009502,0.000499060404061124683432193,-0.00532853811654617273707579,1.72860280406849886603027,4.3117852588462133311964,1.29356715491454909994218,1121.45632038463782009785,1143.14659512284856646147,1114.52189515144732467888,1124.69334510263502124872,274.288821307078649169853,-828.920907575883916251769,252.601152792072667807588,189.111290899158518641343,163.311018917982408993339
5.70500000000000007105427,-2.02656124304343743247614,-1.58067652232517108501497,1.04403763739616817218803,-0.0105107279911764838614685,-0.0134764291897402979647502,0.00525475870445491106963676,0.00375644660850111894098702,-0.00373604880992221746044413,0.0790905022731194923268916,0.996853288480261112702863,0.0442432817884230722427219,-0.0216356336231732643282655,9.82357179813918435229425,-0.00415212115432386959235078,0.000422296195271349935652927,-0.00526690500907771655403344,1.72859110948241423422189,4.31178643012386419997028,1.29354799091654948384189,1122.10818344342919772316,1141.11733120024382515112,1115.24963866602979578602,1125.06798497676959414093,260.123399854869887803943,-828.975836991419328114716,376.575471424653414942441,119.640375602857091053011,163.309855684582032608887
5.70750000000000046185278,-1.75743770384076691826181,-1.22947184404080678277182,0.991729868751895504708216,-0.0168241420289293661105567,-0.0179873366548961577393584,0.00829361648744554764978165,0.00373554926700021871013857,-0.00377129222151832439041685,0.0791093506224434667162271,0.996851735337793032343257,0.0473413371230824719937402,-0.022712605728996124176966,9.82427677781781305554887,-0.00417302433339759946268055,0.000343334595344086627045216,-0.00519192893761864348450841,1.72857843811139244571962,4.31178539867683063846471,1.29352929409787686942934,1122.75693738391237275209,1139.00171593789082180592,1116.40477250857088620251,1125.29154698064940021141,209.496965468047079639291,-701.170669661420447482669,476.423820429828253963933,48.764547908468685477601,163.308410314518454242716
5.70999999999999996447286,-1.43210673614253924945672,-0.871511189319497447947072,0.912290919824624957357173,-0.0210488996984682097401986,-0.0210208181762804972858572,0.0108304599567338680904394,0.00371978237539936961233988,-0.00381311239022974219486928,0.0791282222777106997169128,0.996850134652581210126243,0.0504410560166345806054622,-0.0237557556019820509396467,9.82475104711081570485476,-0.00417808991272345959383516,0.000263070003044014056464706,-0.00510499237480567177871471,1.72856479428792608743493,4.31178217605877289742011,1.29351122541534691023912,1123.15566827076941081032,1137.61147785193679737858,1117.63175776817888618098,1125.31180771631193238136,125.033859889802386078372,-467.096954417739596010506,544.372701478744374981034,-16.6920039719574475611807,163.307169422508678735539
5.71250000000000035527137,-1.03235025074728370420019,-0.472204955806031001497303,0.799999780206884780753285,-0.0240048144983580902245279,-0.0229063092242320145985879,0.0129854762972140234944529,0.00370857727699319770359176,-0.00385921720556471137611454,0.0791441839809442632125425,0.996848730562795437570855,0.0534514431954959123860505,-0.0247694421073657924936562,9.82497580391406089006523,-0.0041669691237120748406042,0.000182247874547034825450445,-0.00500830363212744020945388,1.72854985843114183907687,4.31177741962311955603582,1.29349412296291577106899,1123.38210668336137132428,1136.66623116580217356386,1119.12663601596455009712,1125.20808696078961474996,55.8714675557906161884603,-315.619520467368943172914,704.429319739862421556609,-60.5503296759265339233025,163.305896854366579873385
5.71499999999999985789145,-0.506459936310755809429907,0.0157408934469452505000575,0.636091508166428121207048,-0.0261153386438256196466767,-0.0236110644165291698459708,0.0147108274314462668386216,0.0036994024339906182545501,-0.00390444183508915909630588,0.0791551887932241821088653,0.996847714889416369743458,0.0562241730996752286930729,-0.02579208674091165026665,9.82494119217433414803509,-0.00413997725158921862226302,0.000101275536625786133620303,-0.00490481942279404059537029,1.7285337412812049606714,4.31177207525526640097269,1.29347847723818509813043,1123.4350256085483579227,1136.03338024959998620034,1121.15390436687812325545,1125.00905606793230617768,-19.1673531527616880509868,-159.706150744617616510368,762.539132162981218243658,-76.5570534224041665538607,163.304340726879502199154
5.71750000000000024868996,-0.0585890778157323044439408,0.398641607907624651030432,0.480418972097610419424996,-0.0266101838653922499744464,-0.0228499379087385261211107,0.0155860537136188696122341,0.00369279926050317727076466,-0.00394488292553584959931889,0.0791630661860764778259281,0.996846955122399180915238,0.0586440687467209981198479,-0.0268040243254470886280494,9.82464647650126998712494,-0.00409834177099417055339936,2.01022221126011165761791e-05,-0.00479805564673970938449621,1.72851759706823426832045,4.31176721264251838761083,1.2934644115677118580976,1123.28626991759756492684,1135.86770041207910253434,1122.93933167677937490225,1124.82530169367760208843,-100.137614319466905499212,-12.9946820637090283412363,704.879380906064852752024,-71.6726941621361106626864,163.303025589419604557406
5.71999999999999975131004,0.367558612698820175168635,0.722153242727839872472373,0.304754597955739059411684,-0.0258043835651973960110261,-0.0208816050382751791647529,0.0162141258184927000707276,0.00369181172354132161247953,-0.00397847076371862871241314,0.0791718157366883557024551,0.996846130537074714972334,0.0606410336730444921027328,-0.0277392327645062664043252,9.82410074229344409957321,-0.00404429705855788908935855,-6.17546035076676873287749e-05,-0.00469188929369828127552422,1.72850279193363598473354,4.31176342778114030096503,1.29345184558352266357417,1122.93433753695103405335,1135.96840683928144244419,1124.67830127140837248589,1124.65069259712163329823,-197.67303879203120686725,76.7833639325106531714482,721.418264104719924034725,-77.8148625538977540827545,163.301698558497605517914
5.72250000000000014210855,0.823646719790520509540954,1.01093011075635308415599,0.0626672649406574966413075,-0.0235888383493957978775946,-0.0174161748275531852447884,0.0169676933358813356034211,0.00369889592791900617685386,-0.00400644242249951348933124,0.0791840087543665555047667,0.996845023203851265947151,0.062215549386239216156369,-0.0285476121433471535793203,9.82332314408008500095093,-0.00398098906766179358451829,-0.000145078467155528544052512,-0.0045903475645063113175226,1.7284904953349129463902,4.31176117118778101655607,1.2934411010328339397546,1122.29790472363742992457,1136.25161723174164762895,1126.54642299730289778381,1124.43622738090812163136,-261.689542593471742293332,113.065842737142304486042,630.121726404415085198707,-88.250834123377742912453,163.300100149935900617493
5.72500000000000053290705,1.14132270854347805943974,1.15608311179024370041191,-0.171871036439171898102529,-0.0208883410093482040081891,-0.0137891708722202212950014,0.0175193109594883322799319,0.00371216361169488797897009,-0.00403103035298304698819116,0.079198267848175477046091,0.996843740063356742453493,0.06338871985676514109187,-0.0292645084024409744827278,9.82234331595507192957939,-0.00391214882033233922464799,-0.000230765189237765882841052,-0.00449740954941818191215042,1.72848121589435921308109,4.31176012809432140926447,1.29343272596227776283229,1121.62588982398347070557,1136.53373605296724235814,1127.82890990343094017589,1124.20943842650467558997,-284.649475866359978226683,110.638292173600888190776,444.613011142073844439437,-115.544893354083527015064,163.298768141530899811187
5.72750000000000003552714,1.38154463941447103181304,1.20258758520594666308057,-0.441409008575637473725806,-0.0174411651320046448554457,-0.00991142287823002302027398,0.0176698491252138961682405,0.00372987863370506222276957,-0.00405056258717668201535522,0.0792117930590803959178814,0.996842515966038122954274,0.0641140590826499018328732,-0.0299151370482516471005496,9.82120115893124179251572,-0.00384164032425386584371219,-0.000319678896911372752154268,-0.00441676555893750176495782,1.72847405130209841317424,4.31175976539262340025971,1.29342654136081924853841,1120.87465734430566044466,1136.8048086926096402749,1128.76948805301321954175,1123.85850291413771628868,-301.201725927291647622042,106.066547733737465364356,319.353345536371762136696,-170.951140415176269016229,163.297441205431539401616
5.73000000000000042632564,1.55302183520844816477791,1.18085742330626786156245,-0.731107844549422125624005,-0.0134437379345696203514215,-0.0063931560528658684661174,0.017265815749658870031924,0.00374974630526592363211069,-0.00406243384258767742389651,0.0792234504242543269292298,0.996841460067530826805182,0.0643348687478082215118746,-0.0305334768862043567927422,9.81994516209273093920729,-0.00377311430607607349585475,-0.000412495129946053294169028,-0.00435149452340080882678519,1.72846792394078785370937,4.31175991442663164576743,1.29342175676278325902047,1120.11988119434704458399,1137.06406879163591838733,1129.42567663111276488053,1123.35468272442881243478,-286.927637650302813199232,108.868748949955758575925,201.619874910561264869102,-243.288504088791967205907,163.296121624562232454991
5.73249999999999992894573,1.64310014844565910330232,1.10614966290796301606747,-1.02030043824628058324322,-0.00915933797801730953391797,-0.00363202027642911800392467,0.0156917695229039227955425,0.00376904021582235085330304,-0.00406375832338980950281249,0.0792345160133815507030874,0.996840493739214017487882,0.0639970569353839058290845,-0.031161044680155687569556,9.81863056206364603895054,-0.00370977212355673609256446,-0.000509608778340856004122894,-0.00430382274068838270586479,1.72846274886574979845477,4.31176007123204296789254,1.29341743449275914379371,1119.44001915605417707411,1137.34915243735940748593,1129.77758742756600440771,1122.6420603936937823164,-262.085509034210303980217,149.390384201663891872158,99.8347116589705763090024,-354.93397218343335453028,163.294813951994171929982
5.73500000000000031974423,1.66823649875053314772799,0.999031340071711793093812,-1.32061301594238944545623,-0.004400155150764728170798,-0.00131376767531825788468125,0.0119747129712345079521896,0.00378568625560119420211946,-0.00405123129186097958448487,0.0792457587945610830715282,0.996839578355278588261967,0.0630475958028633987062506,-0.0318254128506179206903326,9.81731720227550752611023,-0.00365421749486231255479862,-0.000611118157478189247266975,-0.00427500904736325109539719,1.72845833295483330971365,4.31175980524155200157566,1.29341251097554388316269,1118.80945364917602091737,1137.81102071264422193053,1129.92485018940760710393,1121.580012863511683463,-187.405504933444177595447,205.290575072653894039831,19.8612628299092328632014,-409.453939206022937469243,163.293261463993530924199
5.73749999999999982236432,1.63134236940445731534055,0.923267800671309646354246,-1.49657283153737874492606,-0.000780951021039924032397794,-4.07293192675984181360359e-05,0.00752313996030302013090507,0.00379865565054418900456379,-0.00402814024585927861477064,0.079256066747579720366268,0.996838793173349668741423,0.0615715057708486473986298,-0.032543588519797744806894,9.8160659742549647432952,-0.00360842088441036502530213,-0.000716843374924747383895862,-0.00426531432675672332599515,1.72845374536832441236811,4.31175876394669455038411,1.29340685487532724984305,1118.50299163138697622344,1138.37560531272265507141,1129.87689374171554845816,1120.59479069766371139849,-65.2802761766011201416404,281.424189117621267541836,-44.3032834215055473237044,-389.014475473376592162822,163.291983116607838155687
5.74000000000000021316282,1.5451225634569645261962,0.881382754716422911478446,-1.56503096221523985143165,0.00279971752464896680989703,0.000953951785025487514896314,0.00254925551502694627478696,0.00380705387837743276790992,-0.00399932123471449275931011,0.0792635607540943115667531,0.99683827225643673042299,0.0596905561952366936484538,-0.0333324064931595359650984,9.81493740213032239694257,-0.00357367197263190128700416,-0.000826374126410398587155859,-0.00427414288053326509725371,1.72844840913076769339796,4.31175639295422019614534,1.29340047701568860993859,1118.48305226829302227998,1139.21814165823229814123,1129.70333377230008409242,1119.63494048614484199788,63.3754826668805293365949,449.689800161977984771511,-101.637804487293010424764,-380.201428517110741722718,163.290721853691167098077
5.74249999999999971578291,1.39152290101628151042235,0.870324082360938833247133,-1.51297964172072929578405,0.00689794371493777491027855,0.00231182244952731971721072,-0.00306836705207603165079799,0.00381085363582689016712091,-0.00396503985401717301551017,0.0792664417863431364219551,0.996838158766591098114418,0.0574434360845630098690862,-0.0341849965582466872038303,9.81399024026572774914712,-0.00355063820940964463071521,-0.000939180519498858390470275,-0.00430019597874479065496844,1.72844191994913920495947,4.31175273174185402780267,1.29339345214539069850446,1118.81986904472137211997,1140.62405431353249696258,1129.36870471927909420629,1118.69378355507819833292,180.53034328704981703595,585.406100360945629290654,-146.339181139640857054474,-283.201730347315447033907,163.28922938161815636704
5.74500000000000010658141,1.22468642621670076309215,0.878952388816989671482816,-1.36670158314101652941019,0.00994594309312832845770824,0.00382169989290086350650077,-0.00708414000231148005548576,0.00381308786171055376715278,-0.00392712379386185323620895,0.0792644389222340872702688,0.996838457380663678364385,0.0549079046525342007178949,-0.0350377220613817957906022,9.81327798020633323972106,-0.00353960338594202584064363,-0.00105474268197940221000741,-0.00434151351482063834613667,1.72843449998104237153029,4.31174828629695117143683,1.29338642919498103545095,1119.3857039847282521805,1142.14517216003696375992,1128.97163786660189543909,1118.21893183440829488973,271.753613344165671605879,677.612776004328679846367,-189.888956523616229787876,-99.1115191009912166464346,163.288004487726226443556
5.74750000000000049737992,1.01958075683413995626836,0.875712153090645650799217,-1.13721434930867681956101,0.0128322808291468533348212,0.005960084524950378347119,-0.0102716542302827701371726,0.00381784686367475731977317,-0.00388946765649173485657197,0.0792581203780191451135906,0.996839093389118025001494,0.0522063043721411046416137,-0.0358101729694232095990714,9.81284682295621735192981,-0.00354065577470879383481517,-0.00117263201747669918231787,-0.0043955095625042581511388,1.72842668770650553788926,4.31174312224588174302653,1.29337956897424866120616,1120.17863711144241278816,1144.01211819355467014248,1128.41925993666086469602,1118.19822595957316480053,374.298088450003660909715,887.421317388471607046085,-285.845173166086794935836,111.856804185756686820241,163.286801150290614259575
5.75,0.733145514852096891189603,0.817527387458742649251064,-0.801245168715926436853181,0.0160514660563204104859469,0.00954285400520408014224394,-0.0131113287933114497363363,0.00382441813155888835074059,-0.00385027309675435927549536,0.0792488980574495016639958,0.996839962930658129991457,0.0493434472038441623853444,-0.0365077249457160524226396,9.81273533707530098979532,-0.00355373668274156949073439,-0.00129252500773340797853017,-0.00445903318069942444096254,1.72841925304902144233665,4.31173748067143680628988,1.29337186964196226846013,1121.25719442697823069466,1146.58227874697922743508,1127.54241200077149187564,1118.77821585533706638671,392.63156848338365989548,979.865475207609961216804,-358.144524561119737882109,310.718152148053661676386,163.285384986219241909566
5.7525000000000003907985,0.469619051191975112047317,0.701350155761001570198232,-0.498598191262323187089578,0.0180306912296201264644946,0.01303087527441839678366,-0.0145637306888586771230765,0.00383278807226449446873828,-0.00381191254089126123349995,0.0792367729704632345333337,0.996841054886922206534905,0.04640710399089204019063,-0.0371290329321285333952218,9.81297101487843370648534,-0.00357874201426664102776432,-0.00141430070649297746389339,-0.00452833131836935954411816,1.72841259405716329844438,4.31173177419671915799881,1.29336250521288209647253,1122.14179495385928930773,1148.91144556959261535667,1126.6285373138553040917,1119.75181672031339985551,322.355332121794674549164,939.415048611837846692652,-395.877947107609770682757,469.062208138767346099485,163.284230574613161479647
5.75499999999999989341859,0.200070904857946485488895,0.510084527778551177767952,-0.204711496502682721576605,0.0189083080995945569668937,0.0157701353343548157648346,-0.0148633311362290302520828,0.00384503959014092025481268,-0.00378074833471304765086796,0.0792231787888129368457868,0.996842221138603434837933,0.043565535145840939001971,-0.0376385588560897849097486,9.81356921013474092774231,-0.00361545459445807926615601,-0.00153803808228487187692579,-0.00459920880080206921636243,1.72840673784692655523543,4.31172658677318132447454,1.29335093759182639949756,1122.86897108758716967714,1151.27935399003831662412,1125.56302226523348508636,1121.123526896030853095,247.18232751588928408637,922.469337340291190230346,-437.687388607455659439438,586.159893156140014980338,163.283106349861583339589
5.75750000000000028421709,-0.055511492886131441615305,0.271828319605671664405122,0.0615890352411703756452255,0.0188186021683412925409318,0.0170160552394153542776767,-0.0143550107780838608756424,0.00386228572060718765984744,-0.00376003937290241615348796,0.0792099814438561589113874,0.996843295392856210135335,0.0409230206125737183686653,-0.0380153957927264196658967,9.81453367479002025675072,-0.00366335932654084138818118,-0.00166393826336440125643334,-0.0046673501767007276319621,1.72840078237103966785071,4.31172221704626412730477,1.29333723790659727015395,1123.37770659143870943808,1153.52379225629397296871,1124.44010037081807240611,1122.68261618609403740265,138.163765973971067069215,823.949969207041476693121,-439.549176391947469255683,626.411955403377419315802,163.282010117783812574999
5.75999999999999978683718,-0.272741458547516191224247,0.00726266397061337692919736,0.279171697031181831327729,0.017654066534454601611337,0.0164985417210376066055044,-0.0133906806175228699357094,0.00388257685902731065202831,-0.00375101800704388419968605,0.0791972965483151991605837,0.996844270539764876204458,0.038536863358471562523988,-0.038295789711606589844628,9.81585626349481010777254,-0.00372157162274815676850093,-0.00179219312080588252626689,-0.00472861621474716768698254,1.72839398877284122768572,4.31171797154735347845644,1.29332225843671944076618,1123.55978991745701023319,1155.39910383607343646872,1123.3652763832737946359,1124.25558667304767368478,2.1937859264199244258009,683.744937667703197803348,-431.822827517053269730241,641.459752735468100581784,163.280951614001310190361
5.76250000000000017763568,-0.471984592122911772449356,-0.308067505357001114596471,0.475917564848632290708252,0.0154865257202074432796302,0.0149933096213757093700947,-0.0118860387509528812877146,0.0039044903344209193861436,-0.00375269213415461771674031,0.0791856980084921224793959,0.996845110155703428844731,0.0364182555711694139199963,-0.0385028174287664823327582,9.81751705383111072933389,-0.00378887947884481643412435,-0.00192288313221912368460031,-0.00477926361939105381199111,1.72838609960850697611079,4.31171326258077325377371,1.29330690127818859203046,1123.38867552107080882706,1156.94251694463241619815,1122.28098623323285210063,1125.88991494977130969346,-119.314045490366694934892,415.413188619831771575264,-348.445268668463711492223,525.338453532606195039989,163.27973024619683428682
5.76499999999999968025577,-0.586109623085375175399747,-0.557485590862172419868159,0.586453601102495558627936,0.0137294338929603021437487,0.013545693742390977828971,-0.010144612648064042434437,0.00392764599545432878391349,-0.00376062439496155668725019,0.079176587498251224661594,0.996845720925596867623142,0.034508506600084476456658,-0.0386345054251641117915028,9.81948524052691062991016,-0.0038638505046965331002351,-0.00205593089288816626564182,-0.00481607126172609988773443,1.72837737001196933839253,4.3117078011230436374035,1.29329093543907047703101,1122.96321969000518947723,1157.47616977917255098873,1121.62305003993151331088,1126.88227894071064838499,-208.734610133619668204119,36.2238296455878767687864,-208.541039934157083735045,298.470086117601567821112,163.27875671094557219476
5.76750000000000007105427,-0.657483645408821537614585,-0.790671036751721345581245,0.648662977984992394908659,0.0122872718133145656521643,0.0117099586848227604773953,-0.00798456489565214054537901,0.00395283847362071314585075,-0.00377300230613001989776745,0.0791704948628173810210029,0.996846064084892291567996,0.0327976355571938660293796,-0.0386707109162718679074011,9.82171961769215684512346,-0.00394501380147901665323973,-0.00219112300926335148640312,-0.00483636293243091576476989,1.72836808749983283917118,4.31170167069511034441121,1.29327435426032533172247,1122.34500247040273279708,1157.12363609286035170953,1121.23828103356208885089,1127.38226538035928570025,-283.389850623008271668368,-356.727629031264484638086,-121.352407471912684400195,105.848395856930267200369,163.277833043408833191279
5.77000000000000046185278,-0.71143213002505101272277,-1.05594085409306259748519,0.687792540560413723227384,0.0105579675783820103873722,0.0092179570399001393293803,-0.00570910060856470030765664,0.00397917506748885624334733,-0.00378934334802424280935762,0.0791675280744458254034157,0.996846136285236439356083,0.0312943280953716512771123,-0.0386273052966937396890401,9.82417049835741629237873,-0.00403094245132801145409251,-0.00232811669127920041477697,-0.00483810506114574177816134,1.72835856610496008123334,4.31169499454172999719503,1.29325724694518617852168,1121.54627043688992671377,1155.69253163401594974857,1121.01628800257185503142,1127.41152091999538242817,-273.77804872208474762374,-672.183045951956728458754,-62.6330165523554285300634,-68.9509913864654748749672,163.276786400621404027333
5.77249999999999996447286,-0.741200165629896212671213,-1.26859115272792255524337,0.712548565550203627516623,0.00907284816239183576624949,0.00710102957753771298760048,-0.00463753894773448731986276,0.0040065125975050778009412,-0.00381164862846892051398418,0.0791670857890472284834615,0.996845978368946172842868,0.0300522881541218679635197,-0.0385103789888367256666335,9.8267813347224386433254,-0.00412031567507218938334335,-0.00246650111902375294287149,-0.00481996401946572367025468,1.72834871236374376657352,4.3116874797226572013642,1.29323974354678683518216,1120.97611222679233833333,1153.76272086310063968995,1120.92511595080031838734,1127.03751042342696564447,-173.05380087464442340206,-882.615951560383678042854,-46.324384982564048129916,-201.161318708959441892148,163.275968374455970888448
5.77500000000000035527137,-0.764855793424666807744927,-1.47061270934681043165426,0.752495140438006915317715,0.00752213805229185860506957,0.00463587698012505634859171,-0.00439736171994519441097449,0.00403611337157854747209607,-0.00384326940286306307364983,0.0791697593806045402109461,0.996845525654546982252668,0.0291491374847158458971652,-0.0383017537423815529473714,9.82949085356464280494038,-0.00421194884282620213983295,-0.00260584025867649331231757,-0.00478136962915495355302964,1.72833858507310234031706,4.31167891260900670857836,1.29322261335437249663016,1120.68100143251672307088,1151.27945187621412515,1120.78466607765903972904,1126.4057143264506066771,-32.2246709481994528800897,-1157.815572692131581789,-99.0158976961104855263329,-296.410089533725965793565,163.275209482314039632911
5.77749999999999985789145,-0.792184284112532610677704,-1.6831681101275910439341,0.822737070339805809382483,0.00534273565639586597852961,0.00108044678449147795243346,-0.0042190581416654921939613,0.00406660159130200083571482,-0.00388380830167057424992527,0.0791755681110498654717844,0.996844783299641212792608,0.0285804983239071504208528,-0.038030252441361891979632,9.83223588878480647679226,-0.00430476318960232827437462,-0.00274572692111832482655953,-0.00472258195363988407533551,1.72832834717982142258563,4.31166981174732910631064,1.29320627790791831124295,1120.81498887205134451506,1147.97364299964010569965,1120.43003646231977654679,1125.5554599757583673636,144.833051275012081759996,-1219.13502506638769773417,-166.164972003711142178872,-301.252773641278565719404,163.274370124368886081356
5.78000000000000024868996,-0.816481840927145596786829,-1.81105446918232071418231,0.88035871211642435785194,0.00345323744639796032310231,-0.00258408013663742651758182,-0.00308285166826430777342605,0.00409440551271241914149668,-0.00392992830657192676602207,0.0791830159248412268624406,0.996843896977015142546463,0.0282768126922335848172363,-0.0377643331478070137796621,9.8349533313389727595677,-0.00439780727665716169444421,-0.00288585029201005862850571,-0.00464462014595034937414209,1.72831757016918063918354,4.31166059761182829390691,1.29319081218725107085277,1121.40516668889176798984,1145.18377675088231626432,1119.95384121764050178172,1124.89945045824424596503,334.709920855046107135422,-1072.81662590905875731551,-212.528603226478452370429,-232.474500780613595907198,163.273731951422206520874
5.78249999999999975131004,-0.844672509022630690900257,-1.84796408815478829801293,0.891919113420519549251253,0.00188113349985598527283615,-0.00734595137717699350060618,0.000171352665917233514328299,0.00411633804524862232515625,-0.0039774104199382645172256,0.0791907327319370524243425,0.996843004670077359463676,0.0281480197270077663052046,-0.0375647441056900371902927,9.8375817679873289733905,-0.00449030946216723379077473,-0.00302599572553091970480987,-0.00454913098226599008772064,1.72830647702207040872224,4.31165163191263633990502,1.29317619221970403486921,1122.48853847632653923938,1142.60955987009492673678,1119.3673934461874068802,1124.39308747185532411095,499.686079872218840591813,-963.945699159123819299566,-226.634243383209934563638,-174.417438176855370102203,163.273159132023891970675
5.78500000000000014210855,-0.875329756756585752874855,-1.77831481374052136068542,0.831674243435149285197383,0.000531713328743856094606157,-0.013037500427975469777242,0.00476425309933425217279179,0.00413045308270302332503965,-0.00402272127909036100040785,0.0791982727990926393957238,0.996842163576129314250807,0.028116109532461162207051,-0.0374701064417992668609259,9.84006307634435728459721,-0.00458171958439548224900628,-0.00316598137049993368780099,-0.00443825468225537023841953,1.72829538355618472778019,4.31164239238417845712092,1.29316329146485342604933,1123.90359708825280904421,1140.36404825508680005441,1118.82067000072447626735,1124.02736326735998773074,610.767684531624581723008,-793.734655212450547878689,-168.488532347210849593466,-120.226083897595657390411,163.272641290899770183387
5.78750000000000053290705,-0.899828402392067960846589,-1.55579370764346025524105,0.67162599678519308010749,-0.00124958847258652529579881,-0.0190533577257346597999543,0.0089927420176882533892071,0.00413711569309696547414035,-0.00406504136871458417873404,0.0792054091241150975966079,0.996841393362849159665018,0.0281571941454690256867455,-0.0374789492282919384225082,9.84234370362814381394401,-0.00467171370681155034149112,-0.00330562017503576886442995,-0.0043144375287841596477989,1.72828444246014112373189,4.31163265354591818123708,1.29315173636249181043922,1125.54237689898513963271,1138.64088659403205383569,1118.52495078445122089761,1123.79195705236725189025,713.528203219872693807702,-620.334148430142249708297,-25.2743936619031899226684,-93.3519707906290818755224,163.272190026196625467492
5.79000000000000003552714,-0.900633763000892040295753,-1.11453263826802428937413,0.395550086330266226219976,-0.00420666514493370745364498,-0.0249803727958039650802746,0.0117377487464532179184395,0.00413787906150647928626984,-0.00410464467703445384794136,0.0792111598791679916153896,0.996840764793241129737567,0.0282686186803375351372924,-0.03756907283179353185254,9.84437614166467866994026,-0.00476013270312409825929523,-0.00344471419945644678067831,-0.00418027542235397363279414,1.72827372800035128364016,4.31162255225219404053405,1.29314062962708709036974,1127.47123810435209634306,1137.26237751293615474424,1118.6942980324149630178,1123.56060341340685226896,655.25267846248004843801,-390.614841312853172894393,168.987162239503931004947,-93.623880710449327580136,163.271724990179393444123
5.79250000000000042632564,-0.861806493185324318240248,-0.630051007921040628900755,0.14259838295228699500683,-0.00687691020239717971246352,-0.0280399786030799957892157,0.0118163636616948914542791,0.00413431671225280173570527,-0.00414181215646208106262449,0.0792156555894937969286573,0.996840260663496735560329,0.0284463149446442346846009,-0.0377187048251836354317845,9.84612003638989286002925,-0.0048469353360945681072347,-0.00358303199062772609329031,-0.00403843104128423849297214,1.72826275792357209049044,4.31161253578430070376726,1.29313012274930438927356,1128.8186402912974699575,1136.68781238746782946691,1119.36988659564872250485,1123.32383764881501519994,438.341812482631439706893,-127.120260726544969998031,379.466891376167836824607,-122.22377251182739144042,163.271400230735565628493
5.79499999999999992894573,-0.770714656408023168765453,-0.0803717840960536666905512,-0.0746739159654572215440993,-0.00928115385776509538295898,-0.0288627997302148553426804,0.0100620572169162671855025,0.00412758826510324812464336,-0.00417557221174147310399638,0.0792175083170924276831926,0.996839991844084005734317,0.0286599858745404077742247,-0.0379128884678888652959294,9.84754296481350088754425,-0.00493214685166186612985673,-0.0037203011383175406574797,-0.00389160212497486127092294,1.72825117252935833711547,4.31160230088054152730592,1.29312060424093600019546,1129.66294716676520692999,1136.62677620930344346561,1120.5916324892957618431,1122.94948455084772831469,224.133682028155135412817,53.1246777442458935070135,630.425474348626039500232,-208.336231487605687107134,163.271138755368497186282
5.79750000000000031974423,-0.598665115313842144395551,0.579751253122381848825739,-0.250475704302457691241557,-0.011574696080179098373053,-0.0273504554045853054411452,0.00711491515706457952616937,0.00411864921719923456067125,-0.00420303629360429913119912,0.0792149147560232275155911,0.996840111007291196365543,0.0288407926869996798779905,-0.0381382101554958857780875,9.84862081475026229782088,-0.00501588688531373790013834,-0.00385616003317789789867076,-0.0037424548326353969211755,1.72823937528382476358502,4.31159127775305783814019,1.29311245582544076526688,1129.93930870143822176033,1136.95343577618905328563,1122.52201396739178562711,1122.28215649137700893334,-22.7909178348914203127151,149.844665277763397170929,745.450304808643977594329,-280.244160338731091997033,163.270895071535107945238
5.79999999999999982236432,-0.406461676197212629091382,1.08019940554471460814057,-0.321782438182836250106789,-0.012999194138773895526584,-0.0242372521623501480103613,0.00523101042671058561600583,0.00411075203627527668848174,-0.00422478981271493924526395,0.0792078504051332982216493,0.996840604698632115621137,0.0289914368526217221255781,-0.0383419508872247655206777,9.84933711715891568871939,-0.00509845635323984483489035,-0.00399016175698705885532824,-0.00359342766483677347397196,1.72822808350558232426408,4.31157941993085991327916,1.29310577259320758081174,1129.54899257759075226204,1137.37599953569224453531,1124.31888401333890215028,1121.5482637491541026975,-261.079332785590054299973,157.956915055959768778848,703.793113257157983753132,-317.65753056375382357146,163.270747605272248392794
5.80250000000000021316282,-0.171598591519134563432303,1.48505478148488712086817,-0.33719973998200059028818,-0.0140048437597285278105597,-0.0197980632825623913129132,0.00468150031086949584141488,0.00410578570533644444939814,-0.0042393504469775350820826,0.0792002412140447725752423,0.996841159231244722249698,0.0290719045675926109073561,-0.0384951006530144662631798,9.84968358063703064431138,-0.00518027593596002630671471,-0.00412179163411647599135623,-0.00344665606933384225177286,1.72821751728244654700006,4.31156671687975467932574,1.29310032683938813669045,1128.6339120375102993421,1137.74322035146883536072,1126.04097953367750051257,1120.69386883855827363732,-473.592725000354334952135,119.014917704774049411753,685.85459452430416149582,-377.540701048846017329197,163.270654192773406521155
5.80499999999999971578291,0.144544277103487217583933,1.83577864929974587937522,-0.326981045040548146118908,-0.0144805172534983213339377,-0.0139599985305326745876897,0.00482276186519148102049837,0.00410024046270842778411092,-0.00424171189456132215894746,0.0791958856026049318188598,0.996841506887455319763092,0.0289649474047448222957524,-0.0386689253482395897676405,9.84965998858962699102904,-0.00526175122954095509514305,-0.00425057517039408461895222,-0.00330388382840006130172772,1.72820751634034963650777,4.31155288377809231548099,1.29309547099190691454851,1127.18102895258903117792,1137.97107412421610206366,1127.74815698596034962975,1119.66056024390991296968,-549.900274752656400778505,48.4403503554868919422915,540.016212806870157692174,-357.890611595629138719232,163.270600410921247203078
5.80750000000000010658141,0.420706794254817273426283,2.01316753162141859334611,-0.312446050651912277107414,-0.0140954882664610214176859,-0.00925008377495431001469317,0.00470674473654865161559302,0.00409202835660826217539787,-0.00422864655112887947996381,0.0791964321315405256340725,0.99684153766571981236666,0.0285911037141138614503522,-0.0389088376376092795472239,9.84927268660226395979862,-0.00534319532013698313133165,-0.00437626043676970447743324,-0.00316627488510469630444977,1.72819771913431363685731,4.3115380515099701597137,1.29309049416402244148117,1125.88441066374707588693,1137.985422103246264669,1128.74106059771179388918,1118.90441578058016602881,-491.815615745522791257827,-2.21150575143803518329833,297.673080456342006527848,-255.756410883992458593639,163.270601251567740064274
5.81000000000000049737992,0.685990806928369556416669,2.0771369318492953759403,-0.299618480350273164170005,-0.0128503455406659833348826,-0.00456380148706930256763403,0.00412310390540265251507757,0.00408200656600272385882144,-0.00419948972837403365632181,0.0792024846030801171758995,0.996841202603583553809585,0.0279265371986794595782211,-0.0392052383418999977893193,9.84853374583611262949034,-0.0054247744251396589829084,-0.00449892093282741861032248,-0.00303440943535890220519868,1.7281876346998183979764,4.31152320620599827094566,1.29308444146208612046678,1124.72195087386103296012,1137.96001659545891016023,1129.23652238824229243619,1118.38177818948975072999,-418.952397607936120493832,18.4152170731981001949862,123.39985487656385032551,-155.936472001579801371918,163.270646117515809692122
5.8125,0.921876248911034701372103,2.05113607360297933723814,-0.288748749769133727927084,-0.0107077317490932855115204,0.000547644342497221139377805,0.00333719497907986181392537,0.00407172073358364004086463,-0.00415765770132568365791137,0.0792143689172398329789715,0.996840455838580496994439,0.0270293132246293178744256,-0.0395397218532503036403369,9.84746026227541548792033,-0.00550650233796986816187102,-0.00461895778019509595235803,-0.00290843002988300366670749,1.72817712055500383172557,4.31150860981241468294911,1.29307676035599961039679,1123.78964867570743990655,1138.07749818861225321598,1129.35805987209459999576,1118.12473342057228364865,-303.13905999956398318318,123.231040358862529160433,-17.6426217456541181149987,-28.5596585781155845040757,163.270725078185932943597
5.8150000000000003907985,1.09889217130016603185538,1.92158863300179127975298,-0.28023611667927811330614,-0.00760324046680291819322317,0.00613478356655618346782166,0.00252505617360064245693896,0.00406382807815318988081676,-0.00410953088618560506001254,0.0792334360696121675626813,0.996839154568777141562919,0.0260180381672683348759367,-0.0398745856818600308280054,9.84607390693759043642785,-0.00558825890563018155138275,-0.00473702798519156764028848,-0.0027882907227808344415021,1.72816620892076588944519,4.31149427608900293051875,1.29306779215852230002781,1123.20625557386324544495,1138.57617179725320966099,1129.14830927951402372855,1118.23897989659917584504,-174.596649415847508635125,337.791728216696299114119,-129.377991271260754047034,140.28076701706893913979,163.270842354746832825185
5.81749999999999989341859,1.22248075882357309929205,1.66354684398083940699564,-0.274898265059807023202865,-0.00346191986274343522014818,0.0123686616904453983156742,0.00184819202917070059787041,0.00406356692423558846227749,-0.0040660693420479804977008,0.0792601731194514380618443,0.996837195901412731480207,0.0251058682317338750789038,-0.0401260838377341874649851,9.84440026761135911215206,-0.00566980625435421162899852,-0.00485398348930428207015364,-0.00267398217358612256752681,1.72815486987650723804677,4.31147992292099591082888,1.29305819482775818940468,1122.91666542862822097959,1139.76645682969569861598,1128.71116991573831001006,1118.82613725565761342295,-46.2567073912860777795686,531.467344361510640737833,-164.21551611884191856916,288.173015475201054869103,163.271023922945062167855
5.82000000000000028421709,1.24573285714397186119129,1.38792998131932665550892,-0.276323666465872808117865,-5.32639406618482612169353e-05,0.0163683383227121066749721,0.00155279421929731893843585,0.00407572549749657831591465,-0.0040345996492018310064509,0.0792934741253899927349025,0.996834620731517628833274,0.0244345696088131732193194,-0.0402108307661346933703506,9.84246945242836090983474,-0.00575076195136018080561469,-0.00497079229999702366937786,-0.00256583943852071614741273,1.72814319024500773203101,4.31146556533000158140112,1.293048520038926341158,1122.97497203690681999433,1141.23350851906070602126,1128.32723169891983161506,1119.67984497397515042394,67.9506716049687327085849,651.803835990326888349955,-136.784457172873970876026,409.950467303733262269816,163.271206825059294942548
5.82249999999999978683718,1.18892631631051615137551,1.08946556535606275950556,-0.282170010690938388719928,0.00322634728390346287377199,0.0188457647201933538305685,0.0013019342573393952698646,0.00409993924567354003224429,-0.00401283549997767663430892,0.079330276354654907788877,0.996831682613184888452906,0.0239500238877539163573349,-0.0401285275863088805592405,9.84031649565463162332435,-0.00583059522325175740714576,-0.00508846293602131533734267,-0.00246476111415443784741219,1.7281310608989617350062,4.31145154947762154762358,1.29303945065538106184988,1123.2564187866530573956,1143.02547600964726370876,1128.02724762987395479286,1120.87588959217623596487,150.171779735231694985487,802.693971127354302552703,-109.688006993385513965222,590.865891418356000031054,163.271419549879823307492
5.82500000000000017763568,1.0402895388597555026422,0.750008299793222144025151,-0.284306979521929126253355,0.0069287952122625701134595,0.0203889620054428996609452,0.000600019079466176507436925,0.00413416322941027609277898,-0.00399708560126466484058172,0.0793649731725925428049706,0.996828850750927086821207,0.0235690454855855859028768,-0.0399064537215591125240977,9.83798001920194309377621,-0.00590870629230256898256624,-0.0052079962801994906726466,-0.0023720840059312099483424,1.72811774142160046174865,4.31143719385330470572626,1.29303228848099416303796,1123.72583093558296241099,1145.24697837469739170047,1127.77879166395291576919,1122.6341744310668673279,175.381329278165253526822,781.200902041035305956029,-85.8407189793542926281589,682.238538919697020901367,163.271705530441607834291
5.82749999999999968025577,0.863783268568879880611178,0.506082192569425104444747,-0.271161334487476368693137,0.0094816137946100147865236,0.0208623555110253357247618,-0.000403573583770774945225779,0.0041717785167525922238041,-0.00398117925665168216620149,0.0793906438799899250025049,0.996826727286248215342823,0.0231540665676012967499897,-0.0396545371125392315247993,9.83550206409138638719014,-0.00598452700817143478512206,-0.00533030677034505937644804,-0.0022894774839421292572661,1.72810315057677854611029,4.31142181356766229782806,1.29302741085263983578102,1124.1333254330438649049,1146.93148051985235724715,1127.59804403497719249572,1124.2870822867746483098,146.809650144226395696023,597.770678773998952237889,-97.8020445965760671924727,672.386209133688453221112,163.271966447477637984775
5.83000000000000007105427,0.655390558291065961071808,0.314007362241724374829488,-0.231676300534978951706222,0.0110561739675989183923077,0.0209138746531475905321429,-0.00157703843002901262365656,0.00420820629093658464536798,-0.00396341890775729881885026,0.0794044310274952258588144,0.99682556325369930938507,0.0226599947738428987575876,-0.0394466627741417441566085,9.83292658459968649253824,-0.00605777171922036814649681,-0.00545620957356456048881199,-0.00221851796188927844269423,1.72808757584672445517526,4.31140517565093883689542,1.29302481939262947641112,1124.45987918630407875753,1148.23583176856732279703,1127.2897814409700458782,1125.9961054767352379713,107.618704025554961845046,462.056131402387620710215,-208.970047815741139629608,724.741368062700871632842,163.272246961611500637446
5.83250000000000046185278,0.395212522229226148606784,0.136116495732558712150606,-0.150834768694496745844447,0.0121258758789595313953846,0.0208432963798802564636681,-0.00272421296504083299688803,0.00423811838130069059443761,-0.00394126980835309698170121,0.0794068595552822054095543,0.996825347956257767911836,0.0220261259546996705782629,-0.0393673598983644845716867,9.83029935568608514984135,-0.00612856294644424821893569,-0.00558649169456635133479416,-0.00216046877037056033604712,1.7280716854514268643328,4.31138820920763254918029,1.29302344324614959525377,1124.67141895317172384239,1149.24176117686465659062,1126.55319379589832351485,1127.91078912708871939685,38.5246822866983222866111,274.803919336142314477911,-358.107982529198466181697,649.951099122759160309215,163.27260138688609458768
5.83499999999999996447286,0.185286631506453164375259,0.0158452480003902461402898,-0.0609755924678026250962404,0.0127760221174368793911613,0.0208311821185665491107386,-0.00305730776255008209960073,0.00425769798962965552446835,-0.00391110969064377075876671,0.0793987293293036688890396,0.996826047975759910180216,0.021175355859492043381076,-0.0394674496385125014863426,9.82766698056646426095995,-0.00619748021152882744289059,-0.00572200103502280843503769,-0.00211603089566084765285603,1.72805626515193888614874,4.31137160574333666573921,1.29302162135063469783347,1124.65250259773756624782,1149.60985136524800509505,1125.49924152832409163238,1129.24586097234896442387,-54.9405634516927321442381,65.4685768938193461963237,-527.676938828892502897361,453.15270276661124171369,163.272907799873905787535
5.83750000000000035527137,-0.00296546331477944360988097,-0.100871159972521676206902,0.0410351061562053073816791,0.0130094594287730215553811,0.0209388249482926926126058,-0.00268090129979762972073365,0.00426853988633966747318071,-0.00387524801645877572248144,0.07938053525446781000241,0.996827606920437592208373,0.0201582064315044030833324,-0.0396991680418065581714693,9.8250750522441947509833,-0.00626555173954888074833169,-0.00586362101851779522060371,-0.00208517007497237977231563,1.72804142704937913066487,4.31135558422224640651166,1.29301857556062560483667,1124.39671613591326604364,1149.56910406133374635829,1123.91480910175391727535,1130.17655264092172728851,-144.091595472721905935032,-63.4706679504702009353423,-715.648457021294916557963,295.6596443182724556209,163.273220889697739721669
5.83999999999999985789145,-0.162649487184477165024887,-0.233864357799743544097382,0.146480284424407108945232,0.0126348404841786689928318,0.0211126691640503051650146,-0.00206724417373651625853825,0.0042736402629621177834407,-0.00383895189950706362119748,0.0793553423242410044258222,0.996829746614862788334221,0.0190883258216358007997027,-0.0399908778008556259342399,9.82256760813079310423745,-0.00633416273677329597080465,-0.00601210950141018232728563,-0.00206732071176339658041821,1.72802734713618977302474,4.31134039809413938115767,1.29301426107217376504366,1123.93204462037397206586,1149.29249802549566084053,1121.92099924321769321978,1130.72415919394029515388,-235.645731336358522867158,-138.501081034431308580679,-869.151385568666569270135,128.856563529100668574756,163.273535800301146991842
5.84250000000000024868996,-0.276363107176394784403328,-0.40374506861268105728513,0.253884917041387270231212,0.011608743710387418521246,0.0212094341760396404295008,-0.00148982529242783689679697,0.00427548515899747738622239,-0.00380528584092799417037956,0.0793294830260177219471984,0.996831940066472910189077,0.0180384849095756825965164,-0.040277259824696001744293,9.82018666747825719198772,-0.00640489937586341713526839,-0.00616793730924684521776946,-0.00206166125083410544521767,1.72801422798064296948439,4.31132618378027299144151,1.29300911069906288020093,1123.21848747923149858252,1148.87659865616160459467,1119.56905217391067708377,1130.82083545856721684686,-364.083901561806271729438,-180.762438997229992310167,-1065.28897660216443910031,-45.755877917009520672309,163.273848933291304774684
5.84499999999999975131004,-0.351835284183714069872195,-0.658130638959840585933136,0.386625607308735408373934,0.00980879980017011071646849,0.0208601180667540193891529,-0.000938431039879307417501952,0.0042769582235623621740972,-0.00377610914498429121530232,0.0793086425611715245542754,0.996833715520424323841553,0.0170616566441200399883993,-0.0404839634560769517923617,9.81797111274407363623595,-0.00647932891551224882098481,-0.00633117674607308091039304,-0.00206725839340690534587375,1.72800245528255103089066,4.31131239200391913612975,1.29300361468067182002528,1122.11162511256497964496,1148.38868583050953020575,1116.59455436020698471111,1130.49537980435525241774,-435.679214435649726055999,-157.88611528828704422267,-1072.04120471581086349033,-176.194201453248865618662,163.274219003220196100301
5.84750000000000014210855,-0.366833093941623722411549,-0.904966621608986776514882,0.500102637180786624426787,0.00818053724083060880556406,0.0197787304575438548093214,-0.000501836287330670620041029,0.0042796284833553476650847,-0.00375017772137690996725468,0.0792949332504988696479487,0.996834902733610972447309,0.0161510793495560391053179,-0.0405591608693143396147107,9.81595599962556342177322,-0.00655874250572228197769808,-0.00650141240938866861454049,-0.00208320927664717645000358,1.72799158283407083835925,4.31129771980993403701632,1.29299827068774120242267,1121.04009140705329627963,1148.08716807972018614237,1114.20884615033173759002,1129.93986445130099127709,-436.574737498563024473697,-85.3985526210957033299565,-884.163639779624645598233,-259.941970029108517792338,163.274521164123171956817
5.85000000000000053290705,-0.348256520504846456276482,-1.16494282295911322222537,0.608435694313005148714524,0.00700839527284130223150349,0.0174531849012019221745184,0.000154797071261807844561736,0.00428329374584308572582181,-0.00372868128317849949551754,0.0792879694426340958512966,0.996835528452222674467009,0.0153474345352258671748569,-0.0404921197122511400401379,9.81417126814645435217699,-0.00664400400178568294184966,-0.00667772443022193566697364,-0.00210859723913772766426544,1.72798094800724899577915,4.31128149120625803192297,1.29299365049152004125688,1119.92875142507182317786,1147.96169306740398496913,1112.17373616130817026715,1129.19566995420950661355,-463.166463316302611019637,-11.7400663920309629162375,-766.533609210426220670342,-348.910099087614241852862,163.27481645880141059024
5.85250000000000003552714,-0.317155851982828251856006,-1.45570950010120836459748,0.709541886272947452951598,0.00639548489704682213141673,0.0134552393247058220404622,0.00155678266732871359995238,0.00428803911917880094251121,-0.00371293400465190666370763,0.0792877813231793876491693,0.996835585029235415888138,0.0146960575029694388848878,-0.0402702795738330149299955,9.81264108571913595824299,-0.00673548507591834304947254,-0.00685877006226488349777126,-0.00214242016115063268338892,1.72796997117020056933256,4.31126436920269107133663,1.29298991934307050399866,1118.7242590904718326783,1148.02846774776003258012,1110.37617810427968834119,1128.19531395586295730027,-393.541613016995370344375,54.5402720963932381437189,-528.393974977700395356806,-372.306254802932699021767,163.275164149816617964461
5.85500000000000042632564,-0.305961202426777101326394,-1.65412099536328227600279,0.745261303474749836617264,0.00625354560911864712502428,0.00950412049801049180208778,0.00346563269457508815740709,0.00429497758105536111411515,-0.00370179597255214116319211,0.0792936424066819911526949,0.99683512950503727623186,0.0141969455838060858166028,-0.0398615920551682600958543,9.8113833030800705614638,-0.00683304331717557358188975,-0.00704290757340571543093644,-0.0021834845881577575991972,1.72795773721655421262255,4.3112467344338041286278,1.29298677342037016124721,1117.96104335998688839027,1148.2343944278859453334,1109.53176628641972456535,1127.33413868019488290884,-229.19905032409167233709,98.0192664253102492466496,-190.851719027481948387504,-341.221120028838413418271,163.275450419363608034473
5.85749999999999992894573,-0.328751308156975619034768,-1.77974416473726160248248,0.699508600534082480848497,0.006232318997996304232867,0.00503170353450127071787135,0.00620277115727107565545939,0.00430602852098463904917391,-0.00369729319824315576584195,0.0793031311947619971247647,0.996834337828883643162214,0.0139136091627432671724574,-0.0392282696736656680269739,9.81040837675197607836708,-0.00693613049348459128479183,-0.00722823899798096837499006,-0.00223021689126365069838487,1.7279442112496985473058,4.31122821407746492639035,1.29298367433292704653525,1117.57826383885139875929,1148.51856407988657338137,1109.42191950914229892078,1126.48920835571880161297,-78.784659708437033032169,111.189071385936230740299,73.3788388581631068063871,-332.821259545160330617364,163.27573692522383907999
5.86000000000000031974423,-0.385429794961787031137845,-1.82852915708441798869899,0.569771408212320085162617,0.00612106006013287285566493,0.000139882990095213389494452,0.0093256946964258725235597,0.00432403682992211005342575,-0.00370160881100654697017927,0.079314870640988743843991,0.996833298460624295245225,0.013913495484505263716235,-0.0383202163609989918113818,9.80971906246711355947809,-0.00704397853333139575826571,-0.00741259529171609757997041,-0.00228063133565872041413902,1.72792975506964952003841,4.31120818777611347627499,1.29298007304367779113363,1117.56712006144471160951,1148.79033978481561462104,1109.89866048071053228341,1125.67003238246911678289,85.4152151994203450158238,86.8345838338900932740216,312.347182789705868799501,-322.487093036359112829814,163.276027483614399216094
5.86249999999999982236432,-0.478863554686666026416475,-1.77209306371041064309679,0.338562627350043443552607,0.0053460565939446634889376,-0.00517204676479683569251256,0.0120379573113686254987043,0.00434991493615487223589611,-0.00371599410063604531154202,0.079326659894519063742635,0.996832177692906329369293,0.0142416210455643295340611,-0.0371293885977581963886429,9.80931023611997510158744,-0.00715572290787472396061952,-0.00759363541396627060586777,-0.00233240063419452685333777,1.72791471873886703924939,4.31118628977590834239209,1.2929756577154789543016,1118.00533991484849138942,1148.95273699905601461069,1110.98365542309079501138,1124.87677289053704043909,279.801154615103371270379,27.0856967629248508444562,578.988334019289709431177,-347.57027419364760589815,163.27632823427819630524
5.86500000000000021316282,-0.619006432607825840541693,-1.58265514824823760875461,-0.024911918657283670108793,0.00372216801011695857734352,-0.011345933268530042706268,0.0136637714585292092961399,0.00438174568630149245673788,-0.00374153323783957530296318,0.079336496246832727274878,0.996831139510963581962244,0.0149334689142407613104968,-0.0357083877807259364445258,9.80916872876156276106485,-0.00727053307766939958811658,-0.00776899217905387129423644,-0.00238294598514776027192719,1.72789966626971347452013,4.31116234489508531879665,1.29296985555791965616379,1118.96612583452019862307,1148.9257682686302359798,1112.79360215080691887124,1123.93218101150091570162,402.203018928148082977714,-54.7472098975515848451323,714.874894571964205169934,-349.190048947783168387105,163.276707289721571214614
5.86749999999999971578291,-0.747210599865694824472939,-1.33848318220074058437774,-0.358264159978779694881723,0.0021852530318688611309097,-0.0155361416484612949173716,0.0133331307477807959466221,0.00441591676996925044940134,-0.0037781619881606183682099,0.0793452694260389779223885,0.996830129966172817645997,0.0159969299852236977732556,-0.0341463173707221775976528,9.80927349232780976251433,-0.0073876955420356773054924,-0.00793645210667310793684059,-0.00242958675754685778092057,1.72788539074621905200502,4.31113684535446406442816,1.29296224036633300435994,1120.01635500948918888753,1148.67900094956826251291,1114.55802989595053986704,1123.13082264579816182959,437.961522776240826715366,-146.966981163817251854198,719.467780700067010002385,-326.293475423342556496209,163.277042319931609881678
5.87000000000000010658141,-0.87290954935868558806078,-1.03785942893134763842511,-0.665307088089750253701027,0.000553619845008314175049957,-0.0181994991133962238927246,0.0114714752252395787990302,0.00444826584130740380895741,-0.00382267174946447196165478,0.0793545382355735351431747,0.996829056870352947505864,0.0173746670839893570248424,-0.0325425690676650614108212,9.80959616183786842213976,-0.00750652105584563144463628,-0.00809420516478303805896211,-0.0024697664761135452657359,1.72787191292376007822895,4.31111006887794445674444,1.29295326131279031400823,1121.15593344840135614504,1148.19093336281116535247,1116.39094105430717718264,1122.30071363438423759362,482.448486533227935524337,-264.453985095364771495952,783.432727079175833750924,-368.34105128872278100971,163.277401267107620697061
5.87250000000000049737992,-1.00014383897669634215788,-0.655737806055243566127899,-0.941706411679724797458846,-0.00177182291661122219041113,-0.0197395018143087484785436,0.00777167447364179517221849,0.004475450591157196719716,-0.00387312585907221163666891,0.0793657171038126274531521,0.996827832580106654170038,0.0190322101984541532104789,-0.0309859333246654822247024,9.81010139733985475629652,-0.00762623958415683308315058,-0.00824103516055164908582498,-0.00250117740463331452924201,1.72785877485481909054954,4.31108237147406558875673,1.29294417173405840060241,1122.42859744215570572123,1147.3567310240912320296,1118.47519353134703123942,1121.28911738935426001262,427.725770961624220944941,-339.455509059105622782226,724.320403806193098716903,-364.823745393740466624877,163.277863378858228315949
5.875,-1.06706811412680457884505,-0.345236583232919613806189,-1.0627826185389153135219,-0.00424837294998216003644176,-0.0199366824660352250087048,0.00393606979031688175574288,0.00449524386685926785611755,-0.00392759054855136222061951,0.0793796695509960403835947,0.996826409231314047865169,0.0209332246330192033034745,-0.0295456772402262271559614,9.81074800538605984456808,-0.00774587861238726100437946,-0.00837644843112566109266659,-0.00252187103918703921234812,1.72784616739262597562288,4.3110543639463081433405,1.29293518835982479409097,1123.29456230320943177503,1146.49365581751567333413,1120.01254307333806536917,1120.47659490741557419824,290.7360837953154373281,-369.115141461414737023006,560.389934316993389984418,-302.544265491594217110105,163.278276698526411792045
5.8775000000000003907985,-1.06786019200692039454736,-0.0586818471051260975857033,-1.0535703512332585951583,-0.00733226463382191488704631,-0.0194193787015207869339761,7.81026206101188835706495e-05,0.0045040557839306693752035,-0.0039762001141643282114968,0.0793937433741339765314038,0.996825053059196108939943,0.0228801865163139571401896,-0.0283063198878267668900932,9.81149115029017160338753,-0.00786407581893877084822098,-0.00850075753609400540378171,-0.00253042585307593562160555,1.7278333175068294469412,4.31102670512647900835645,1.29292573593154735966948,1123.88227786113225192821,1145.51115531678419756645,1121.27714320293193850375,1119.7763960618963210436,194.947433506699383087835,-446.978359426575934776338,494.08502121597081213622,-262.242817966040206556499,163.27872104210993597917
5.87999999999999989341859,-0.968574977826613503495423,0.260368278935756591874195,-0.901624780414456705734949,-0.0113109810575299108564851,-0.0184871377386709168089141,-0.00408647157674022973306016,0.00449745741582583281187313,-0.00401092639478926350771193,0.079403984862862514448878,0.996824130890003323735016,0.0247059756965994185839985,-0.0273712996476722543459648,9.81228308546758576369484,-0.00797911799563930448919713,-0.00861499363644447312127195,-0.00252582810759764773284042,1.72781866889186419555813,4.31099997338529306034616,1.29291581357601836899107,1124.26929947074290794262,1144.25876402038284140872,1122.48296817941786684969,1119.16538081758540101873,100.448682459229857499849,-461.629011838031885872624,399.817568741954687538964,-176.033611936376587436826,163.279291183916029694956
5.88250000000000028421709,-0.794867505108853289463866,0.518295039485340169882477,-0.681910647076857112658388,-0.0145305881052524756696931,-0.0178626637910162290590055,-0.00680340778479676926843167,0.00447284695039229431706707,-0.00402744964603038348854858,0.0794080350124871936490223,0.996823860492266344834889,0.0263145595032111649647089,-0.0268125778093551286884733,9.81307445622805651908038,-0.00808910439786613214008248,-0.00872071251754434097203106,-0.0025074487377808232085874,1.72780125783676674622313,4.31097403916887778052569,1.29290585800235735547403,1124.38452127342839048652,1143.20301025759408730664,1123.27623104664166930888,1118.89622800221445686475,24.7894061244101813201723,-411.280031447504029529227,289.680338605655208539247,-56.6193802918872535201444,163.279797341570002799926
5.88499999999999978683718,-0.534325904173865384727549,0.785299498648789673360682,-0.410437036908673225088506,-0.0172434034040929717868096,-0.0174225630011317043910335,-0.00813326356853837258154005,0.00443543878725767906634481,-0.00402841015086258594224411,0.0794083169946274008976772,0.99682401254553365532729,0.0277541361546856622799506,-0.0265575938052524315735603,9.81381528257916890822798,-0.00819227738326688305348089,-0.00881974949640667964245733,-0.00247492387774730449381821,1.72778226625846031971889,4.31094881715605726668628,1.29289515283465616946046,1124.39324650136495620245,1142.2023638631453650305,1123.93136987244611191272,1118.88228391612597079074,2.25936028296023572181639,-379.286901738404480965983,249.409871462608720094067,29.3400097503314896130178,163.280335638100325468258
5.88750000000000017763568,-0.22148511239528065330795,1.06446539374703275093736,-0.13537020815923314631668,-0.0189800900002081857076419,-0.016553326251343678660044,-0.00817918497231733855612479,0.00439363650480545375742736,-0.00402216963109099708700844,0.0794076359772402790015988,0.996824289798538321072385,0.0291862400158060010524341,-0.0264770020708550157806371,9.8144572354032142413871,-0.00828718773262916881539031,-0.00891405718361065399490961,-0.00242832088692528612339228,1.72776270783122654073338,4.31092404437759046942347,1.29288362324630079491783,1124.39581807484319142532,1141.30657574890210526064,1124.52328040395468633506,1119.04292805096611118643,11.5561027119840868948586,-317.593304984036365112843,226.349160445857080503629,90.8577797042217980560963,163.280900273568420288939
5.88999999999999968025577,0.115998648733796602683377,1.34553854449351617539321,0.100965064874980567366514,-0.019172434615740752139601,-0.0145274098554320808818208,-0.00706839005866092065510919,0.00435611931134600397635959,-0.00401513783965945069559522,0.0794066011708146335390524,0.996824577947197809635327,0.030731691029575455148537,-0.0264291350403311614547519,9.81495657931903053849965,-0.00837272567466724841611647,-0.0090055790068057882391539,-0.00236842200048375259649469,1.72774314492037039947547,4.31089967147324770735395,1.29287197486606242335938,1124.45102701492487540236,1140.61439733822521702677,1125.06311567467537315679,1119.33657281464707011764,35.3339177379901485664959,-238.413250973331372506436,220.921904077072383643099,139.51932650884671716085,163.281495984798283416239
5.89250000000000007105427,0.492096778621028962952266,1.64776483241740256957542,0.302096328131188474053204,-0.0176073851127156871809731,-0.0104302040489719811955371,-0.00502999557579907660004315,0.00432895853744538934571029,-0.00401011219338310610782461,0.079402988648929251347397,0.996825015291179283849488,0.0324343092407127081555629,-0.0263135595570890695737987,9.81527649284938341622819,-0.00844810654860943775756876,-0.00909613002683425098116032,-0.0022968944142948443699892,1.72772357866050163544003,4.31087587680397188449888,1.2928606861160767405039,1124.57248766353313840227,1140.11450949403547383554,1125.62788992434002466325,1119.74052468351032985083,40.7609138932848438230394,-116.333304496292839758098,184.571110952600321297723,146.336557628614940540501,163.282245484557932968528
5.89500000000000046185278,0.742935800085739228570958,1.83585381420941096131116,0.38992831084502616034726,-0.0149526456492385471236384,-0.00565140037107548977995952,-0.00318806781020941924428835,0.00431575071728317136848796,-0.00400890492819828449244657,0.0793952381110534927133315,0.99682570319201579955859,0.034313279236460436649736,-0.0260726690798041421670561,9.81538852679716811167054,-0.00851291247914918135231144,-0.00918723388476418156844971,-0.0022162587595948492896758,1.72770376958645988096919,4.31085194764938961498046,1.29285041887285157002907,1124.65483158439133148931,1140.03273081574366187851,1125.98597122943851900345,1120.06825560279025921773,4.26839324568400080295305,46.5446167627770535091258,108.488510088366226113976,125.156791883048697400227,163.282897719654840784642
5.89749999999999996447286,0.897940075872942999879456,1.92059596331866067053795,0.400439354316973417091674,-0.0113993076295577713819007,2.83281761307702236937778e-05,-0.00168700269311034965931395,0.00431692061776852136628646,-0.00400977368947735661464105,0.0793834871528956431685486,0.996826635680056027943863,0.0363126440338657069384354,-0.0257015865737480336816745,9.81527441570638536916249,-0.00856708480751940115727194,-0.00928004078078169258869679,-0.00212987608035408379492104,1.72768383117894708256301,4.31082724906547287702097,1.29284090831292663992258,1124.59382962976155795332,1140.34723257784935412928,1126.17033247478184421198,1120.36630864292555997963,-89.3987621011566204742849,231.593343762238362160133,32.6753001679669665691108,129.13066968895057584632,163.283576859592983510083
5.90000000000000035527137,0.966609067988580705765855,1.87894523735412932730071,0.346568206404142931109646,-0.00719879387921881167683447,0.00704015353878528846870433,-0.000481612194387600494639712,0.00433266813658925251800946,-0.00401326864385554739345086,0.0793714433610651221018273,0.996827513680673127360876,0.0384211906280470388841408,-0.025200081874710872353873,9.81492626635361808951075,-0.00861099206822644493153351,-0.00937533481669380018563853,-0.0020416996327710852134063,1.72766431900029049373302,4.31080123614078747351641,1.29283231642485474388593,1124.20783777388555790822,1141.19069753455482896243,1126.14934773027835035464,1120.71390895123499831243,-208.158905912346085642639,378.021799162123784299183,-48.5477806424579654276386,133.176064558304574347858,163.284420412035188974187
5.90249999999999985789145,0.941289012086700016546104,1.72481816008484734048523,0.267547595527498793810395,-0.00430092208242307053045472,0.0124345604857497311207526,6.92736616212505829266732e-05,0.0043606848503025229246699,-0.00401991090598032702052578,0.0793611025038874623449558,0.996828185690293300247333,0.0406243800572486518651871,-0.0246138995170973318149521,9.8143475579152728016652,-0.00864530481018568365547683,-0.00947372990831643266296247,-0.00195624030865502182910398,1.72764495861996092429536,4.31077435951893495058584,1.29282574262884297766618,1123.55303510019984969404,1142.23734157365993269195,1125.9275935715695595718,1121.03218896571706864052,-334.501785275513441320072,465.007212093279008513491,-125.053782520265428956918,142.223483791807069565039,163.285145063878047722028
5.90500000000000024868996,0.864087288788031426811642,1.46654262579355165740935,0.177600768134899056338583,-0.00222253865470232537041029,0.0166701115095281848788034,0.000281543977222858770020214,0.00439789903654799144844256,-0.00402809710765842602514519,0.0793546370982052551301678,0.996828499126644174133105,0.042866802915451085453924,-0.0239979012600827976142703,9.81355330483934729102202,-0.00867099604089792072580956,-0.00957575999498446774060856,-0.00187835818075817156252993,1.72762525880816242285221,4.31074784697777868558433,1.29282224654339206182385,1122.53532884750802622875,1143.51573359502117455122,1125.52407881767703656806,1121.42502637019401845464,-516.811672373580336170562,572.068975884452243008127,-206.868540124973918636897,195.207146186480315463996,163.285889343451032118537
5.90749999999999975131004,0.756336911413889145805456,1.07507744180625852692401,0.0800915405245892775276673,-0.000723849176394616078064614,0.0200854810560909292915799,0.000298275094382134892470604,0.0044382729075444736499545,-0.00403460312913780493743188,0.0793537923844478271240277,0.996828355786795627935248,0.0450592621876473448105926,-0.0234604384230223672602733,9.81256959757631719298843,-0.00868933416919731756167256,-0.00968187736453609767983686,-0.00181294207167933337128407,1.72760514522978225748773,4.31072219108507059814883,1.2928224187002494982579,1120.9689767383320031513,1145.09768645308213308454,1124.89325087094471200544,1122.00822469664944946999,-610.309932456688557067537,551.944853039288204854529,-245.869637496394489062368,230.383982354401638303898,163.286801377967123016788
5.91000000000000014210855,0.681286800725836250158807,0.710957534150748471368786,0.0200685478099312565591905,-0.000141204666522360035166642,0.0216406039771538209748325,0.000196385023618524681915734,0.004473635664049657387209,-0.00403834587475999234884583,0.0793574786056069625406195,0.996827884059779845138394,0.0471541677471081777106576,-0.0231532755811490811859166,9.81143178171159924261246,-0.00870186660834320994950541,-0.009792377822061455044933,-0.0017643611642506773929534,1.7275853460717436327343,4.31069669829528212545711,1.29282562427517166980806,1119.48377918522464824491,1146.27545786021755702677,1124.29473063019509027072,1122.57694628196600206138,-596.9639301961227602078,403.458647395864886675554,-246.954559188823225213127,235.115282196975016404394,163.287574093353100579407
5.91250000000000053290705,0.638659779101161007019982,0.336368689530709807922193,-0.007314166774090916783857,6.69066371554689285619175e-05,0.0222204038254233612881272,3.393139912340733599979e-05,0.00450015188449702681350306,-0.0040375828493681284112049,0.0793638291636211967716719,0.996827257894629559231703,0.0491010456201562695000007,-0.0231413105212453784620408,9.81018238690968935600267,-0.00871042173789383228355021,-0.00990727623547155503147543,-0.0017358973820595822393914,1.72756661409662681805344,4.31067089943213144209722,1.29283090408175271868174,1117.98415708735092266579,1147.11497969006177299889,1123.65847807500040289597,1123.18380110763450829836,-573.341842371440634451574,260.391578645800223057449,-260.839357334094643192657,238.344374508010872659725,163.288355969300653214304
5.91500000000000003552714,0.62013551180000769935674,-0.0332256847866051266415788,-0.00225330156221185962106546,0.000346903106969149489530874,0.0223100097234672119228538,-0.000154047082678912690932582,0.00451818104305620055205495,-0.00402884585536501457769809,0.0793704006912619858260527,0.996826685400190593000502,0.0508254753411829240938857,-0.0234042455845278815629307,9.80886888136726398101928,-0.00871699741930183694127443,-0.0100262726507330986180921,-0.00172938885776494489891764,1.72754931947868817232461,4.31064464210540254640591,1.29283701925496741225174,1116.61706997336750646355,1147.57741575344653028878,1122.99053384352464490803,1123.76866815450603098725,-481.707544739230172581301,87.6759480700021072152595,-282.059138847541021277721,214.973375195727413711211,163.289142181732472636213
5.91750000000000042632564,0.607971842961520847481438,-0.387336719504774107392109,0.045792064815571562053087,0.00166265797959239298997591,0.0219624482956132655031567,-0.000346680466916076584008022,0.00453199410891855659216931,-0.00401438470056582254880118,0.0793739341108923718293156,0.996826397878887382475455,0.0523739462473665068342754,-0.0238542231879098828861707,9.80753986457815685184869,-0.0087236010416688082591552,-0.0101487862331873113924674,-0.00174489879998145818243427,1.72753338346910934042455,4.31061794668618958326078,1.2928429636460314622326,1115.57561936365482324618,1147.5533594304117741558,1122.24818238076272791659,1124.25866798361312248744,-350.887830125028131078579,-108.395335657771781256997,-358.474063764295692635642,179.656477753955385878726,163.28992935272620456999
5.91999999999999992894573,0.559612836641679489702028,-0.782671419265600798453875,0.153983249034103819585795,0.00506717763300307613705264,0.0208894732534895960496257,-0.000522943439830267473196479,0.00454669758217290508744979,-0.00399801722020721572031787,0.0793729921399435739415296,0.9968264724892571537751,0.0538272412799724597753936,-0.0243900904908011945115831,9.80624303887020865033719,-0.00873208612515442676726973,-0.0102739585057315986615922,-0.00178079555257112053488766,1.72751872194129241222527,4.31059051580849672546947,1.29284745699837344545813,1114.86263082274240332481,1147.03543907515768296435,1121.19816352470320452994,1124.66695054327578873199,-161.403793313051011182324,-248.163297325669020665373,-422.010372948043254837103,114.073696188782079730117,163.290869143727945811406
5.92250000000000031974423,0.47054820490060977888902,-1.073937491865218474274,0.282512007572568280000525,0.00839183102873657625619952,0.0191300391620054278940533,-0.000540260703521629713497187,0.00456616828747763089935141,-0.00398321794740631469206038,0.0793705193819582988101757,0.996826644237928771730139,0.0552589214156828101298657,-0.0249352158275160940004156,9.80502293513594302964975,-0.00874401120343373285115351,-0.0104006819903731447668482,-0.00183395060905449281025981,1.72750537333430775888132,4.31056221343000700585435,1.29284932884664538477182,1114.7686003970895853854,1146.31254294378345548466,1120.13813051602255654871,1124.82903646455702073581,60.9795853506070031357922,-315.900704387793098248949,-468.705013568124741141219,27.3424923611861601102646,163.291643865423083070709
5.92499999999999982236432,0.335962391139096094860861,-1.30165047500769892607764,0.43890189770333482011111,0.0103859929704214811602148,0.0160320767575838248053532,-0.000256472093327826688481663,0.00458751701554930245430253,-0.0039689041076864956664183,0.0793684794013260752620909,0.996826772416214645922139,0.0566433133272454120143991,-0.0255387402372669741756894,9.80391961951946200315433,-0.00876033811482591906472095,-0.0105277895499952083013806,-0.00190023048195712539881752,1.72749312585065029068687,4.31053232962617993706544,1.29284763276826630828964,1115.16752874949543183902,1145.45593555321875101072,1118.85463845686263084644,1124.80366300508171661932,264.821792652497776998644,-371.724054059276284078805,-609.505844476611173377023,-47.2984314791129776267553,163.292405079259964395533
5.92750000000000021316282,0.160246519354410477120609,-1.47189868519862065987525,0.633202423117136037333808,0.010429025245391049248056,0.0107787243071713802894385,0.000706162183429136008569471,0.00460770901419231635604001,-0.00395592661081790863963903,0.0793684007434901778177405,0.996826743529043768354825,0.0579914702492410616407881,-0.0262560210314643355244968,9.80296526726007400043272,-0.00878132411417348844595576,-0.0106542396369452632698405,-0.00197469696599633561667764,1.72748102998611652303396,4.3105004305642520279207,1.29284260273255102724477,1116.0927093603520461329,1144.45392267348711357045,1117.09060129363956548332,1124.59254430716146089253,389.286898339659387602296,-343.323778054908018475544,-667.81621269225581727369,-98.0117067200374521007689,163.293298501833476166212
5.92999999999999971578291,0.0333601516748722737304433,-1.51552334498625840275565,0.774452147721584882589241,0.00901661991624947908863241,0.00573827493518268630379175,0.00224252016309511295263923,0.00462544053731749321006772,-0.0039430858577283135410485,0.0793721375296320974523923,0.996826419397569107871959,0.0592748743745476480704326,-0.0271054011119774840299357,9.80218341915934310293324,-0.0088064716911193993004181,-0.0107793396777445139173013,-0.00205212098142534132838577,1.72746840925395406252107,4.31046723975408330176151,1.29283465814757425604853,1117.11396324119368728134,1143.73931666294424758235,1115.51555739340142281435,1124.31360447148153980379,432.102724296928613512137,-247.613470527590664005402,-620.385105580739491415443,-119.238088480963412507663,163.294023848203693205505
5.93250000000000010658141,-0.0543990071654184073612903,-1.4635909337930563811625,0.858007017183157860706899,0.00763245043695091884838888,0.0011465685949723076857143,0.00469672188147918744094422,0.00464057730690774390691633,-0.00392795580657924123246794,0.0793792743035826170450164,0.996825843264386057818172,0.0604394627902818531994811,-0.0280796791125553779622237,9.80158842378042294285478,-0.00883452988426893133511175,-0.0109029832549278806602677,-0.00212743682030283945416649,1.72745491290903374625998,4.31043339081370735499377,1.2928240585003774043571,1118.25322298183664315729,1143.21585532084918668261,1113.98867576573593396461,1123.99635386475665654871,504.351504333738660079689,-184.94500793551034689699,-614.202800447714594156423,-134.180209866396523921139,163.29472721918662614371
5.93500000000000049737992,-0.123774585357818961428578,-1.32446255273736213098346,0.853547528299810620566745,0.00734132535198108154145258,-0.00299730098342526965482513,0.0084700375878578697264043,0.00465380729901126825864832,-0.00390993377580818417260655,0.0793876311401522233301975,0.996825188709161591482655,0.0614635822816972099413846,-0.0291569992220620938239151,9.80118520257023106978522,-0.00886363730729239004957343,-0.0110257280812180603196682,-0.00219610972387905729885649,1.72744019227900258428576,4.3103996678868687908448,1.29281072068452318468701,1119.63572076286277479085,1142.81459162326655132347,1112.44454339116236951668,1123.64270342214945230808,499.567152143128339503164,-117.28066739024393427826,-482.681572591501492297539,-118.328946243039140995279,163.295544558126039191848
5.9375,-0.167999283912558222686684,-1.17716341486695630358383,0.746014473707585445971802,0.00799835566285623557336582,-0.00521397823195975020776904,0.0117396790419215715089996,0.00466368359947763946871113,-0.00388902961633540069502635,0.0793956356587222217280342,0.996824588826466073676613,0.0623288198863008457983881,-0.0303562933003621686356421,9.80097056022164991873069,-0.00889152399631923558154245,-0.0111487110003248863360215,-0.00225460520888218218793497,1.72742429514168738258206,4.31036688069893791919185,1.29279558979498099269279,1120.75105874255223170621,1142.62945198389797951677,1111.57526790277847794641,1123.40470913354147342034,434.296255484796517976065,-59.8721334050436837515008,-225.352535750794487512394,-80.0548473252564463109593,163.296203199396359195816
5.9400000000000003907985,-0.209444780744550973494711,-1.03046293632636620785092,0.531518572080824869274807,0.00827475957627051526832584,-0.00645198523540947005416868,0.0145982592155335828831841,0.00467311804684098722889596,-0.00386893864594868531689431,0.0794037663130993109916744,0.996823978275210631494474,0.0630895970583773002537953,-0.0316147545719966671651235,9.80093363890027546858619,-0.008915722074123813914448,-0.0112735048435473623335001,-0.0023004958796171760294913,1.72740725223254498743586,4.31033497420062428062693,1.29277996785944582214256,1121.80720204028671105334,1142.51523095624133929959,1111.31778071240842109546,1123.24242918552317860303,413.036901843188104521687,-48.0012782186814774831873,13.1597752808832488824464,-52.4704967163881761393895,163.296839097390090955741
5.94249999999999989341859,-0.246043314068251667281473,-0.895824376008382272651431,0.245776683433723136529281,0.00766501218441759547134184,-0.00747112983745623192993746,0.0167649927624608091614178,0.00468783687024210138361013,-0.00385568526168931884068325,0.0794143915270255768001917,0.996823118042291400620059,0.0638441465599431101640704,-0.0328155262041498266278872,9.8010581193029508995096,-0.00893370504503556046860258,-0.0114019121885913007202751,-0.00233267159511219837261797,1.72738936013499766453094,4.31030390139759322920554,1.2927646947167963364933,1122.81624325176812817517,1142.38944559280457724526,1111.6410667791828927875,1123.1423566499595381174,394.772123882475398204406,-65.4235289463499896100984,264.459520592714568465453,-26.6318167617561130100512,163.297457011579069785512
5.94500000000000028421709,-0.268736437642400738390336,-0.769551638753305899953716,-0.0854593876516765438289269,0.00639352870738936224920268,-0.00871204449237316345955318,0.0175023703782617723323511,0.00470849603377578897200895,-0.00385287358714958257446814,0.0794276509501610356034362,0.996821978244757045395374,0.0646299190009010371404941,-0.0339338287058323084810496,9.80132559265878100518421,-0.0089428910741132048439761,-0.011535801306166812429943,-0.00235160333787367550537062,1.72737081834123729073838,4.31027338758371758586918,1.29275067432157753088973,1123.78106265969904598023,1142.18811331150959631486,1112.6400783153719658003,1123.10927010171440088016,417.713848232196880871925,-108.989343409441559629158,556.288947371206631942187,-1.51315096036345075880547,163.298054208905739415059
5.94749999999999978683718,-0.277188314314324502074527,-0.600625434294512428046176,-0.466899072184384367201204,0.00506608914854648519077163,-0.0105234839237136144213247,0.0163522105375746365507617,0.00473516924838112817502944,-0.00386372144213855978761574,0.079440466111708352148213,0.996820789797783213259663,0.0654711931181606587859534,-0.0349524314133730223952412,9.80171686780860973442486,-0.00894073721931916594318768,-0.0116769669104105442564157,-0.00235906838122785372791057,1.72735038308592492306559,4.3102430696011309052551,1.2927388555895225064063,1124.90481249292906795745,1141.84449887575738102896,1114.42251151603886683006,1123.13479089515772102459,406.806838588463108408178,-134.443754452834724588683,701.513657686351962183835,18.0412369161789882809899,163.298747679190938697502
5.95000000000000017763568,-0.274371452810433402724755,-0.419469024760721620470605,-0.719360603007408783149401,0.00446904655570990339691351,-0.0124525601463126630447098,0.0137325704990403415356459,0.00476668839655463791316059,-0.00388849578003806328058145,0.0794499751499793266384941,0.996819784260892571836621,0.0663290966148006588820607,-0.0358712756424204928795696,9.80221422092173710893803,-0.00892498993335599441478756,-0.0118269209842497228374336,-0.00235793803809585065384136,1.72732782103133031270659,4.31021270523071642344348,1.29272960946240389468187,1125.81509685264131803706,1141.51589453924543704488,1116.1476466038036505779,1123.19947628629529390309,353.717763964694597689231,-121.160829757766663306029,669.366393642045068190782,30.3495083204331521642416,163.299306488846724505493
5.95249999999999968025577,-0.271569550130041470481501,-0.170280288530544748892837,-0.854799430587602993014684,0.00415939076257043453821449,-0.0146643266070031128012197,0.00993606338237540062663378,0.00480042151893864642298038,-0.00392575995145768522759377,0.0794548224712367801014778,0.996819087657577984629143,0.0671272706231578891733491,-0.0367145482338779235997883,9.80280254289491281838309,-0.00889400610254355815376126,-0.0119867553509777763354194,-0.00235179311102206916803126,1.72730367809800244849328,4.31018165643033768219539,1.29272343371765430219966,1126.67340131275250314502,1141.23869472696856064431,1117.7693434842490205483,1123.28653843675988355244,351.477139406059222892509,-87.4936830463885115705125,616.101058276958156056935,34.7249713502158670053177,163.299845341532943621132
5.95500000000000007105427,-0.276045564579785018821667,0.214265678933935582728409,-0.857968499526626460216505,0.00364757653610311505590347,-0.0164490122137661426426902,0.00535999113454371529235987,0.00483356354487184808332856,-0.0039714714335770872830067,0.0794537927310685482273911,0.996818826467844476546531,0.0677383784566964464168848,-0.0375047856152412734109802,9.80347025478437572587609,-0.0088470104865150181461253,-0.012157130246914785859369,-0.00234446500744711584449109,1.72727830089365563814852,4.31014902673802247079493,1.29272056586763173235965,1127.57248254967157663486,1141.07842612401350379514,1119.22815189518837541982,1123.3731011430463695433,293.801959049960260017542,-21.0463759302878159473948,420.037038308353487536806,20.9252613011325614422731,163.300468189218918269034
5.95750000000000046185278,-0.288095807487824151493783,0.589418208378517327616919,-0.735970427734064736036146,0.00313233708261500057301596,-0.0164380961195362516880092,0.00234381902306571342567421,0.00486663068466053685967587,-0.00402135023781500372530573,0.07944898876212166949351,0.996818847666892549064244,0.0680380628538756471179738,-0.038199610430299804630927,9.80420892015388112383789,-0.00878443446764201260612559,-0.0123382994802073951701171,-0.00233941975183339298527407,1.72725263422455799222632,4.31011479616733694797404,1.29272047006308565819666,1128.14241110800253409252,1141.13346284731710511551,1119.86952867579111625673,1123.3911647432655627199,175.047335257390017204671,57.2559082846522358067887,130.564956845685685493663,-12.5617798310034185504946,163.300966550752917783029
5.95999999999999996447286,-0.307769248686274310422561,0.981262881155783417419514,-0.518117294447945964108726,0.00256985013692348236019614,-0.014448237865298082377441,0.000466393899375215637004288,0.00489956013951360104530242,-0.00407260441716904720427239,0.0794449653660675297883742,0.996818800201629828805494,0.0679351585129263080276019,-0.0387716654474974178890001,9.80501279179176776779059,-0.00870806659421675607890556,-0.0125302360418753869902853,-0.00233936501702879974529115,1.72722762272570151687034,4.31008034935778194807199,1.29272228125357213635027,1128.44771922595850810467,1141.36470566543675886351,1119.88097667941678992065,1123.3102922438913537917,64.4715339749395894841655,119.445239273548210690024,-107.912880723145036654387,-64.5059288868210529699354,163.301442002359834759773
5.96250000000000035527137,-0.335792375361690931256931,1.41568833165203900037454,-0.2005304973025114068097,0.00168604624278730140345128,-0.00996031162925114892103817,-0.000552217006962126325496365,0.00493027128107161993070262,-0.00412077576897327407801086,0.0794444818146879672138283,0.996818493147027751000167,0.0673105398985152370006091,-0.0392325531007626654433906,9.80587859126282523902773,-0.00862094836972135923625071,-0.0127327609845946793099003,-0.0023459832081595649415362,1.72720411070646129303441,4.31004662781425995632389,1.29272457799866136163303,1128.46476877787722514768,1141.73068904368483345024,1119.32996427217540258425,1123.06863509883146434731,-48.2373923392980330504543,123.626164632653754438252,-253.424814850091877360683,-113.884313545534197942288,163.301983985749274097543
5.96499999999999985789145,-0.358400023321646665763751,1.71451731837752596732116,0.0684082149495327113131182,0.000856032092503597832368334,-0.00511013861613069872436022,-0.000493363361776123191156096,0.00495856397423967507759324,-0.00416120246455620786812934,0.079450542694017564637754,0.996817708120044998487685,0.0660540354641300786475711,-0.0395603180842985097109832,9.80680379227632847971563,-0.00852728742813396549393712,-0.0129454480524121527673653,-0.00235962808642627272157077,1.72718315400784971913595,4.31001409788246281351576,1.29272576394997451565416,1128.20653226426202309085,1141.98283648860001449066,1118.61385260516635753447,1122.74087067616369495227,-143.767451562237852158432,57.355665835531311813611,-280.612747576975891661277,-155.815370072426645720043,163.302410248947040827261
5.96750000000000024868996,-0.374795731753311434086839,1.92515125477817106158795,0.293444701226975412922116,2.1847215126464110358448e-05,0.000201423619221481218707903,0.000416403617006377553631108,0.00498481988382869049825086,-0.00419175539455854569148574,0.0794642269250468852304081,0.996816366590214775200707,0.0641180011232110602659162,-0.0397300973969929860363237,9.80778479240342981881895,-0.00843211927837052115097816,-0.0131674912878180522951554,-0.002379352614418828257975,1.7271651271220078704971,4.30998247995039651669913,1.29272537604359150087419,1127.74593152006605123461,1142.01746737286248389864,1117.92690053429055296874,1122.28955824846934774541,-200.603531287246994452289,-41.7582639780002651264113,-230.329786704628901361502,-198.472595545449308929165,163.30280825462637039891
5.96999999999999975131004,-0.381769977026723383861651,2.05904926112851827113559,0.450220180710359407783017,-0.000831409594085298392536487,0.00576948534962887921162533,0.00200100363634395138692779,0.00500784846742360553739637,-0.00420657063198790273639283,0.0794825689847860894499121,0.996814734303205773890966,0.0613929996309827974432238,-0.039747516109071345802306,9.80881677033279153476997,-0.00834082487934795051287562,-0.0133975686485736152769865,-0.00240325562299229921608967,1.72714964588105335252521,4.30995093389317585064191,1.29272298262026708037808,1127.20351460782580943487,1141.77404516871001760592,1117.46220367164323761244,1121.74850769843646958179,-216.53622934609762751279,-174.320253151749142261906,-101.999158453738701268776,-233.723187291166567547407,163.303181402501451202625
5.97250000000000014210855,-0.371555622614062552866443,2.10969149915332643274724,0.49513214219689161144089,-0.00172879199001019310394378,0.0114959211146881991327806,0.00429718039688256701197355,0.00502772062048703356068602,-0.00420213230325990321628593,0.0795023993461045214159455,0.996813076989581325904055,0.0578317717188226165792031,-0.0396043039635985694157938,9.80989125475804435438931,-0.00825887143952488446407845,-0.0136336989337874133626505,-0.00242858914963554623628328,1.72713637137491349271556,4.30991856704808018463382,1.2927182198275244395802,1126.66325037333558611863,1141.14586610710375680355,1117.4169047420218703337,1121.12094231201353977667,-220.197487625420905033025,-354.309657574039306382474,84.9819988632456357890987,-289.262798377012870787439,163.303522845947725272708
5.97500000000000053290705,-0.331441744162041973531529,2.10135007420433606029064,0.400297863517583951686873,-0.0027734451481715672802042,0.0180021271368398932954946,0.00738909833292116045161402,0.00504491726376042441681857,-0.00417806595148970116859743,0.0795202537497087247331251,0.996811669212244289006719,0.0534636062678673362746906,-0.0392971407951625967269749,9.81099528673067489137338,-0.00819148970817483099149392,-0.0138732640512269980725968,-0.00245210579061326972710733,1.72712526837030910797921,4.30988496131926090981779,1.29271086494574882763686,1126.10252716969853281626,1140.00249688083954424656,1117.88711366595953222713,1120.30219370655117927527,-188.417478210253108272809,-458.384422414392929567839,243.107016550771447782608,-305.580548571340102625982,163.3038936825514042539
5.97750000000000003552714,-0.2691630234893903073079,2.06465984803224067434257,0.201814822917706360172474,-0.00362909271331135615742958,0.022680339406272575358825,0.00952151795505596330870812,0.00505900523385709177670577,-0.00413598651686328255827618,0.0795319020051593050801841,0.996810843043708594279906,0.0483692825707639495469436,-0.0388524185522476292464766,9.81211144665710222056987,-0.00814337913293974695327915,-0.0141131288874874402661241,-0.00247049216789244335118481,1.72711586247490700429807,4.3098497508741635542151,1.292700895322365761686,1125.72116298228434061457,1138.85394399503184104105,1118.63243982477570170886,1119.59303956915687194851,-143.788167752066669891065,-452.548042581348113344575,332.177005122191815189581,-281.81777276650484509446,163.304168656945165594152
5.98000000000000042632564,-0.171589842088992527990854,2.03103112180023437360887,-0.0913315286540815479687794,-0.00465618914566672328914088,0.0263561406519943960957697,0.0103359783861092652257341,0.00506994103391923255780283,-0.00407830669039464452363397,0.0795380203587297829326275,0.996810533272861953868471,0.0426583776007997406143346,-0.0382994918106994430839762,9.81321824581505097739864,-0.00811864011556708183026121,-0.0143497307498364062849916,-0.00248073740233160011312008,1.72710742383248816445018,4.3098127391975662447976,1.29268895194104982415695,1125.38358633093821481452,1137.73975666793285199674,1119.54799869157045577595,1118.89310484271868517681,-159.741757098530570146977,-416.776169856038677608012,387.614395981844666039251,-294.699708417244380598277,163.304406311368609294732
5.98249999999999992894573,-0.0143667301781364720181244,2.01756868998482197241628,-0.496688099780022818130476,-0.00584697931076031719721531,0.0300356696981283269320961,0.00955409466357811515413445,0.00507799066726237827151813,-0.00400648840132707562827763,0.0795411189799393736343802,0.996810530906552472174553,0.0364334458140719297247756,-0.0376689371263782615817384,9.8142910789355344292062,-0.00812054432374257131876938,-0.0145793365538353508759073,-0.00248049094700274414329599,1.72709960335200296555058,4.30977368717708930745403,1.29267645372516448709632,1124.92245419679170481686,1136.77006314575169199088,1120.57051180468488382758,1118.11954102707068159361,-195.58302287983187284226,-249.128831109015521860783,326.442839145518178156635,-261.506375909999519535631,163.30464605075476924867
5.98500000000000031974423,0.140570601485061841273705,2.02482195886974425391713,-0.833216667316665771103601,-0.00614464117477329842959,0.0331741881917339831442604,0.0076750875921345051988709,0.00508544469187074445193364,-0.00392352334178051789098651,0.0795411955111288704323158,0.996810810832825411331726,0.0298393485095159900766237,-0.0369619028181730271964689,9.81530290692387374917871,-0.00815135037469996888426227,-0.0147983473697315716377521,-0.00246816572811104370868684,1.727092379577277014846,4.30973244161299806620491,1.29266403517391781363699,1124.40567121653907634027,1136.49411251238780096173,1121.18021288729801199224,1117.5855729631687154324,-248.775689439986166462404,38.6234855004212533913233,163.1612264959165372602,-173.715438705588951506797,163.304806273324516041612
5.98749999999999982236432,0.299015233736920071905274,2.01770094435260549659006,-1.11634803497420698192855,-0.00503313023467592823845251,0.0372176456855582080129885,0.00469772901441000215183585,0.00509281196541208711764392,-0.00383318580719503544315674,0.0795377617809530090831061,0.996811393183550276120286,0.0230401441111100467595829,-0.0362223393442807906073,9.81622603040339036795103,-0.00821231298565572309655636,-0.0150034970440413150533088,-0.00244310815487025186423797,1.72708528057155685786483,4.309688913449928548971,1.29265219167135647637679,1123.67857574959180055885,1136.96318057325379413669,1121.38631793716444917663,1117.25096383354275531019,-371.000343693602815164923,391.852996459337362011865,-18.71686660692870418643,-79.9682859929833966816659,163.304923405469423869363
5.99000000000000021316282,0.470139566543685494259819,1.92794006664075578960649,-1.34418550786761792359414,-0.00267369441596980580641563,0.0435042892524341862081627,-5.43443417105871334066292e-05,0.0051002144021113134803036,-0.00374017864269662317008858,0.0795316137836571124264395,0.996812194768771475672509,0.0162213740189414874770524,-0.0355082325092062889293487,9.81703364920416809979997,-0.00830372786161070498833769,-0.0151920975281269049483868,-0.00240550685029936777217796,1.72707788500955938815196,4.30964297579167787688448,1.2926413023731619933443,1122.55066949807110177062,1138.45337749468444599188,1121.08662855426337046083,1117.18573153320380697551,-447.844731497853445034707,686.681120098288488406979,-199.601150956736717034801,44.8986140361749264116042,163.30501177728280026713
5.99249999999999971578291,0.59160325423979986947387,1.73656642138884897974549,-1.41573960603060311491674,-0.000647274836103437010807748,0.0495349020560984162897533,-0.00465722478647644880928036,0.00510879663863730241329941,-0.00364776079420941340414331,0.0795238968248761501911304,0.996813105866025339629743,0.00954311869194114995029743,-0.0348580418505216177438299,9.81770164432915137808777,-0.00842494245137614256035974,-0.0153623356143000322493464,-0.00235626980096149355597968,1.72706936495504037587523,4.30959484081254906584491,1.29263149007291255898622,1121.43935209210258108214,1140.39658617374516325071,1120.38831218238078690774,1117.47545690372362514609,-462.742224271197187590587,881.373071061325958908128,-355.857882655535206595232,194.566308723010081394023,163.305040190403616406911
5.99500000000000010658141,0.700116590368515812059513,1.38416421917313625655765,-1.35411890146837943227354,0.000803408879118387275058977,0.0555531870584145062719195,-0.0093049455383749837128482,0.00511924522163610586783511,-0.00355870359346748032017271,0.0795157330736166456652825,0.996814024030270973142365,0.00315365947265874163596422,-0.0343186121246892711367238,9.81821006858517542070786,-0.0085744700639001306813336,-0.0155135206422852261337608,-0.00229691609602491846053862,1.72705969824566363257645,4.30954542532248119357519,1.29262240607371525769054,1120.23695837671516528644,1142.86024284999098199478,1119.30733914098573222873,1118.15856307681883663463,-481.956064827788566162781,1029.13530315611114929197,-474.733364963793405877368,335.206777676050819536613,163.305019564047370295157
5.99750000000000049737992,0.809497331303211331565706,0.892603820460460828378757,-1.19092963114369343458065,0.00166944339460989884908748,0.0608900857380965110365878,-0.0132610809284457401707735,0.00513082506061307737355026,-0.00347562653241896384048726,0.0795075033952233750644822,0.996814914337167734537104,-0.00280805805341794584295556,-0.0339618210536805839594443,9.81854455638837997355495,-0.00875012283033315026170573,-0.0156462565511413104202276,-0.0022294797621447174848508,1.7270490289521813753737,4.30949571927660191050791,1.29261388721414594016323,1119.02957176796326166368,1145.54226268952652389999,1118.01464535756144869083,1119.15149079210414129193,-470.795021747027078617975,1070.80365410072317899903,-539.066819887887163531559,455.806452196712314162141,163.304956697824309230782
6,0.926172549716901105654188,0.263357810219363219772504,-0.932652490590245353274668,0.00232665491073434389096564,0.0640936792615390410476905,-0.0157023090413630772577136,0.00514562446021856866734678,-0.00339913871816232291203641,0.0794972929934395916573564,0.996815917532235862275058,-0.00824454100399841377511123,-0.0337958612925990317665814,9.81869732250078897095591,-0.00894907928160586577104318,-0.0157625232027597851625078,-0.00215632028742766520060248,1.72703731073086874658884,4.30944681897520709412674,1.29260549473000407871837,1117.88298326798008019978,1148.21426112049448420294,1116.61200504154635382292,1120.43759533780234960432,-481.134998773551387785119,1111.34610018091370875482,-612.668242977510431046539,599.903592188742550206371,163.304840980827350449545
6.0025000000000003907985,1.05921190790300556727743,-0.56988242348930084890668,-0.554793170767404308918458,0.00403675065923200446227348,0.0637768972978438597465356,-0.0169095455221130244738426,0.00516464359682666188794409,-0.00333183555375668894599217,0.0794829524368419054747292,0.996817192332348223082761,-0.013029879977568475241112,-0.0338453474960847405794695,9.81866806454395124603707,-0.00916805265221160535504819,-0.0158655119596323966602025,-0.0020801504871441637775642,1.72702436625497868227797,4.30939916023175229042863,1.29259778325544583132967,1116.62389677409555588383,1151.09899319043097420945,1114.95130414267396190553,1122.15100875304779037833,-440.568292148064131197316,970.22003529620883455209,-595.174157473651575855911,626.910748288278000472928,163.304638581376025285863
6.00499999999999989341859,1.13625630274595912361235,-1.2565090456397638440933,-0.207798701365727561674035,0.00687378297223989031400349,0.0601082641160713762595869,-0.0171565666623773975529854,0.00518835459658776882579945,-0.00327696365771315729908952,0.0794645649203622045364526,0.996818720171046779299218,-0.0170369643417190401446515,-0.034135716978782648656221,9.81846459437892882249344,-0.00940343633780821308576492,-0.0159593630705179082007739,-0.0020039884049081304120965,1.72701017478163976193173,4.30935296876688322953441,1.29259137223395548232929,1115.68014180723980643961,1153.06536129697542492067,1113.63613425417815960827,1123.57214907924367253145,-356.032229122418698352703,670.209317653657990376814,-515.454944058739897627675,532.769155856806264637271,163.304415364625782558505
6.00750000000000028421709,1.1386757478429658796415,-1.86084721613129078221505,0.15591433119528866346748,0.0108751578105405269369932,0.054275041447895730484241,-0.0173869027820069722845009,0.00521433454814023387979827,-0.00323386596420053131287209,0.0794431027791879240673723,0.996820439110500666757275,-0.0202317732315966287981457,-0.0347304881837307774516965,9.8181031472343072152853,-0.00965131679046197371585336,-0.0160489081975645694888577,-0.00193118733406214340697638,1.72699448400958277538564,4.30930790267021279760229,1.29258678991075970365898,1114.84373562848350047716,1154.45003977869919253862,1112.37402942238031755551,1124.8148545323317648581,-340.225143233836206491105,461.271515816007024568535,-558.837414275615742553782,475.073593854959767668333,163.304133998214808798366
6.00999999999999978683718,1.02522794205596001759773,-2.44273905409923131060168,0.597674108687980210063984,0.0157616355446514103122446,0.0461681969250928095349629,-0.0171309396230295250818099,0.00523930558554926584929889,-0.00320215576989433528196094,0.0794226666212524273769091,0.996822041608635855958198,-0.0225897091874211232431779,-0.0356962911147249289944838,9.81760785008655112449105,-0.00990765105771784608534869,-0.016139363146535450760366,-0.00186509982473854227062737,1.72697745285071513343667,4.30926383123126566232486,1.29258418479116921062655,1113.97901609107066178694,1155.37171887605541087396,1110.84194718280014058109,1125.94751704851842077915,-286.082010573187915269955,213.312246518403298978228,-574.4179116168775180995,342.262672749400735483505,163.303727875480632292238
6.01250000000000017763568,0.831170630451861458531937,-2.79882742721687272080544,0.953705245977631732579027,0.019153247170045357983259,0.0391415866182995356159502,-0.0158215396441974930075158,0.00525989893189012566038221,-0.00317876929722836053943125,0.0794088080626267206474367,0.996823113856229126028552,-0.0241527509401072565387025,-0.0370826710825598454546181,9.81700999067453494717483,-0.0101682910129432674262162,-0.0162361091293231063481528,-0.00180884742344299327167223,1.7269592353570937248719,4.30922140157083077838251,1.29258326204946549786712,1113.41332557561759131204,1155.51660101129118629615,1109.5019398642959913559,1126.52616789607873215573,-177.190557813464266700976,-63.1497303872394226686993,-547.375001175219836113683,149.887858702435778468498,163.303331796365938544113
6.01500000000000056843419,0.55277272706856273032372,-3.03017342835802150347035,1.26750684492979104334154,0.0212783067463724433199257,0.0323477989351070999157756,-0.0129673355402919587148203,0.00527557789026471355559034,-0.00315877358358624153386596,0.0794039977913702649248151,0.996823478610400881549936,-0.025009129905250681441542,-0.0388664895106311039651992,9.81634675965062797331484,-0.0104289134375015885014548,-0.0163445189315876045210718,-0.00176496341892006642325386,1.7269391506305269423649,4.30918042242607057801251,1.29258353006214354863346,1113.09306330200320189761,1155.05597022411916441342,1108.10507217692361336958,1126.69695634203071676893,-70.7015154894194495227566,-270.574118570135681238753,-552.078857566005353874061,2.04064401877990153622022,163.302875606817849529762
6.01750000000000007105427,0.229396057047349249957691,-3.16937438637308810385207,1.52153466363706679764789,0.0223412053009685897253522,0.0256184798214679765315793,-0.00896365771193345824141563,0.00528881708543670839978157,-0.00313995035123938986271197,0.0794096677673099549110702,0.996823016635717040756504,-0.0252032747424224441712415,-0.0409562272738727209397958,9.81565985356523285076946,-0.0106852046197289819035037,-0.0164696137844076960499162,-0.00173510503556855441922857,1.72691688080311789299515,4.30914055058210276882846,1.29258444501696145856329,1113.05981799817050159618,1154.16373041844053659588,1106.74154557646602370369,1126.53637111617263144581,76.6662632091554741009531,-435.281829209916566014726,-500.466938535702638546354,-138.037732245450797563535,163.302369668205159314311
6.02000000000000046185278,-0.113492326650541361376945,-3.20487168645788500498384,1.68000022390285264073384,0.0222279041024700113604595,0.0185311396561369558233512,-0.00429475701553391764342393,0.00530168396522919492530601,-0.00312684521882946372256518,0.0794248860623487512588881,0.996821775836750134658359,-0.0246612300566501699283783,-0.043266729739919761177358,9.81499392476197485279954,-0.0109329936621900287302411,-0.0166157922613643579956566,-0.0017199608310427254992403,1.72689279898416492287083,4.30910160705561917637851,1.29258530517292169470522,1113.47639461804897109687,1152.87956107806962791074,1105.60273748424515360966,1126.0067676808034775604,307.791844121909150544525,-616.302540613118708279217,-390.396185096923659330059,-305.624047385033179580205,163.301804229992683303863
6.02249999999999996447286,-0.504412359126437559453393,-3.12565141847884442327654,1.74442902169432834114104,0.0208770642074967635593019,0.00945456886078480801538504,0.00137517467140196988570344,0.00531736227522666953654307,-0.003123689954956999567659,0.0794473975954729516590902,0.996819904512495913451176,-0.0233258268402994801971051,-0.0456803257315894703505244,9.81439454215589890395677,-0.0111684367510560093872396,-0.0167865667766698839491468,-0.00171929006966785118647179,1.7268670145752171851683,4.30906327321929705220782,1.2925852501934209648482,1114.59877721878001466393,1151.08221771537500899285,1104.78956465098144690273,1125.00825087924749823287,521.518717566925488426932,-672.852566330735271549202,-167.192056567004243561314,-413.006118181792487575876,163.301057977662651410355
6.02500000000000035527137,-0.78587606945198329455593,-2.95293849295780974628656,1.69233798362665210923694,0.0188210361717102876710772,0.00168808201326361290162126,0.00601110952439421874354819,0.00533991248229079024795185,-0.00313640569476712240126748,0.0794732197487290348281164,0.99681767924414754755702,-0.0211163968030531751240986,-0.0480571954069074006032913,9.81390611708457605288913,-0.0113881627155820227409455,-0.0169843594349027120216089,-0.00173196979729559464959709,1.72684016552094354857161,4.30902516398305834854909,1.29258373779902480116277,1116.08398820588354283245,1149.5152982464160231757,1104.76677720141015015543,1123.94173708989455917617,701.665921491181961755501,-610.465688752369032954448,152.031523544386402591044,-452.9391560101981895059,163.300380589936821706942
6.02749999999999985789145,-0.996789233573445399017032,-2.66743429565507028655702,1.53876201406636980983933,0.0160419583492847316052998,-0.00586044323787092771849139,0.0103282931801687103551268,0.00537108069326589377540104,-0.0031692939389165908532775,0.0794976001169551277358849,0.996815455807656292108732,-0.0179968177694491936191579,-0.0502954685218681071812163,9.81356991304671311127095,-0.011589395872693541295062,-0.0172103109663362674464082,-0.00175634513338420524160288,1.72681288555145862062545,4.30898695190463509874235,1.29258090631582023277701,1118.1071068262358494394,1148.02988927161322862958,1105.54972226870336271531,1122.74355509919655560225,987.036767573384281604376,-606.712042247740328093641,520.643859750509591322043,-525.604610568973271256255,163.29964670625417966221
6.03000000000000024868996,-1.15230436786461232223644,-2.20642556430269021205959,1.2572622235888899488998,0.0120587340441398790241712,-0.0141790912149149794796443,0.0147335892655391861860714,0.00540863659011985541125167,-0.00321995464325049943893342,0.079517029671385894284974,0.996813532074595887166879,-0.0140757386388203689642218,-0.0523588003522268349843038,9.81342224846665445170402,-0.0117700393784158814647345,-0.01746412360841183980531,-0.00179060059990175722381689,1.72678529747292985874196,4.30894832949836370517005,1.2925774349261356377383,1121.01917204375035908015,1146.48173803517738633673,1107.36999650016264240548,1121.31371403704974909488,1115.41440406924834860547,-514.775924255684117269993,781.141141233563985224464,-498.816632213730997591483,163.29870202746261043103
6.03249999999999975131004,-1.19849441492975428147361,-1.74633161131033975976834,0.961901578314336647146376,0.00833983040479257566046645,-0.0198069638366202525892046,0.0174479793125880584814258,0.00544984018448265751521919,-0.00328248933296055754246789,0.0795316299424734252099256,0.996811930008370428168973,-0.00953665637416210160148822,-0.0542166578129758200410571,9.81349289851950423724247,-0.0119287630646850890958621,-0.0177439583701634699675065,-0.00183272188528883122130009,1.72675763368120094298774,4.30890852135342505846438,1.29257398019966163182914,1123.68417884658197181125,1145.45600965033486318134,1109.45542797487109965004,1120.24947193812795376289,1063.24328407383745798143,-348.955324995229773321626,894.708934021829008997884,-375.215567721633135533921,163.297862390832875689739
6.03500000000000014210855,-1.16943216096311353169312,-1.25101011199665301809603,0.630454323600409871630745,0.00479000093426374708160953,-0.0233267580055229947766371,0.0189965905335220987260048,0.00549237704542329761153718,-0.00335237923257954368097544,0.0795424534839570401834052,0.996810591520164046563934,-0.0045386843092293481516375,-0.0558369492805101536037071,9.81380370738964202814714,-0.0120649102338322312261143,-0.0180465253289600752184541,-0.00188040926889086051909672,1.72673020570018720398764,4.30886638304008862121464,1.29257021147097939106629,1126.33538846411943268322,1144.73696141020127470256,1111.84354117027169195353,1119.43763619844162349182,1093.76823049179802183062,-252.537301822536932149887,1054.4739631394065781933,-283.34974073841414110575,163.296969488286890737072
6.03750000000000053290705,-1.07779118133950957414413,-0.675224782773746756703304,0.219184994914023822953908,0.00138435013117355716280588,-0.0249499339855077141570039,0.0197068897113207713855942,0.00553371770321337171083531,-0.00342414599632523799013772,0.0795493655616619776971277,0.996809558873609002915828,0.000739027874115061322868314,-0.0571977792226234238448512,9.81436760395835250392338,-0.0121783864017859146805511,-0.0183673042285972878961964,-0.00193116463265903992758965,1.72670302423572308292421,4.3088205228172302696521,1.29256574366565346601021,1129.15301999904181684542,1144.19332314122198113182,1114.72779779056895677058,1118.83272323443566165224,923.251654883753531066759,-161.035933992074006937401,1025.65451558236782148015,-159.737225850043387254118,163.295837740670549464994
6.04000000000000003552714,-0.982279494582885992493004,-0.247471028486669047952162,-0.119535870827466153554219,-0.000602748003917073001817206,-0.024649070434659664519117,0.0196106245895727726580304,0.00557209818008461057331493,-0.00349375974885299950267736,0.0795512303849121304999414,0.996808946531759776377157,0.00614802510312107211576382,-0.058274235361439705171982,9.81518772681152107395519,-0.0122696599923027022810418,-0.0187008965273882700464103,-0.00198225094626556944468754,1.7266761513736077482406,4.30876998893056217809772,1.2925605994570530388188,1130.95164673853810199944,1143.93178174024092186301,1116.97181374818342192157,1118.63895006919142360857,559.496112673389802694146,-92.4807358007475812655684,844.983532979012807118124,-24.9887115677216442577446,163.294845365848487972471
6.04250000000000042632564,-0.897554955452190994513728,0.102702464058697345850035,-0.441555689048589439238413,-0.00178688138981055247289653,-0.0235872729724547376684018,0.0190863710387113374999934,0.00560417693835562301385433,-0.00355803432021177274552359,0.0795476713632771725848158,0.996808815851841223398822,0.0115568360171546292980427,-0.0590848533157576835672664,9.81625695912564211198514,-0.0123398348517312402700119,-0.0190414853218607016405173,-0.00203085843566525687739488,1.72664988685854448036139,4.30871487684257292727352,1.29255549601903751977261,1131.9505005624087061733,1143.73091946221825310204,1118.95271545546393099357,1118.70777967659705609549,249.326872562647480435771,-95.2436301466170647245235,748.694642114121506892843,55.094123502568699279891,163.293803091272252459021
6.04499999999999992894573,-0.835480024767535578433808,0.387656323407365277500247,-0.741126768302326599524577,-0.00256916392100082352500934,-0.0223731465258265871387522,0.018094465577696630664839,0.00562708651260599226895387,-0.00361157495515899247193192,0.0795391477256522233529878,0.996809168109108800770457,0.0167961784374755333792972,-0.0596476267881965588335547,9.81755802651801445790625,-0.0123906501597812971487977,-0.0193834130041075358708014,-0.00207411063062966230866047,1.7266241798572281584967,4.3086561471246005439184,1.29255050909967650341059,1132.19828110135131282732,1143.45556358950784670014,1120.71528695875394987524,1118.91442068670426124299,-76.8854921160725979234485,-156.668556907201207195612,662.154605265155169036007,92.8355467812727255250138,163.292720547126606334132
6.04750000000000031974423,-0.799598158333762021321434,0.60684645321447150401184,-0.999058720421579726789219,-0.00348692863743755524646994,-0.0211240328918505977651154,0.0161445844281321235214044,0.00563914851003164893650244,-0.00364979283195412734439045,0.079525208508146150165885,0.996810068660592074607507,0.0217207290364101503199468,-0.0599708720013743187826627,9.81906358318949479269122,-0.012424409861805525354117,-0.0197217214037621636768538,-0.00210894434569356250055994,1.72659927807775814834201,4.30859541828426095833038,1.29254504060070551929584,1131.56607310182835135492,1142.94757667768226383487,1122.26348848178963635291,1119.17195741050340984657,-440.372103511627130956185,-301.536924650469757125393,645.869634948544558028516,98.204737226571793939911,163.291591175101359567634
6.04999999999999982236432,-0.763107250450627661031433,0.816332883615820681377784,-1.23661858027322235642487,-0.00527480929620594528317579,-0.0194180847395670590216366,0.0124950431229073552485964,0.00563875343142654274902759,-0.00367161970262591674796226,0.0795096084873025410466596,0.996811233500037641164226,0.0262611368583787509189964,-0.0600789478068264465315806,9.82073653961034054304946,-0.0124441318511395969392819,-0.0200523358831957085324227,-0.00213211308445764675598144,1.72657605985789364133609,4.30853390289262172530016,1.29253799414813985713124,1129.99642058379322406836,1141.94787896625553003105,1123.94463513349660388485,1119.40544437283710976772,-660.147435871036122989608,-434.999958015496474672545,593.283929231132674431137,60.3070564101484833940958,163.290184549123068791232
6.05250000000000021316282,-0.711014786843260693238733,0.96086894339681971910494,-1.35871527641184108858852,-0.00741988285483298048300638,-0.0175877097602185408775632,0.00858030799883852460241407,0.0056251984338577627406397,-0.0036731283055021013775332,0.0794968321864764765338762,0.996812324168990238071331,0.0303016044423255088979818,-0.0599848900545787572236023,9.82253169669907144623267,-0.0124532299265932636100906,-0.0203722909469943661009417,-0.0021404314633087818953161,1.72655451867895814999088,4.308471961974280617369,1.29252891372980727169306,1128.26533592247324122582,1140.77257688760482778889,1125.22990812794523662888,1119.47349269255414583313,-707.315789160262852419692,-526.571477473510071831697,489.533028056267994543305,-2.22379895776616853808605,163.28897193423790668021
6.05499999999999971578291,-0.604260826326875610803313,1.0868480097147521501455,-1.39308994062129976043707,-0.010180752437302122842544,-0.0151255104149200323565561,0.00435718782599419166001731,0.0056028734350639305961117,-0.00365745272834723522681344,0.0794881661100809294717706,0.996813199256924131752555,0.0338814428994669986083821,-0.0596223182419497524375807,9.82439615982960390283552,-0.0124551681043627727324408,-0.0206798534844744794081173,-0.00213063641591949154419083,1.72653412138835182787489,4.30841052512549715913792,1.29251780389966519635436,1126.45984163799198540801,1139.31502157888803594687,1126.39230027377789156162,1119.39432537804827916261,-729.678632354186561315146,-668.261156833719383030257,471.12304556218174411697,-58.0175027417693485176642,163.287720661906604391334
6.05750000000000010658141,-0.392448700463863930920638,1.2283360500953817151526,-1.34090129429406768046817,-0.0135015048895561762254403,-0.0116336585853636081261397,-0.000229360338712195836567698,0.00557789129264190698676007,-0.00362921014535471991510618,0.0794823956310834744964922,0.996813902616816460700022,0.0370804312952383308132909,-0.0589009165677724377818691,9.82627176597705265237437,-0.0124532341097406597935082,-0.0209743957588199095298798,-0.00209995490648885382856115,1.72651481279655016898289,4.30835034722871945689349,1.29250445826084581213422,1124.61694276070238629472,1137.43127110343630192801,1127.58552335575609504303,1119.18340517884530527226,-575.399080436865119736467,-673.544607782363755177357,388.344007520966670199414,-82.4855632964825673525411,163.286178855880052651628
6.06000000000000049737992,-0.150845928688929681316111,1.34788983717710375564991,-1.23573852378302029286772,-0.015465430665056104433952,-0.00885153660120856743132034,-0.00328143358884739602329694,0.00555367240569343278977499,-0.00359257559507455363073669,0.0794770495378669949992911,0.996814597010126868248392,0.0399734433656699916781463,-0.057788239132918611806744,9.82809771780159024956447,-0.0124503730326134751105194,-0.0212561265632677069692402,-0.0020466759101386289287916,1.72649680398567251238262,4.3082919206007534995706,1.29248915837330002887029,1123.58284623580721017788,1135.94729853997569080093,1128.33402031138302845648,1118.98189756156580187962,-279.722749379976960426575,-519.808088904494184134819,224.694884922523925752103,-67.0002934315121621011713,163.284864058610907022739
6.0625,0.128766092944135601694455,1.47966217674636579815228,-1.09005124901307937079764,-0.0159707021560583847796799,-0.00667952166117996050387351,-0.0054314830534614166879237,0.00553054881707860154088641,-0.00355293571800353175094145,0.0794703672992509851935594,0.99681540282549885301222,0.0426609230686237489438284,-0.0563186468573939683079921,9.82981309793924751261329,-0.0124490547850668077656255,-0.0215257382295647517467252,-0.00197047027451623894128696,1.72648027809678850097441,4.3082349701024247323744,1.29247290918606627663223,1123.21832901380253133539,1134.83223065891388614546,1128.70899778036869065545,1118.84840371168775163824,-8.25772906878245827044793,-340.524842400198394898325,52.8234110035566430951803,-24.2502603624876158505685,163.283522915377602657827
6.0650000000000003907985,0.455081274284032222254837,1.64820406508307382154044,-0.888861337981821875153798,-0.014899165292795550630256,-0.00410418825802450534107058,-0.00766569815945050692107543,0.00550956479869016413353222,-0.00352004768693912201138474,0.0794620785427171405501667,0.996816301460224818420386,0.045335217643061823111772,-0.0545225404911370767346845,9.83135921305750315468686,-0.0124510794661557844253963,-0.0217840921549371166476838,-0.00187239111530068755989697,1.72646475385416264813898,4.30817887861138437699537,1.29245760343524684898853,1123.54155759046329876583,1134.24467432797473520623,1128.59813736640080605866,1118.86064625975336639385,219.839711141098774760394,-52.685486901056023612,-144.640428252299329869857,42.401199894994526573555,163.28188896802276985909
6.06749999999999989341859,0.678358259738210178646511,1.7747968268102860545099,-0.706260073614570438316207,-0.0128702652605783059852618,-0.000892202492404882961142543,-0.00965484109211973799691275,0.00549277824276704108863445,-0.00349842700127864355760798,0.0794536883512171054899653,0.996817145035239327022225,0.0480909254817957210192958,-0.0524043816713224142045391,9.83268367445204738430675,-0.0124573459291826890010801,-0.0220319634944790947173043,-0.00175509270812546883284988,1.72644919852677336535862,4.30812301557167121046632,1.29244460022270835075631,1124.31752756950800176128,1134.56880322440861164068,1127.98579563910720935382,1119.06040971116271975916,363.683316776049196050735,320.698132792865635565249,-348.346894025833705654804,124.166957468517381357742,163.280511237543720426402
