t,ang acc x,ang acc y,ang acc z,ang vel x,ang vel y,ang vel z,quat x,quat y,quat z,quat w,acc x,acc y,acc z,vel x,vel y,vel z,pos x,pos y,pos z,mot 1,mot 2,mot 3,mot 4,dmot 1,dmot 2,dmot 3,dmot 4,vbat
62.8449999999999988631316,0.512841567964243072452746,-0.263659449350008789902944,0.550443827384531236823761,-0.0187848427165656223225554,-0.0544299548765614926715273,0.0150248604348899722493726,0.00140475879201856692496397,0.00320892996810663924667217,-0.0895894373781509073539908,0.995972326478667291382862,-0.0136731919793911804728026,0.0337202594880025088852626,9.80037983640142762453706,0.00823857697093710247826515,0.00272936544332900987708257,-0.00334588910019485187563593,7.56165729938646435925875,2.15489712962097534898476,4.12682166124812255247889,1106.49140602281408973795,1106.98055525257996123401,1109.68686601201170560671,1107.48569892139107651019,228.91902530761510092816,-132.366015072671444841035,386.810799716415601778863,-76.7082137896130547005669,150.778635850517076733013
62.8475000000000036948222,0.677637575077235876364057,-0.113180488628783673665801,0.452253776568100396282546,-0.0164615283934870688942187,-0.0551330642790056890678585,0.0160981499559883188543719,0.00139937348570040543879744,0.0031582890853850630573374,-0.0895931084779682529450895,0.995972184704538410215946,-0.0126988163859864250371245,0.0331632161848804882242625,9.79807417210516895522687,0.00819567479975002836922737,0.00278363566993359472581671,-0.00339303148441460339368447,7.56168049843590228675794,2.1549025226856515224938,4.12681613371707811666056,1107.09224574028439747053,1106.78536724008790770313,1110.84087780898789787898,1107.24262356408439700317,276.928264139354951112182,-29.7647429672754313401128,552.283995687629953863507,-130.95970939614412031915,150.777192134584424820787
62.8500000000000014210855,0.785876251461288588551213,0.0814356212181541472272528,0.304466057876673579229987,-0.0131670376989520259564115,-0.0561492351849410473163537,0.0163753284549652891599614,0.0013861395786350229168693,0.00310805935176464414454456,-0.0895888640401118346856535,0.995972758341644448520924,-0.0116504882176195617704551,0.0325223535400002428108479,9.79588797016218215674144,0.00815284735859804488011804,0.00283823196007384950106944,-0.00344946288216784390998071,7.56170338061142821572957,2.15490572701749050210651,4.12680882801140125337724,1107.87604734351157276251,1106.83173153774350794265,1112.44828599045126793499,1106.83090037441002095875,294.473793180572556593688,54.7395468616784839355205,588.109967461185192405537,-172.475688873166717485219,150.77548140177333380052
62.8524999999999991473487,0.80265253719728768544428,0.261885274744085794207393,0.173591513950209858085927,-0.0105755710768415476380477,-0.0563911690474825644248114,0.0161287164262915588830438,0.00136957632840226757250934,0.00305689387651671704362877,-0.0895786882278738483265101,0.995973863998859454405022,-0.0105179609833976617228046,0.0318827643027769572214858,9.79386058961411443135603,0.00811019718579088048915349,0.00289457796837204461848359,-0.00351374050709724094002095,7.56172534014889574649487,2.1549070483183565549723,4.12679903168351103204259,1108.56461470618592102255,1107.05906497439605118416,1113.78142764629114935815,1106.38024511971934771282,273.977313447126903156459,117.917444826783750499999,489.705540610907121390483,-204.049044521603008206512,150.774072827707499300232
62.8550000000000039790393,0.758778450720663188988624,0.456788791160399831881023,0.0423110246961074937255276,-0.00853518729151797259091516,-0.0556212687030214342209788,0.0158528414950713861242271,0.00135819311120921322293131,0.00300617232489994645402986,-0.0895650756844995482586214,0.995975260514807336775789,-0.00935156433336874204353961,0.0314006950907075102485955,9.79202672750997926698346,0.0080680400087282926752108,0.00295395409358827727361319,-0.00358435912108063733927388,7.56174623444846005781983,2.15490761894448956681458,4.12678785454075836014454,1109.24593391074790815765,1107.42131876187772832054,1114.89681369350705608667,1105.81065515180148395302,284.302157693391620796319,176.657350900268852456065,411.062508881167332219775,-276.493057608008257375332,150.772680344014702313871
62.8575000000000017053026,0.663189626472659665701315,0.694208885217433735448367,-0.121226782596911872302847,-0.00666423964458800078408673,-0.0538989215296975035518479,0.0158420264064071392162703,0.00135593802332134474690484,0.00295815733923478381417471,-0.0895506257761186780230744,0.9959767030289952138844,-0.00821115303193098444722864,0.0311405484193906026413323,9.79041732346704485223654,0.0080268036533118480857496,0.00301730598152996328312203,-0.00365999557001494548943987,7.56176647161303261412968,2.15490835428886828850636,4.12677678795611413420374,1109.98612549465360643808,1107.94235172889784735162,1115.8367401906980376225,1104.99777983167859929381,249.642038764340810530484,195.539750371195196976259,275.011874330152750189882,-315.259779103521623255801,150.771025723882587499247
62.8599999999999994315658,0.567756015260103441555373,0.885022693361115386778692,-0.269689779674404050968661,-0.00561139890756164830959429,-0.0521073790572223125017182,0.0161445117381039567050482,0.00136080767722280768228238,0.00291271332832617390815044,-0.0895350557625694404295658,0.995978222819861924719476,-0.00709943680683090827532311,0.0310545908125625519380364,9.78905996487215723789177,0.00798692489423372641021981,0.00308510387733712011792964,-0.00373963285907652704179172,7.56178656611214172755808,2.15490938882295601786154,4.12676645362724681120881,1110.49414410456847690511,1108.39901751373281513224,1116.27187306515656928241,1104.23435625628530942777,175.836110898627424603546,175.952696035802574670015,116.541473871652172533686,-314.352871740559919544467,150.769658616906156112236
62.8625000000000042632564,0.474890926810773605915017,1.05657486219219154399696,-0.432286677682630404717656,-0.0049070375479950438177279,-0.0499816982256333156020567,0.0163145431865560006090554,0.00136673067166332112658267,0.00287207752642998923389706,-0.0895143761059265102852933,0.995980184761660281012041,-0.00605821310009213576108777,0.0310122257268429582510727,9.78797790156414926343587,0.00794883458867198279540478,0.00315731160061794762297649,-0.0038224095902037449543065,7.56180639010603616867456,2.1549107721219096234222,4.12675695653895591163973,1110.86530604914719333465,1108.82211520907731028274,1116.41944756005659655784,1103.42601547297499564593,127.997413552864600205794,156.123366375515786330652,29.2783224965965302999393,-321.784900129404377366882,150.768301147551909480171
62.8650000000000019895197,0.392238720323693668134979,1.20148291042151167395957,-0.596644494888863952120062,-0.00422823928544478495200609,-0.0473864031163102050747682,0.0157831297080526095077957,0.00136491674625053606428882,0.00283968135727097510667694,-0.0894873762683084800206856,0.995982703178962869294821,-0.00514807306236560180412454,0.0308285935597891122550429,9.78719004873248898945803,0.0079128788931546491236535,0.00323349945386671453265159,-0.0039075016940082075295182,7.56182592712558587777494,2.15491262118710924511333,4.12674805607559758158231,1111.13413117233312732424,1109.17963434561079338891,1116.41826467763962682511,1102.62543175563746444823,91.610188126689180876383,120.977110080703809558145,-16.4727413838286089742269,-305.596498832533711720316,150.766949548005072756496
62.8674999999999997157829,0.324925071446452995438392,1.29920987269642584926999,-0.738259621944667543402829,-0.00330625068459455611832865,-0.0440046615208679256503466,0.0140064637363034941164308,0.00135703458366769015228104,0.00281455526581729119015018,-0.0894565964845630695601031,0.995985548688623545388054,-0.00436229152146277998625123,0.0305319347185091863328132,9.78671032132745999376766,0.00787923943784002954460188,0.00331277946894862999893672,-0.00399414595745102660867554,7.56184526894667463636779,2.15491502973502058182476,4.12673907803144235373338,1111.32335698978022264782,1109.42700075948027915729,1116.33708385313752842194,1101.89803297881371690892,78.9367249511138595607918,81.4955101916476962742308,-37.8197869553139085496696,-286.719147065549577746424,150.765602217425595199529
62.8700000000000045474735,0.263427108166798096267058,1.34594789238629353178567,-0.845798995295715227982214,-0.00209564938689574308330887,-0.0392240835599887011087006,0.0106030003804294496727589,0.00134885086730734808126153,0.00279648523945432098472552,-0.0894244875571394010060899,0.995988494174278149451141,-0.00371570928618603080195726,0.0302314474545993666643184,9.78654758507845912163248,0.00784795635764715115989532,0.00339383348683381909707824,-0.00408145081411806064791703,7.56186467860641098326369,2.15491812658509118705297,4.12673018956194059825293,1111.52881479708889855829,1109.58711189656924034352,1116.22916574286296054197,1101.19183602030898327939,79.3263346747202149344957,39.4585191270633046656258,-35.342374115161980796529,-221.086793287100249472132,150.763986722660803252438
62.8725000000000022737368,0.232171884494618702143853,1.32298676161626538316796,-0.864909395109878631480171,-0.00129226484610923432472251,-0.0352760302008574069820845,0.00723909957312671853424391,0.00134777028108936259426232,0.00278683551418231357371669,-0.0893939468037170809067149,0.995991267644875333253651,-0.00325624863574264233889721,0.0300683060972753088413434,9.78670582266873267940355,0.00781891388785381676040931,0.00347500751288864692667424,-0.00416831846175327522252552,7.56188415804338109893479,2.15492242024495350705138,4.12672230158174624392586,1111.7199886631540266535,1109.62429335511569661321,1116.16037198256162810139,1100.79259901237765006954,80.8668489503187259970218,3.55023613974804019832732,-18.5751670537852753284369,-112.287742938417324012335,150.762639265302453850381
62.875,0.230829974312852403972585,1.24529912653594765359344,-0.807807294299117351066286,-0.000822737566514448125619408,-0.0320090850810047858332474,0.00420166740925618370505745,0.00135513299498819838120878,0.00278186291708364119568131,-0.0893680369863796841833903,0.995993604261341647365668,-0.00292084746549273188698237,0.0300774680091838997331166,9.78718585263774798477243,0.00779177172114276558184676,0.00355448258936250614803409,-0.00425340591813184575736839,7.56190359576998094581768,2.15492817623516286218432,4.12671451953379886390394,1111.93314904184012448241,1109.60486307726796439965,1116.1362899075941186311,1100.63039730561740725534,84.525888507462198617759,-9.77654356256107348599471,5.75616703035553811673708,-12.8614296756429808965549,150.761288392783939116271
62.8775000000000048316906,0.27582582801226140922779,1.10988190968973876593395,-0.67256425145516318675476,-0.000548320303873483919955556,-0.0288792487662187617736276,0.0015860851837872689228115,0.00137049036058698348213014,0.0027737564658991834334878,-0.0893526383989845796040896,0.995994998926242214309923,-0.00256317574304767981097086,0.0302689209446934393010764,9.78798482468628883168549,0.00776593766401210711808334,0.003630459328621681892868,-0.00433503369511222327870037,7.56192363988466720314818,2.15493588155792314964287,4.12670574434161352428418,1112.14261810569155386474,1109.57541063730286623468,1116.18915281771342051798,1100.72829186399940226693,50.2470789114538405328858,-4.67347394760269807534314,37.6694678334195600655221,83.5659955936562255374156,150.759661644571451688535
62.8800000000000025579538,0.357781417445996507975536,0.977127596527099684386997,-0.530044590199631904248179,-0.000393238311097546505267636,-0.0267106529243379235694089,0.000304247511080586925148739,0.00138576620873644162403038,0.00275799521653356978501126,-0.0893478082819760821564614,0.995995465152836212396892,-0.0020860773554028239074043,0.0305013213175764977269644,9.7890960982725037098362,0.00774070175998357000446415,0.00370131124939024683251354,-0.00441106391136827924448482,7.56194462225629937535132,2.15494495271620056797701,4.12669529096927778510917,1112.18438443639752222225,1109.58149570752993895439,1116.32463724676131278102,1101.04822728358590211428,-36.9876438569799432798391,13.3888308945310097186621,75.7735073784040480404656,171.779054942154999707782,150.75830049247323927375
62.8825000000000002842171,0.48450011342888732457368,0.837115709967618415454638,-0.389137208882586738134535,-3.77784127152295081449734e-05,-0.0247884149765737957227252,-0.000249609954126244837704918,0.00139803300172699216177841,0.00273054320957331507144228,-0.0893513560276671531257264,0.995995209265750580662768,-0.00140937948107963673116672,0.0307350253873405407367692,9.79050870846207921260884,0.00771527709033714963887673,0.00376576441939525333874039,-0.00447919147740034710725165,7.56196633544996910103464,2.15495507909467098883738,4.12668242872946589017147,1111.95767988640682233381,1109.64235479177546039864,1116.56802035460509614495,1101.58718713870939609478,-151.424312607561148524837,33.1455105990545675354042,111.773719314771170729728,244.506613484185891138623,150.756933274579751014244
62.8849999999999980104803,0.63947639681009327272676,0.697357937906621039303445,-0.269698799769155950212252,0.000728460815178888043512628,-0.0230163701754449723235751,-0.000404492511080867787626875,0.001407412624792555395567,0.00268796459127687526954875,-0.0893610679103561261760191,0.995994436164068353001255,-0.000468622406126217860844463,0.0309899207983997185267278,9.79220820222528942622375,0.00768888397453210137300061,0.0038231328572250586513015,-0.00453720843834950256917571,7.56198860220688118261023,2.15496613409078685563713,4.12666760111692276780104,1111.42726287336040513765,1109.74722326052506105043,1116.88350584333466031239,1102.2707603510057197127,-293.805613811796092704753,47.1167169691157141642179,129.675221782715254903451,295.835367877346982368181,150.755561235343918724539
62.8875000000000028421709,0.808589621086514998005157,0.563048917275780547164743,-0.191501900719628193048294,0.00228124318130203855917171,-0.0215974928543840455352765,-0.000302198083911846379807919,0.00141325505575740756857017,0.00263343145996153141577545,-0.0893738477907618789064514,0.995993413989734177604873,0.000674354804982596478524215,0.0312594307659328080051253,9.79417716066716614875531,0.00766089934510025358932461,0.00387347912551283925577938,-0.00458316464958211620961404,7.56201161166901680843466,2.1549770519912501143267,4.1266528846089904902783,1110.48865181734709040029,1109.87793837662115947751,1117.21639646351900410082,1103.06636397809688787675,-499.714845193619964902609,50.3584825097929495996141,121.081258722899193003286,355.917756026974359429005,150.75418418110325546877
62.8900000000000005684342,0.995305467881146377351342,0.413343815155112870307619,-0.15248424181684788747404,0.00527426907180954598897138,-0.0204472917243793961272758,-0.000113383035895560499092816,0.00141760414175100919395578,0.00257336255175698693301034,-0.0893862371715937048533007,0.995992431863389704460587,0.00189055482641821426259554,0.0315828531994808911487205,9.796396408320935833558,0.00763092013803998332754919,0.00391763830805796301609556,-0.00461556885031073112907185,7.56203453539845593667224,2.15498735978251065859013,4.12663858346876288862859,1108.92868864739102718886,1109.99901567307415461983,1117.48891213694946600299,1104.0503491311415018572,-626.337365290352295232879,26.6590257990871215554307,52.9851851632001711323028,348.901579652237046502705,150.752527497257716504464
62.8924999999999982946974,1.11467187011862223222636,0.299903150820398478604289,-0.162311205983959289111951,0.00857602461903925195052523,-0.0198914592093927498905881,-3.66492008895304957529632e-05,0.0014188540173892369607167,0.00251154722785454321762333,-0.0893951544952600180016233,0.995991758685785266713708,0.00310917965126773776507463,0.0319307776316126862292677,9.79884768283938889510409,0.0075987559580189250468818,0.00395722026752406540878182,-0.00463341761744234716807744,7.56205665716896291428384,2.15499660497374145862182,4.12662417232618228268848,1107.35696499089817734784,1110.01123350561647384893,1117.48132238933476401144,1104.81087187635648660944,-652.688502777876124127943,-24.5613201848174718122664,-80.5283410862600277368983,271.031691187179205826396,150.751144787797500157467
62.895000000000003126388,1.1788687244232085582496,0.195946389170016638248129,-0.203615890435756757836927,0.012058002832809514015544,-0.0196086451051136131940034,-0.000186304097712421958769197,0.00141651214365173154854927,0.00245213899281297069768226,-0.0893985575493630585386384,0.99599157063785437316028,0.00425050370665734644770595,0.0322918338646758507071155,9.80151408063694518091324,0.00756443181346331313535947,0.00399441911025795286238615,-0.00463614550937037524225293,7.56207808696565919603927,2.15500404743516771333134,4.12660963950491055385328,1105.66524613349997707701,1109.87620907215000443102,1117.08627043151795987797,1105.40550758707809109183,-725.890321904663892382814,-95.2794722037164376615692,-285.216428611501726209099,201.338112006066467074561,150.749761697833633888877
62.8975000000000008526513,1.18778924672158536779421,0.0731246792567021991482434,-0.267298497692024461525051,0.0158302855666103275966705,-0.0194259740854939577658911,-0.000777781752254270335525388,0.00141349231748923989324118,0.00239548707228783974015895,-0.0893963123607261905823052,0.995991880436418619559902,0.00530282653513729218541783,0.0327241413348631840496417,9.8043816376212280516711,0.00752809143345669305735779,0.00403174852473791364010358,-0.00462371224297064564723314,7.56209901213265034414235,2.15500941096223641579854,4.12659490912981752330779,1103.72751338137300081144,1109.53483614459764794447,1116.05524024627652579511,1105.81756243638733394619,-660.278509509007790256874,-146.764988266610771461274,-474.773819945380409990321,89.0374246809087992460263,150.748103941295454433202
62.8999999999999985789145,1.14258968959501339135443,-0.0375437209590249940105444,-0.313359653823947648110249,0.0184850725981866859104485,-0.0193329447059524574259459,-0.00169338954445266459854225,0.00141486963199361219685468,0.00234147504271628231417579,-0.0893919414197695272328303,0.995992371441590806924182,0.00625906288049250802973944,0.0333248446494779915205697,9.80744033521467351022238,0.00748997768179196325710745,0.00407176747866737440834095,-0.00459656933593453453229527,7.56211906287458912601096,2.15501320246418570647506,4.12657971934068612540614,1102.36385358595794059511,1109.14238413081761791545,1114.71240133179321674106,1105.8506947104822302208,-458.064050376963052713108,-158.794309062851141334249,-627.156905565877650587936,-56.7482287516832712981341,150.746726023141064843003
62.9025000000000034106051,1.04902155692059295688523,-0.169775159109306517102311,-0.331180439409902549474651,0.0207097211856983529076892,-0.0192928869078824623273238,-0.0030329440170472729727813,0.00142109602484402804123409,0.00229612618691649736715754,-0.0893846950952355556729856,0.995993098230233742107487,0.00699986905276973880862812,0.0340866964784158135715053,9.81068528595188027452423,0.00745049925792481190084393,0.00411671924096319863384252,-0.00455555594684589268417163,7.56213770297092580108256,2.15501563334642032288002,4.12656488009728850130386,1101.43719312948701372079,1108.74086459928298609157,1112.91945571844553342089,1105.53382129262877242581,-284.114266811448203498003,-146.292381525852505319563,-866.357866190094341618533,-213.137568927532015550241,150.745354288883106619323
62.9050000000000011368684,0.882490560507684596025513,-0.364734010902121652542007,-0.304101359251755076762436,0.0232120501186633583501351,-0.0194101034047574408369918,-0.00481511764483455104168819,0.00143418516765613673381863,0.00225955930948854499459855,-0.0893779063198056333838792,0.995993760090405744200837,0.00751721296058083937596805,0.0350397284354770424674719,9.81411845019123241229408,0.00740994842079947639568172,0.00416832560491100980598622,-0.00450214002343242349762908,7.56215559522045932538958,2.15501770244725987524248,4.12655080331808843396857,1100.94328225189997283451,1108.41092222318798121705,1110.38061200084052870807,1104.78500686584402501467,-78.449439065596791920143,-72.1564246017098014363,-970.552743594062576448778,-321.941929470241973376687,150.74371853895078743335
62.9074999999999988631316,0.69523788423528698476872,-0.559767949172885193043214,-0.238809977083801111552575,0.0253029375435578907094225,-0.0198002871795370759266941,-0.00610622769678639387008756,0.00145796127447004350390081,0.00223006781748322831931963,-0.089374638767848887943579,0.995994085116282512615271,0.00783450822114290651443369,0.036250035325473210778835,9.81774885379711825805771,0.00736846528572889219316222,0.00422755595175560577869689,-0.00443828456809514538400352,7.56217375827502902296828,2.15502033409964299792705,4.12653836443083132934362,1101.0449459341593865247,1108.38008247627476521302,1108.06669200047963386169,1103.92411164527902656118,126.795660529822882267581,57.8695705941003737393658,-933.910860026275827294739,-370.555012592004970883863,150.742366533603416201004
62.9100000000000036948222,0.453222952345035845489463,-0.781008408628926176220375,-0.137970932036208859816639,0.0271840799934809952687065,-0.0207544969429766974766682,-0.00722753458236258423952325,0.00149126300553349580395313,0.00220548335254366727198327,-0.0893754594618291070551308,0.995994030899959748026617,0.00799200155858829919264252,0.0376855140031945173850758,9.82159362369656818714247,0.00732603821455574642784736,0.00429463326368544236200098,-0.00436621362074704737893383,7.56219256552275265192975,2.15502362560806437485894,4.12652784008779516256027,1101.5772605545494116086,1108.70027007615863112733,1105.7110577007067604427,1102.93223180288305229624,258.319556065502808905876,190.196099875077379692812,-923.085961445149905557628,-401.232198809224712476862,150.741029295157773049141
62.9125000000000014210855,0.166650878884856662454084,-1.00967181644145953534064,-0.0225187816929824646816627,0.0285047273329945942410557,-0.0223850330750239127908241,-0.00812065732650700707051517,0.00154086265055570830959097,0.00218163185222512929009597,-0.0893860221291132295284854,0.995993083697337300286279,0.00805365358408705045434317,0.0394716249056865850497466,9.82567669689572831259738,0.00728249569196635394841,0.00436911561394768589716708,-0.00428828473101075090950784,7.56221235371763533805733,2.15502872282886581700723,4.12651941116917964080812,1102.33654371448756137397,1109.33106297565063869115,1103.45126219325152305828,1101.91795065123187669087,323.468570887847306494223,317.077336474146306954935,-847.519248919159053912153,-395.719380179658173801727,150.7397068871640612997
62.9149999999999991473487,-0.164564000817773170570746,-1.22120100800576736332914,0.0822916534337275046295801,0.0288270199230975382453934,-0.0249748147829447486589771,-0.00801366315576672143261572,0.00160420747740188242118353,0.00215543680066367570810626,-0.0894079805258550935898043,0.995991097285956583640143,0.00807742676949420312926264,0.0415498953735612616688933,9.83003009971148600243396,0.00723770064377002569216968,0.00445010101677603166214769,-0.00420653792695622596314875,7.56223326821043961842861,2.15503566415767444652829,4.12651284915091398630693,1103.19460340898717731761,1110.28565675852792082878,1101.47346145611481915694,1100.95363490198656108987,363.685751903627021874854,465.445914876625636225072,-761.707781030528622068232,-403.579921591038328188006,150.738405709017484923606
62.9175000000000039790393,-0.593394011731607107229536,-1.41627183981659010569842,0.153733024485553981808295,0.0278979295789499245894483,-0.0290616083183137252632378,-0.00634808139511620905803824,0.00167118073523021674377242,0.00212597098122624872038045,-0.0894403144522413345862688,0.995988174906507484074325,0.00809148726514448413116298,0.0437108612774622026786453,9.83469298051720564046718,0.00719167642859423056345136,0.00453648444276485724585557,-0.00412241734660330570033659,7.56225518459328593934288,2.15504381826444957326316,4.12650755455077256073082,1104.1549724740066267259,1111.65829255003495745768,1099.64272328809693135554,1099.90005104327565277345,326.142533694579981329298,511.456026627877065493522,-552.023484727023515006294,-369.995664210129575621977,150.736873447756977384415
62.9200000000000017053026,-0.958761618333896392663007,-1.50245056312603075809875,0.145468264233094696225024,0.0260652421076609276673341,-0.0331199190223049055870064,-0.0043942988278722295777956,0.00173299280546806598254928,0.00209330319005118043948488,-0.0894788333625777670965462,0.995984704280744925775082,0.00810120402443452458651763,0.0457706268846034408648293,9.8397095482506102825937,0.00714473060770097825877833,0.00462709830894305739618089,-0.00403665699256572623604411,7.56227684952479783930812,2.15505286285811292756875,4.12650197511487171198041,1104.82531607746091140143,1112.84293689166861440754,1098.71334403247828959138,1099.10365658093496676884,241.729053728833349623528,442.430757333834151268093,-222.691020983595706184133,-308.850327498347610344354,150.735624429924769174249
62.9224999999999994315658,-1.30993177424261952879192,-1.483637709245650082579,0.0628432866198795903045493,0.0233543234925035758653422,-0.0376968780194806146743858,-0.00288805357969162783404737,0.00178304247686099435858675,0.00205615155985479835729079,-0.0895180156379434960323138,0.995981195957840070853706,0.00813351675193303702560144,0.0475921818399410931355042,9.84512769511755259088659,0.00709745701817032000752183,0.00472086975944999587967432,-0.00394928318316126094472684,7.56229728008822466023275,2.15506218257548054495487,4.12649531585709361536374,1105.3636177426496942644,1113.87044633670211624121,1098.52926818317996549013,1098.3557994057853193226,225.962235965037422147361,371.275724421858456025802,101.740666006565120937921,-328.174481437522786109184,150.734408854782657272153
62.9250000000000042632564,-1.68857778700407323846377,-1.32664936087081652971165,-0.0967132180485643921930006,0.0191168841866351212066544,-0.0431162421404085449694321,-0.00216906315465263850594813,0.00181638860121200633804261,0.00201645534784367520125814,-0.0895516335320798995134339,0.99597821576120504349916,0.00814829885992382485504493,0.0490672431723510119039311,9.85099682375660812283513,0.00705066331617765565398237,0.00481687307646557968943135,-0.00385966066427146248934976,7.5623158288119949332895,2.15507133667983818980929,4.12648786818773682938399,1105.95512725728667646763,1114.69931551377885625698,1099.22204736251137546788,1097.46278417374651326099,228.187141394275073480458,210.415339713000918209218,398.428503199762303665921,-331.882811610115197709092,150.732994397755732052246
62.9275000000000019895197,-1.94849744988480177987356,-1.08955907896329562412063,-0.247915024097224850896382,0.0146014491684718222819228,-0.0468018696909630674274361,-0.00255196858423971254317686,0.00183602227620563592490333,0.00197225080886326850984624,-0.0895774103101431989903958,0.995975966196087525439395,0.00816674669100213301842217,0.0502517605316750506916357,9.85736584553616346227045,0.0070050646252592975449236,0.00491428631235229802093345,-0.00376682851005870258237485,7.56233267209711268463934,2.15508058634307930745422,4.12647944446025682907475,1106.50455344962165327161,1114.92252303526765899733,1100.52141069917979621096,1096.6963853477338943776,253.045334798528557485042,-26.4333980786672633200851,643.145650359741125612345,-311.599802365491655109508,150.731856785253626185295
62.9299999999999997157829,-2.12791364021523765615029,-0.765059286041538832989772,-0.374418567064531082611012,0.00924727236159565875450728,-0.0491643877889902866651362,-0.00378696226442738021963907,0.00184277628452076455006781,0.00192084965344060660911996,-0.089596047399968958835359,0.995974388937772125984793,0.00822738887046990663431956,0.051162589210623297952818,9.86428232207949662324609,0.00696107790282480751176131,0.00501237756826964850342954,-0.0036695452379235308885963,7.5623492060278039161858,2.15509000448858500931237,4.12647039436995388683727,1107.22035393127816860215,1114.56714852338564014644,1102.43777561430715650204,1095.90478516192047209188,322.499298659857799975725,-240.456323260300223410013,840.245986520064775504579,-315.963156822246901356266,150.730766638200009310822
62.9325000000000045474735,-2.22746132621784820315725,-0.391463238660947787650457,-0.450421568797776117332177,0.00365515662537562943668057,-0.0504414158394017875242099,-0.00567025400628808073921761,0.00183674333341113794719479,0.0018629949479130867608101,-0.0896077456299145536089412,0.995973466122936579303371,0.00830280791242789945050262,0.0517980351193361790440584,9.87178995938457148895395,0.00691875948468227350285353,0.0051103942066546090977619,-0.00356638515710840358491351,7.56236656364047643563708,2.15509925133394819596333,4.12646170505299014763523,1108.11704994292176706949,1113.72024141896554283448,1104.72264063178226933815,1095.1165695636218515574,400.768394364444759503385,-444.60166255071266050436,964.874116245989398521488,-302.665521861472143427818,150.729718811980404780115
62.9350000000000022737368,-2.22119111194014573484878,0.0128704680070717905615574,-0.439950796607074035016183,-0.00198085752379017002167139,-0.0505504984319151834393224,-0.00821268123780920580867537,0.00182534313574412025878158,0.00179856637317332918382662,-0.0896164725053961719325457,0.995972828234401807989684,0.00836981354329482257758954,0.0523035771558538684078421,9.87992599802372595263478,0.00687776859260200938012142,0.0052075354681167347267734,-0.00345593270522359750224206,7.56238459224797043845001,2.15510905141617081781646,4.12645387885298386976274,1109.22419590310141757072,1112.34414021063093969133,1107.26214619553957163589,1094.39145755261233716737,521.096760112251217833546,-691.653487804698329455277,1132.02904389748437097296,-283.422001873790065928915,150.728724693453614236205
62.9375,-2.08587512877408576272842,0.50166482312986415692535,-0.31841197618569083704898,-0.00893230811580093993218288,-0.0494701118801659234236467,-0.0110437513327453270400857,0.00181625458672898029005571,0.00173146234223373811193791,-0.0896261665935280116279671,0.995972101482959226714797,0.00832683271842066946577532,0.0528245876297435620894127,9.88871981541402433890653,0.00683753717441431055346079,0.00530298186915197002772038,-0.00333659495806365316919462,7.56240301456992458639661,2.1551202531453212962731,4.12644805877340203892345,1110.72253374348065335653,1110.26197397994519633357,1110.382785851264543453,1093.69945955425419015228,562.009719801002461281314,-796.558467479237037878192,1130.91295510713621297327,-205.8054690963529083092,150.727596157560554956945
62.9400000000000048316906,-1.86925617674888755459506,0.892933700293870757924708,-0.140542749238266040379131,-0.0147531061389666266064902,-0.0476211848385843516950899,-0.012144069727020602098011,0.00181078978160857011550644,0.00166807090523391301530032,-0.0896371758585315508982561,0.995971241597548351265345,0.00803644421168994010917785,0.0533783322310748611916331,9.89819217613748136841423,0.00679736112273510509340646,0.00539600872811196469874817,-0.00320637268780658802810879,7.56242168171219297789776,2.15513290832902004723337,4.12644541362302330611556,1112.03424450210786744719,1108.36134787323271666537,1112.91671097107814603078,1093.36243020713004625577,519.503253417822406845517,-739.324572544350417047099,976.163963457430213566113,-61.4538455773212533017613,150.726710294873328166432
62.9425000000000025579538,-1.5621056867163893855377,1.2491661209098170459697,0.0832745051559018040210347,-0.0198139762891421933321823,-0.0448990274620533758032082,-0.0114858156640871601761322,0.00180848660081602777977006,0.0016105350008384421243296,-0.0896458203967068489870229,0.995970576603639634605258,0.00745055257831679640379008,0.0539555301098870940257335,9.90835339838486817143348,0.0067563932845816285222007,0.00548612317737255054256318,-0.0030626617870960440997985,7.56244039729637496094483,2.15514697528374243873373,4.12644538234966962164663,1113.32005001057109438989,1106.56535111722155306779,1115.26360566855419165222,1093.39219032636742667819,544.970117293401017377619,-700.087478710929758562997,963.654361747752432165726,125.439657007951097966725,150.725881254985239365851
62.9450000000000002842171,-1.13040805411925604495593,1.61857646380905784155857,0.367977550612794690465535,-0.0241631148384853500221681,-0.0406689880085642913032373,-0.00967422090135713896863479,0.00179954542200599031630259,0.001559650476692863449793,-0.0896465767127236495825926,0.995970616863091295911659,0.00656727413422399791675943,0.0543648661104184013903584,9.91920241017995785171024,0.00671363650820689175646727,0.00557331460478852590278986,-0.00290177739772016704544733,7.56245876436419095512065,2.15516148321969325252212,4.12644577797661771256799,1114.75909508857239416102,1104.86091047968125167245,1117.73498277981252613245,1093.9896284921692313219,505.535703747050831680099,-507.561451365752475339832,826.2485703860659214115,331.228340364742734891479,150.724951076464208199468
62.9474999999999980104803,-0.758137299162362054971709,1.86665709285257830352123,0.603764449134786107542539,-0.0261874714151348574053824,-0.0365221728508269977142575,-0.00812987345052211367313344,0.00177304072144896050083895,0.00151528472276148064475099,-0.0896387552603645776372332,0.995971440673691921219302,0.00540797176110302535434471,0.0543924176131097489306221,9.93072393388804108838031,0.00666785286123118721424152,0.00565817669438497140160793,-0.00271886040055546729377056,7.56247702644813735162188,2.15517546077568233897637,4.12644462759028574083686,1115.84772852930404951621,1104.02754386039509881812,1119.39484852048076390929,1095.04833202818963400205,413.699154793600712309853,-176.248052996016554061498,549.174253732772854164068,557.516726799655202739814,150.724228309093547295561
62.9500000000000028421709,-0.421590778868733362383381,2.03983367295046047473761,0.832191829005435201871421,-0.0267463683029718346517711,-0.0321368586869333408562177,-0.00661334154212169129938292,0.00172498835503633604973595,0.00147702633275835644964535,-0.0896214207847606525447759,0.995973136518980339815243,0.0039909850636376947852213,0.0539598573193178568385697,9.94288597719623901127761,0.00661762050810999532396428,0.00574174807817085051248052,-0.00250808871167210612612708,7.56249560856670832720283,2.15518817718999589061468,4.12644065099142132169163,1116.82759086254145586281,1103.97967021470071813383,1120.48085404847779500415,1096.77721212616893353697,378.67676388385643804213,121.44510721789782792257,315.917964201637289534119,809.705771266676038067089,150.723557776562557819489
62.9525000000000005684342,-0.14460425743864677161632,2.13946730258034678584522,1.05187725257953967883395,-0.0264774654037872488043792,-0.027485471723810495081608,-0.00490756022714919273169931,0.00165720790496871428314207,0.00144444023400582357598287,-0.0895950968584595386356995,0.995975652637659747412613,0.00232857684725286395721611,0.0531015844841758524741415,9.95563931845600613712577,0.0065613777160278751940381,0.0058253915132822553166192,-0.00226305264475300206214459,7.56251512120060365162999,2.15519947657664800999555,4.12643402334320175128823,1117.74111234872430031828,1104.63476939648489860701,1120.97443834148975838616,1099.09686088452508556657,357.035102585957304199837,421.835433136195035785931,37.1808394679530280768631,1066.94747884086336853215,150.722929328139031213141
62.9549999999999982946974,0.0378545908200071945515219,2.13176316117853748011157,1.25222295892130741634674,-0.025825328367484801095344,-0.0221778579305809582511433,-0.00274911334648497707178194,0.00157505631626583711239753,0.00141901789078239170746598,-0.0895613054488949844600398,0.995978839564735318745647,0.00039229524456982356461765,0.0519167483920353681203785,9.96891770525525799939714,0.00649757719671750950951594,0.00591059664765887938370215,-0.00197719712998095827061196,7.562535366655171564787,2.15520961163564583884522,4.12642505072510079600079,1118.61276637546961865155,1106.08884738037977513159,1120.66675824581739107089,1102.1119495203683982254,382.227628920450115401763,786.158431902647635070025,-315.32384235772281044774,1463.82371913480392322526,150.722350822405132930726
62.957500000000003126388,0.134843516591963114015229,1.97351985204309121613164,1.44757762995251582083256,-0.0249493004978616345068687,-0.0150713336799658138148716,0.000811281811531317257821239,0.00148137951966241326016982,0.00140091781176796491802106,-0.0895200504063494023609948,0.995982692174407491236821,-0.00181154802766402001079626,0.0504555446368245216759441,9.98264000032266274331505,0.00642486827927031458468354,0.00599876883826991943310381,-0.00164429590548301521844843,7.56255588614302975969395,2.15521878284931966973659,4.12641353214503947555158,1119.65225049332752860209,1108.56556155600014790252,1119.39781912970033772581,1106.41597948020285002713,383.297391533901077309565,988.897191641166273257113,-585.350184001227489716257,1661.3183328977042947372,150.721714195449578710395
62.9600000000000008526513,0.113599625153372837949028,1.70773695852507834125333,1.54993581104790112412672,-0.0241164734114260037589617,-0.00920773875961047871818721,0.00470922653538268995432325,0.00137844841767308231780809,0.00139047832004281853197913,-0.0894719064870322655647072,0.995987157317209215179332,-0.00427578307968894122392811,0.0487548089090110922660948,9.99671135477429295690399,0.00634220758702616800583929,0.0060910643585402315589028,-0.00125893667693308011594489,7.56257604909334268938892,2.15522746222957817252563,4.12640021634779863290987,1120.52925333314010458707,1111.03333333858813603001,1117.74000732580975636665,1110.41854118486116931308,352.42216093229438911294,1016.53169881753137815394,-721.907745188283911375038,1638.08337050226145947818,150.721232177356370129928
62.9624999999999985789145,-0.00559151294798725106982573,1.31165732923692024414208,1.56276131389577610519837,-0.0233277850960767058063894,-0.00460106523367803752627703,0.00943344451683160098443004,0.00126965322931133677356041,0.0013905013304333637639415,-0.089416505890140468570948,0.995992262511294246252191,-0.00704123289127565887834947,0.0468682774360515488898393,10.0110250147382604524182,0.00624892498738315906037233,0.00618821899817440391339263,-0.000816958670068216306382747,7.56259554183016202699719,2.15523575043308035503742,4.12638640395272204841604,1121.41436129798739784746,1113.64822005008318228647,1115.78828040376220087637,1114.60639633270670856291,385.057594360372036135232,1129.9037315852860956511,-826.949436346271681941289,1823.40381664246183390787,150.720801884755474020494
62.9650000000000034106051,-0.240070186823283682198138,0.721567581521231016239426,1.45753094591115228695344,-0.0229946027368037250737665,-0.00129007181137046197591522,0.0152560150548590386931913,0.00116665473959101911177738,0.00140040120976240765014731,-0.0893587713020464607938109,0.995997549504977874867961,-0.0100941700739137912856691,0.0450199106003788332430737,10.0254651058283243969527,0.00614460511014952581732018,0.00629051848033139893862087,-0.000315932493261919750213856,7.56261463886420237656694,2.15524465739873960501427,4.12637394063246443209891,1122.4545413049429498642,1116.68285199651745642768,1113.60526014407628281333,1119.53556026807814305357,370.241358713512227041065,1070.29053307896720070858,-702.278273384949898172636,1750.72779644689512679179,150.720347892868517192255
62.9675000000000011368684,-0.48722934835104564355035,0.169710898257013326206888,1.27265566737109803163719,-0.0235363636200092117556348,-0.000439139529206862642279896,0.0195588305312236893085398,0.00107736013590568912613732,0.00141364712010193780723777,-0.0893048697485321618660947,0.996002460268770040130448,-0.0132932515223483926902759,0.0433703081554694044874587,10.0399122346434062080789,0.00602909844018335600718261,0.00639776404295968551677598,0.000244820680175838805911481,7.56263325111251294430303,2.15525491827555804036365,4.1263631888066063524434,1123.26556809155590599403,1118.99967271548075586907,1112.27688903683565513347,1123.36003531494566232141,301.866218290844585681043,876.564745608335783799703,-366.857192804733927005145,1436.6659779737681219558,150.720024029279869637321
62.9699999999999988631316,-0.75191851426491040921718,-0.402117886301619598121704,1.00983328079143808153617,-0.0251609448261671114766003,-0.00140805152762120476366003,0.0229370188509996561498916,0.00100241976129670173033259,0.00142538466620343532570425,-0.0892593137947798181963677,0.996006592913673216571624,-0.0165152297952224497157303,0.0419334294443103605676271,10.0542464918308986909778,0.00590252808254539650112402,0.00650931496611560807263874,0.000864404385603352457337345,7.56265157043098668054881,2.15526687857465892861342,4.12635460275366927618279,1123.96387239639580002404,1121.06567572455514891772,1111.77097418005428153265,1126.71889015794045008079,252.310523067633823757205,797.793676126867694620159,-47.5014850014061096317164,1254.83884862359832368384,150.719760175609906127647
62.9725000000000036948222,-1.00274284621405151973761,-0.964412561258237821526507,0.710410462885647575603798,-0.027616789826033428384422,-0.0036856620056795173258346,0.0253812616488390020708099,0.000938148504688281269052463,0.00143045234496371300239592,-0.0892226045753583690833821,0.996009913593235762796496,-0.0196209046432557071559799,0.0406387284191847206193948,10.0683508631786313713974,0.005765266753579240469052,0.00662420657380777440359498,0.00154037463374871925504694,7.56266914979307802724406,2.1552806704094664702609,4.12634833001310585842702,1124.52712070689472056984,1122.9886410961171350209,1112.03938161182850308251,1129.63422955806686331925,184.693955934422888276458,763.921524070629175184877,276.523346872494983017532,1062.30468647313728070003,150.719548585115745709118
62.9750000000000014210855,-1.20639224468211780916249,-1.49389997166262555872152,0.408510271020763315874547,-0.0308582362714103705658708,-0.00715068874021844089194921,0.0264280864940568682719402,0.000878754585061955082944674,0.00142437003047619242281085,-0.0891909703424458161213906,0.996012775900451119426293,-0.0224793899282046266696611,0.0393742507769033606157549,10.0821141438472636764345,0.00561786624776411305098867,0.00674133161863241670702651,0.00226884155995690089957506,7.56268569763185372067937,2.15529558392733155969268,4.12634500495929845698129,1124.88734217606838683423,1124.88528334491024907038,1113.15359091441746386408,1132.03041359030885359971,106.494217554933584324317,866.347173079444814902672,620.413402903587098080607,953.194841100415260370937,150.719402586520601516895
62.9774999999999991473487,-1.36675400828789150864395,-2.07512251176891560078275,0.0971981714075761948912202,-0.0355402694135986685353146,-0.0122905626491394987659378,0.0260990247909952746696582,0.000820466787112722711720891,0.00140747322522117614129744,-0.0891605177820768007856955,0.996015538024310642661874,-0.0250596230632148669892345,0.0380618295523227415100287,10.0954326456972438563753,0.00546086219282008490660818,0.00685964118796075945916346,0.00304463075100104086159747,7.56270115202769055429144,2.15531073482770674232256,4.12634584141598725892663,1125.05959179466890418553,1127.32037696151041927806,1115.14144862634361743403,1134.40020376356460474199,21.393675080060315707442,935.407790719385843658529,773.218163032074812690553,802.636079697184413817013,150.719305933248193696272
62.9800000000000039790393,-1.41877036265233691381127,-2.50585173724065102263125,-0.0885580109855473446289764,-0.0398784285884002456801234,-0.0174890039564181941356136,0.0249322011758460714003771,0.000765207999518739863387129,0.00137793025287782835291983,-0.0891303490522298014209213,0.996018290626929259090616,-0.0272977094603884806733873,0.036743700114386948496481,10.108213302569563296629,0.00529462185542540694771496,0.00697825494433506818281465,0.00386141476943794833068258,7.56271552941349245458014,2.15532576334715253452146,4.12635145520134294372383,1124.99431055146874314232,1129.56232229850957082817,1117.01968172957981551008,1136.04359398879682885308,-60.6477287978267511903141,936.011762849896967964014,725.184845919595431951166,607.424561320256884755509,150.719292389331627646243
62.9825000000000017053026,-1.38753772674116282459522,-2.86880500178010544587437,-0.178100055286902425599749,-0.0439083423995983226917339,-0.023743454279221167663172,0.0236061902558373018501392,0.000714387653942933687802042,0.00133577837497872138963761,-0.0890984748402415815959898,0.996021222619275503618042,-0.0291668193857474306041055,0.0354516107843482752848274,10.1203754796423570638808,0.00511927617301964447971141,0.00709634563109466393743263,0.00471223077167256046426935,7.56272943163464983484801,2.15534061451795144748189,4.12636288056771594057182,1124.75635315067961528257,1132.00043577576229836268,1118.76737285594344939454,1137.4373265701674426964,-127.119068924527823583048,1078.81389602573904085148,686.187451897500181985379,568.601793352871595743636,150.719349720824936866848
62.9849999999999994315658,-1.27314260895659447925254,-3.20717108141871865001349,-0.174505535988006832415209,-0.0476644235807623523060172,-0.0323275272685954184748169,0.022368096150790252318874,0.000661746271395592254756235,0.00128263304326379536102198,-0.0890630107541340448884526,0.99602451098256916672824,-0.0306590989147708381512558,0.0340627355171836468383795,10.1318527039620409624376,0.00493465637228085451937432,0.00721298034284102197732924,0.00559007340973954099799803,7.56274375855439995319784,2.15535487518964297137813,4.12638021127652265818142,1124.35871520684668212198,1134.95639177863336044538,1120.45061898906419628474,1138.88660295555860102468,-149.237187378972578244429,1041.77752988977226777934,538.829470942116017795342,496.991680919127645665867,150.719501351870405869704
62.9875000000000042632564,-1.13202418382364489168879,-3.39190862055734454472145,-0.0902711746424684630119017,-0.0499241301976961482367301,-0.040450878465950725060285,0.0217971196502292768881759,0.00061061476180411923628949,0.00121510527685324189878235,-0.0890300826412125240194584,0.996027601968408227151031,-0.0316850530260379542601967,0.0326580380455457133792585,10.1425918597916826513483,0.00474031050479638543099226,0.00732726327929263902133394,0.00648815287983923495718219,7.56275958413790583279024,2.15536931280736343552462,4.12640258458656727924563,1124.01016721378437068779,1137.20932342521382452105,1121.46152021065540793643,1139.92228497476435222779,-125.149258105311318445274,790.600382159805349147064,342.595066504561430065223,375.520160463373713355395,150.719696961562164005954
62.9900000000000019895197,-0.959174319122187202246721,-3.45731648685815029509172,0.0579432497462557816181317,-0.0516773697625409061950918,-0.0494351010463145307261001,0.0218114098486007108868012,0.00055925933093301362451083,0.00113511842608243849334082,-0.0890019062908299907199705,0.996030284765728413098884,-0.0322546679660501017794516,0.0312101620705556859203256,10.1525522767953280123265,0.00453578810303423025224179,0.00743803099540582806498135,0.00740070278687530742206535,7.56277711890029102903554,2.1553844952548821822802,4.12642895850000535062918,1123.73296891631980543025,1138.90939368943440967996,1122.16359432158787967637,1140.76420375787643024523,-87.828497891848954282068,540.982942580095368612092,256.835292785769354395597,299.756169268266376093379,150.719964207252559162953
62.9924999999999997157829,-0.763184123875210063125962,-3.416121237314380110206,0.242664648179012815143452,-0.05333972425986832632816,-0.0586198802181369313379911,0.0222679129595435877642107,0.000503263751744224266046479,0.00104953585459106077219793,-0.0889780077801226310096894,0.996032586076620596315934,-0.0324754692531778049735536,0.0296313867555048487956171,10.1617039907986832503184,0.00432087386957654903674175,0.00754392083701903824743962,0.00832329612319704023604139,7.56279586229462985613736,2.15540070854815235534829,4.12645853907081061606732,1123.57102472432552531245,1139.91423813811184118094,1122.74569667458308686037,1141.42106582110432100308,-27.4181016750249710867138,194.840687026717574781287,234.564015312906178678531,211.851304784641655487576,150.720290294111606499428
62.9950000000000045474735,-0.534397775437124078479201,-3.25020867161953974644462,0.452712065551815423525284,-0.0550816802218254686351884,-0.0673224813265920624116845,0.0232204143482652308749792,0.000442828243681572027851123,0.000959102232980258546067576,-0.0889580006760559011125267,0.996034529888988329204835,-0.0323430658333048598462867,0.027940402954110071798155,10.1700271228240737286797,0.00409596188697200144779309,0.00764365290169989781976501,0.00925282512179315466682716,7.56281498146860542419745,2.15541847656960516843583,4.1264896843083258559659,1123.59587840794461044425,1139.88359712456849592854,1123.33641439815301055205,1141.82346028180018038256,60.9014020600313799036485,-266.5028192531281661104,281.778353755581974837696,111.859853024258953269054,150.72068618973491993529
62.9975000000000022737368,-0.214309144834680359581469,-2.92826548353272109181944,0.712158702259368503462156,-0.0569660830536366166731987,-0.0766669213543501870677943,0.0248334143697650569504454,0.000378450483655316436380767,0.000864665781832483658006505,-0.08893936739573082839172,0.996036333971090592775965,-0.0318595935506781474666482,0.0261637383306559112572387,10.1775090172567885815624,0.0038621838342623639878104,0.00773613585113072741578089,0.0101876318206676301503233,7.56283312415378095039387,2.15543791658091521412643,4.12652098265828470857741,1123.87553173462583799846,1138.58172404184551851358,1124.15458844336171750911,1141.98036508622590190498,145.381107958105872057786,-667.244057868326535754022,315.161083187254178028525,0.597272101049927450766575,150.721239896369013422373
63,0.0896470299815558674394467,-2.58110611276931933844025,0.91900030040398883457442,-0.0578489030748411472981907,-0.0833789814090699077375746,0.0265355166650707852138424,0.000309865308401469443950332,0.0007669146882369848143568,-0.088915973792610528136926,0.996038542505564672424612,-0.0310271664359547949540996,0.0243142531867645561582947,10.1841421407327850090496,0.00362143650549611893427193,0.00782062349681998496275792,0.0111273017883153461926593,7.56284900624018252557335,2.15545826801908502190486,4.12655161351298360727924,1124.32278394773447871557,1136.54737683522989755147,1124.91221981408784813539,1141.82644664230542730365,221.177784442875775994253,-953.282732887704469249002,300.114496959878295001545,-120.301573900071460343497,150.721764904402448337351
63.0025000000000048316906,0.419594564514410905964326,-2.18397587915330637642342,1.09529492876516409971543,-0.0579255405095916581226234,-0.0889143860058338869611916,0.0286302650638618275125147,0.000240122721041777231754111,0.0006659291305933133986103,-0.0888841640258907078608885,0.996041479499174875478218,-0.0298473274587934683799162,0.0224726708278398870644033,10.1899216648480379632247,0.00337611409118670092316394,0.00789696868445942390390968,0.012072219921686701271657,7.562862246409085109633,2.15547904704676795972773,4.12658221164369631850377,1124.98142065684078261256,1133.81531037740455758467,1125.65516092816187665449,1141.37885721672523686721,332.62064138840548821463,-1270.58185286790399004531,297.574677254017501581984,-258.051684296747112057346,150.722353088116051367251
63.0050000000000025579538,0.815698828639366046999726,-1.68619921247863180369109,1.24148029358748912542865,-0.0570455103102853189334098,-0.0942060376084939421481579,0.0318360525629034149530661,0.000171284456144807400090543,0.000566072460153334310918594,-0.0888409767764975627502011,0.996045405581223231017418,-0.0284128724284625627793943,0.0206908295991495502774704,10.1948432244032325399985,0.00312873217066666868546587,0.0079655266908484328308715,0.013023276394875698408482,7.56287260913203862600085,2.15550012030805593354899,4.12661402369678054213864,1125.98588715467735710263,1130.19446757088712729455,1126.40009320035869677668,1140.53618822082103179127,397.589072187518070222723,-1313.03823870663381967461,236.603673237447395649724,-349.113697898700706900854,150.723128022708607431923
63.0075000000000002842171,1.11354534172702490657514,-1.27794872949808069328981,1.28350226911390730144547,-0.0548002230627486763836487,-0.0974354114997151715682477,0.0353632569557190343245701,0.000105047751456884157542603,0.000468258997359896644331612,-0.0887871031351257639085972,0.996050259198958287676362,-0.0267524555744379777255659,0.0190167790932768698830557,10.1989029541215607821414,0.00288173084690089781681466,0.00802714899811155999098666,0.0139815191654976654633824,7.56288093725284493729077,2.15552127213723609955309,4.12664799169828722114062,1126.96936601777656505874,1127.25011918387735931901,1126.83817929434803772892,1139.63328872723332096939,413.769137986458872546791,-1089.19797161842257082753,137.755878372888901139959,-381.897204057060548620939,150.723828114863295013492
63.0099999999999980104803,1.33282837167347678608564,-0.900511266978345048528354,1.21563593264459690601598,-0.0503609837187440415040562,-0.0994287518354463883962779,0.0396870183499771420065905,4.34244367956365217957326e-05,0.00036706610350507857089622,-0.0887288161885157744546149,0.996055482312987017223804,-0.0247729595089129922547144,0.0175125615331866227308844,10.2020970185568060628611,0.00263729765642235422506978,0.00808315417367789015856694,0.0149480214813488172798106,7.56288897839432738834375,2.15554273927220041429109,4.12668511378618063645263,1128.0547328446077699482,1124.74847771279996777594,1127.0888725922225148679,1138.62670220053746561462,486.2420805416845723812,-945.754530769516350119375,86.549641132252247643919,-434.59895438700692693601,150.724580450745577309135
63.0125000000000028421709,1.46850584912594417374976,-0.501154834560207262939002,0.995319603259601670686152,-0.0437400366072429047648029,-0.100671743049435685746218,0.0446776863439991844817456,-1.72851621660476780959707e-05,0.000261010445120330835788031,-0.0886708739506026771826086,0.996060648831231132405151,-0.0224564984164565689672699,0.0161136331339045979493818,10.2044198079840935378115,0.00239714341125354035363926,0.00813504079107025927786179,0.0159240770915615031944057,7.56289731402033371665539,2.15556426747410467825716,4.12672481150893144530301,1129.40057642048623165465,1122.52134653002735831251,1127.27092750000952037226,1137.46029395529717476165,487.9378075840809856345,-676.619779288438962794316,69.1946696953082920344968,-396.404349238379836606327,150.725539422304734671343
63.0150000000000005684342,1.47466101529032544981135,-0.217588186529133059687879,0.707493013114446900324594,-0.0385672941103552893715722,-0.101023920773464517819384,0.0478105705550230866696104,-7.82855047038078671363392e-05,0.000148494879180580867730765,-0.088616670578055251050742,0.996065456312559605045465,-0.0197925584459566761275084,0.0148023639559027621326326,10.2058641191536807468765,0.00216264944969181242828693,0.00818471766974817986628477,0.0169110727727437258616217,7.56290578794780987692548,2.15558561596264519621968,4.12676511474592899730851,1130.49442188252942287363,1121.36537881635604207986,1127.43484594069923332427,1136.64468045434455234499,415.986426143414064426906,-334.974768303013661352452,95.5600953623575719575456,-272.342902598595458130148,150.726382911106185247263
63.0174999999999982946974,1.40127916372111283038748,0.0192205609169956229131948,0.346768966213093388084587,-0.0345819107248960255773795,-0.10092006085349998489864,0.049441912888042650886522,-0.000139527847810462805790838,3.01060831997291727436545e-05,-0.0885655829151170137514271,0.99606996194333774496954,-0.0168216851387459065403363,0.0135788371475479979766376,10.2064216000926268890225,0.00193495313755008666208035,0.00823444266252448299481248,0.0179103862170566889566725,7.5629140999880677398437,2.15560645329143207860056,4.12680544170658780700478,1131.4805085512014102278,1120.84647268851381340937,1127.74872797682087366411,1136.09857944230543580488,366.377471094659938444238,-131.750003154071123390167,166.920318871558350792839,-169.637785688250545490519,150.727270246216164650832
63.020000000000003126388,1.30018610427463765510936,0.225981923794733446930749,-0.038326700145610535785945,-0.0316900890373331550753377,-0.100531568340407898021205,0.0497738703084218622740842,-0.000205459621505175733108262,-8.85600877872821424813959e-05,-0.0885125396719676077461614,0.996074617706227849467382,-0.0136817953552989535204176,0.0123388551875746217689755,10.2060840426000094538495,0.00171495277418267071806168,0.00828652787881006824832752,0.0189231747134557745648742,7.5629222539502523048327,2.15562546007879562992571,4.12684564364191963647954,1132.32630923800365962961,1120.70662880058534938144,1128.26944753505745211442,1135.79649152590286576014,296.785525955768264338985,-8.16700054896992355679686,270.702991871073891161359,-75.876571437045015500189,150.728192871102464778232
63.0225000000000008526513,1.21350874988791623820816,0.410303275725470761869929,-0.406762920993159637905734,-0.0297531158588638447448638,-0.0998035933010148479382906,0.0485701828045622119311986,-0.000275229599671716407879168,-0.000203321044516586557204113,-0.0884557132766448511729251,0.996079589271820942109059,-0.010494877217753828535507,0.0110837206845803837307329,10.2048455580410166732008,0.00150344687707700875624328,0.00834353181615456705733092,0.0199497848597134097570205,7.56292954982455967183341,2.15564257242081014354085,4.12688541885256299224238,1132.96443618098101069336,1120.80563768576894290163,1129.10224293617693547276,1135.71919658512001660711,230.069565217381807542552,47.5908344328196051264968,445.100684774156547973689,-20.9313938977365339155767,150.729157431630312657944
63.0249999999999985789145,1.17309319741228712530301,0.623666248725955219001094,-0.778080801203353544792662,-0.0277945016702176549150405,-0.0984747037819955484128087,0.0454791118811408434652321,-0.000345052878855235591482736,-0.000315399931001137138683599,-0.0883956896979761486132787,0.996084828557621149158763,-0.00728044674379305090106129,0.00988019334891768880035912,10.202705573484477596935,0.00130138026232558723545296,0.0084079277165772150354206,0.0209893531466075061731047,7.5629355849717114779196,2.15565877362469127120903,4.12692588106347546528241,1133.4766570640895224642,1120.94458297274923097575,1130.49495095892621066014,1135.69183455641427826777,147.865600482252204983524,27.2011486517246332539344,573.812120325080513794092,-35.928245760605740599658,150.73036344003259046076
63.0275000000000034106051,1.21051087193893036619841,0.806834646501752295044696,-1.00362021119059252605155,-0.0259655152395549156107979,-0.0969783373731610831569583,0.0418283383901226213374969,-0.000414762012110360400729547,-0.000420692338823834999662205,-0.0883287633233179464431473,0.996090668071914264736222,-0.00416044331820969448543224,0.0087099846604177660891466,10.1996701513829748364515,0.00110952368315116352281979,0.00848152394358649142080964,0.0220396106009592591956636,7.56293974244115130289856,2.155674098239176217362,4.12696886245718719266051,1133.70376418339265001123,1120.9416434290276356478,1131.9713035378038057388,1135.53955535631689599541,53.980028212453937896953,-42.4713899200252029686453,643.615441829695555497892,-130.43573031202561196551,150.731409543235713499598
63.0300000000000011368684,1.32450052364374859514839,1.00692989492832651876597,-1.13513790826552196655541,-0.0236178304481713674523036,-0.0952253184043067718578257,0.0379344111883560264342208,-0.000482979792154133872120192,-0.000519278385179645202672505,-0.0882527918090327129219119,0.996097304377370207362219,-0.00117374050320759315546582,0.00758540670206553357957091,10.1957556968227525118209,0.000928600476060346979347015,0.00856548549059085902179778,0.0230965942274170103754027,7.56294118023535677508562,2.15568884021127393779693,4.12701446529744941926765,1133.74655720515193024767,1120.73222602314899631892,1133.71302816807633462304,1135.03965590485381653707,-21.1185554642007602410558,-140.743221856965419647167,799.948636240378618822433,-334.451405799822566677904,150.732499614986494407276
63.0324999999999988631316,1.53488859570291857892244,1.27292522354772041914828,-1.20636642025618412432664,-0.0202040442177926632405516,-0.0928720591258511835031086,0.034102894843787444345562,-0.000544424023546806272987053,-0.000611193315048354592934621,-0.0881682774506196281771864,0.996104706070498502334942,0.00163425459185125021566165,0.00659778773906348134370425,10.1909906442343185517529,0.000758845792652719790434557,0.00866026421475475302602653,0.024154605435533976071083,7.56294007467298001756717,2.15570354133104880034466,4.12706401148153645408456,1133.59817140607174223987,1120.23792731974344860646,1135.97104671900206085411,1133.86729832731930400769,-89.9659643869193956788877,-213.920085796489416907207,827.314824634763340327481,-533.264819563464698148891,150.733859702535823998915
63.0350000000000036948222,1.75181665449676926549216,1.51219168473880016811961,-1.22167012450138501300501,-0.0167986042055158976693541,-0.0903158184622654819362353,0.0318280143188703970591469,-0.000595063960036259424583871,-0.000696142132421115377230447,-0.0880764015965632973692578,0.996112780788957263844452,0.00421658465245734748183537,0.00581402667614514673255499,10.1854178289051375827512,0.000599745183942687522943293,0.00876522167106904594169325,0.0252064180297470949443372,7.56293758548750449932641,2.15571833889309560916558,4.12711927035128489649196,1133.29672738321710312448,1119.66262559416600197437,1137.84960229125226760516,1132.37333180703512880427,-165.271084844113858025594,-251.175867024866164456398,709.393836036270840850193,-692.073031039318038892816,150.735036524089309750707
63.0375000000000014210855,1.97964944116539842688951,1.75229920922835380459048,-1.22250260970590041154082,-0.0125059296048242157145536,-0.086582090542591222392943,0.0301628760696445799571741,-0.000621583770574966670494077,-0.000779243864474957973614844,-0.0879905452712859414976521,0.996120342914985079652013,0.00662308820942204834469891,0.00550050362365825037946898,10.1790960070289209227212,0.000449862231981843602949406,0.00887913383902368645583802,0.0262434198432739823614313,7.562935635192219230305,2.15573502020308316318165,4.12718144972535316838957,1132.77181598185075017682,1118.98204798461847531144,1139.51801589918522950029,1130.40693317212094370916,-254.576721034804506871296,-281.451536245896420496138,599.718371810740563887521,-841.451210487995467701694,150.736257508801315907476
63.0399999999999991473487,2.18791471052579167277941,1.97378202068169272820342,-1.2231593682294916725084,-0.0071300532770777790350647,-0.0818396435740623151566808,0.0285321141177958120804803,-0.000617600862940135739674596,-0.000862318326717806393766352,-0.0879217262144625782971374,0.996126410609095125359147,0.00885460343280611295035953,0.00578152696614056202384369,10.1721001427683912510247,0.000306709626826874158945363,0.00899945375581441726897669,0.0272564789791482353642493,7.56293543003415269510015,2.15575496272805411379636,4.12725118678505609182139,1132.02384377804423820635,1118.25536791293779970147,1140.84819415030324307736,1128.16607575459897816472,-359.510767743220412739902,-295.880089074883983357722,415.292804524612051864096,-924.671525619423732678115,150.737513694681297238276
63.0425000000000039790393,2.33996295895884287574518,2.15027690164523832550003,-1.21847256173129836476221,-0.000656987889168463511622986,-0.0763462481529694619863946,0.0263533857493412869421601,-0.000584167737983512427163424,-0.000945748506778173298435719,-0.0878768452158141533114843,0.99613036630572826535257,0.0109026719135936756011063,0.00663401174166586282687774,10.1645211205871852655491,0.000167026569088025994428218,0.00912257559422425048922811,0.0282366749644811128316935,7.56293834208477555591799,2.15577834386415112533086,4.12732922586264017184021,1130.9742621431337283866,1117.50264753924329852453,1141.59447992180935216311,1125.78357554402145979111,-530.305483603935272185481,-333.167547987488944727374,162.87132979947125477338,-1029.75795973763592883188,150.738809697051749481034
63.0450000000000017053026,2.43047820636817402117913,2.28968885738574012833624,-1.18075461787277791181339,0.00737944924496545910652667,-0.069533803778531591555101,0.0226209175280026909826692,-0.000524942332281373778661571,-0.00102901437489709532586979,-0.0878572539693319859432918,0.996132085692140401000927,0.0127523732212908441630006,0.00798727908708721928698893,10.1564639507249410144141,2.71449460353511308875838e-05,0.00924455122561707379191809,0.0291760365711850148950912,7.56294464874744676308183,2.1558046193850377569845,4.12741417844991342889216,1129.37231636002320556145,1116.58953017299950261076,1141.66255079930101601349,1123.01728595590816439653,-634.149983020492186369665,-333.038047551493093578756,-120.332211339037101538452,-965.382604371839420309698,150.740406363695257141444
63.0474999999999994315658,2.42402030566088866336827,2.337029449164022221197,-1.10007624947182924834976,0.0137213471164825823178646,-0.0637425259439504815484057,0.0186676565730171072077237,-0.000445881640258480749922088,-0.00110673231409628806953815,-0.087861412759272006223199,0.996131705458015659360171,0.0143017556613989002545217,0.0097219199681736374885066,10.1480447169254084371914,-0.000116847838166723704271706,0.00936157888180468890360064,0.0300683172069258208836118,7.56295361631877405272917,2.15583313413159904925465,4.12750412793526866295224,1127.80351222803415112139,1115.83745730148734764953,1140.99281886511471384438,1120.9566625221666527068,-653.483777682670165631862,-289.851322004221344741381,-409.362106854968942570849,-744.485607605366794814472,150.741767295600283205204
63.0500000000000042632564,2.33903844039279062982928,2.30797008028944539148597,-0.953804239444354662325054,0.0192420789710228759550326,-0.0579107266784298496675731,0.0145795488526410544488643,-0.000356623537266253327546184,-0.00117602359464230306167198,-0.0878813004264185210212545,0.99612992926347354583072,0.0155134455426824829915589,0.0116550581186626520113769,10.1393879138092959379946,-0.000268174205025747340157966,0.00947035945706833567903082,0.0309095662406283777645655,7.56296405243422142916643,2.15586259865318385919863,4.12759721414968439034965,1126.10489747160818296834,1115.14027356297765436466,1139.61574026502512424486,1119.29485791787942616793,-743.84231101055922863452,-273.220834607851713826676,-740.739532049777494648879,-624.400028461694773795898,150.743153916964189420469
63.0525000000000019895197,2.15759483362270376716197,2.18473779710978632806473,-0.715859019221989134607043,0.0249954118668345159903765,-0.0512867476027915325520468,0.0108798937086465770385235,-0.000262111210716752137100255,-0.00123896207490939436191013,-0.0879098396726115532961998,0.996127374933482578889254,0.0164477047157549072231575,0.0137119743884576081316418,10.1306218782316665993903,-0.000429042326628497282768604,0.00956887051647725694891733,0.0316982419573696300174603,7.5629742811558671178318,2.15589187461632958431323,4.12769023401418433394383,1124.08430067297945242899,1114.47135312844739019056,1137.28912120486393177998,1117.83466237985658153775,-713.480160050370159297017,-195.774583236148629339368,-937.794600706672781598172,-449.074147560030780823581,150.744840479093426210966
63.0549999999999997157829,1.94287618287571084429999,2.01125808525947924465527,-0.494806618997260860837173,0.0295943318863046422872998,-0.0461206127526115824966091,0.00967582332301772547744623,-0.000165220111024464246830823,-0.0012970203164548806031714,-0.0879433996610576446117946,0.996124360096169558786983,0.0171533337370562977142185,0.0158610419048403408770476,10.121873688665466772818,-0.00060085444572189488938313,0.00965625745923624941025043,0.0324351724841636726570648,7.56298334835105823259482,2.15592050708355476018596,4.12778112151407494678779,1122.5374966713595767942,1114.16140064679780152801,1134.92676726149602473015,1117.04948718008131436363,-566.330590640910941147013,-45.1542288138394738439274,-997.861338916835620693746,-240.358250196427263745136,150.746259804684342498149
63.0575000000000045474735,1.65751480095311243267986,1.76989674072471059318445,-0.291851953890427062709989,0.0344025434606156713113201,-0.0411766422314293195627855,0.0103488502063849765327808,-7.22368779268881336386166e-05,-0.00134928535942521092907964,-0.0879756149796151465380945,0.99612144778331057626275,0.0176404421035499733849683,0.0179990768626785563322201,10.1132647287707282401925,-0.000784189796644617158859203,0.0097323815490657095833571,0.0331232291286726460155521,7.5629914996632541246413,2.15594798854003544263946,4.12787064925807634097055,1121.25264771977344935294,1114.24558198437807732262,1132.29981451027720140701,1116.63287112887383045745,-458.629022375491331331432,114.557584139206994677807,-1070.14011222140470636077,-122.963520016520149624739,150.747687814158837227296
63.0600000000000022737368,1.3106510522251502148805,1.47979405128107188716058,-0.124268274752332083532558,0.0391459684629872836647557,-0.0366300878461994910972876,0.0116465630846125153124992,1.2510068140065557732582e-05,-0.00139412421640395579360006,-0.088000393993360695454875,0.996119180811751991910796,0.0179028455185302054486485,0.0200605155413277821963014,10.1049060940154227239418,-0.000978854847742525622719678,0.00979798454486641157146209,0.0337666990515002943262779,7.5629987014095290120963,2.15597448652346912467692,4.12796001532085377050407,1120.24435155948094688938,1114.73418856749412952922,1129.57606670038626361929,1116.43466957999839905824,-329.897699026496297847189,298.198939512665845086303,-1087.91235993002192117274,-48.8594443237605986496419,150.749118953846164004062
63.0625,0.898775486486868668833949,1.14808493702532765645685,0.00168831953218788466397626,0.0429332478050801144564552,-0.033167534026683272163627,0.0125394189406194817015816,8.95504819067661280308085e-05,-0.0014301537316722685421605,-0.0880147504500905092372776,0.996117830113244173695364,0.0179306841116280146763984,0.0220751964594587263279735,10.096894466161048242725,-0.00118394902824997495446868,0.00985469724042804459673839,0.0343708398873686579721998,7.56300458024854194150066,2.15600032499275950925721,4.12805036832428928761374,1119.60315922464246796153,1115.73657668194005054829,1126.86025271063203945232,1116.38857390725524965092,-196.01202564048412568809,544.741179640726500110759,-1169.03437689310749192373,-9.94353669434022435780207,150.750549162294419147656
63.0650000000000048316906,0.364101740638353765788793,0.733395827785292997447186,0.132919730237528288530058,0.0451646236558824673568147,-0.0305461072151307737321257,0.0125544691434587331324568,0.000159929921359478003630925,-0.00145633428778177529024085,-0.0880156481167164578272022,0.996117673457013297344531,0.017718743746909806913159,0.0240796679559330331632516,10.0893091104459706741636,-0.00139785320096581528598323,0.00990459068096835766603636,0.0349417684683308235604748,7.563008611143838599844,2.15602567885177354156667,4.12814240541866972478147,1119.26429143127802490199,1117.45789446569915526197,1123.73089481591773619584,1116.38495189652667249902,-54.4188396507883140884587,691.594963549197018437553,-1114.31063116931295553513,-6.19834289559231699229258,150.752258527496110218635
63.0675000000000025579538,-0.0789872812018914544074377,0.398918594066270115749973,0.252482605385928593477729,0.0447844652034379286931198,-0.0294949921587090192753866,0.0116502261561052256055859,0.000227712178233536441168336,-0.00147876869567193096506597,-0.0880054764863911903605143,0.996118499252894751272436,0.0173968906882402685187827,0.0261774235414977199387643,10.0822097240555770270021,-0.0016180194945131559560586,0.00995022765583373353104335,0.0354863634315017162368378,7.56301038697105454389202,2.15605082443441364858927,4.12823497023492880231288,1119.33106502638838719577,1119.19455149968780460767,1121.28869955478262454562,1116.35758219277727221197,97.0145745187865173875252,713.859604995663062254607,-934.433539303685734012106,-26.6730956317830276702807,150.753673214252330581076
63.0700000000000002842171,-0.480125129335423117549198,0.102269583322810969638894,0.401802676197475561181705,0.0424221801363683648222747,-0.0293357135399258082963936,0.0105165275228156634979015,0.000298450714436700897426447,-0.00150760122569220875177187,-0.0879924761598210175561618,0.996119570000034038059766,0.0171690575625359637124134,0.0285013238136545346557149,10.075634564436233731044,-0.00184136842237864499158273,0.0099944195468365387702292,0.0360122313252077760892256,7.56301043079447765649093,2.15607647065981122835865,4.12832700680684894223305,1119.74936430387151631294,1121.02719249067422424559,1119.05872711940355657134,1116.25158641836787865032,264.96550456933158557149,771.405823427559312222002,-926.307284244036281961598,-72.7133027820607082958304,150.755073191174204794152
63.0724999999999980104803,-0.892967230659575950113549,-0.187294778651243443157171,0.603016367861686441997904,0.0385488543899468391606966,-0.0299009467951042197386702,0.010708363097346492234796,0.000366893423839515973004788,-0.00155037484529630255163102,-0.0879805481920165610709716,0.996120528273043204237069,0.0172018218559977162374075,0.0309556432189127747611757,10.0696003128662923131742,-0.00206468752256149488955028,0.0100392710555583554443704,0.0365277343839784940371374,7.56300891796003504907731,2.15610225684305811810759,4.1284171675602285844775,1120.65589254923384032736,1123.05158061682209336141,1116.65716313356665523315,1115.99401567886729935708,399.616365791621490188845,673.508390802791041096498,-830.467893292537041816104,-120.363334013820619361468,150.756731477580103728542
63.0750000000000028421709,-1.18836297214978681147102,-0.362083562489526666894335,0.75882263739752164877217,0.0354744141087702039016882,-0.0308663344861288928278054,0.0128783076712699982163679,0.000433249354962760165575764,-0.0016129252605774370941949,-0.0879733696884871102517067,0.996121034324032539331029,0.017613293543570607280202,0.0335435059940640059594763,10.0641009517463420053218,-0.00228494687751622932436746,0.0100873005285698948835238,0.0370412631249381549269906,7.56300551466838477665533,2.15612844366426870124087,4.12850407826777843212085,1121.74744613283064609277,1124.3947344446899023751,1114.9063876529387471237,1115.64976974829846767534,501.97990028561218878167,428.788673760490212316654,-641.159583271418682670628,-167.701524546333217813299,150.7580924143352945066
63.0775000000000005684342,-1.4619760011844264990799,-0.460203832490251762976641,0.86209921391890820263626,0.0329664804046836540374343,-0.0321930840235954418560027,0.0163313413355185704789463,0.000495221567943122551944124,-0.00169556769092055800024488,-0.0879688157281034721624025,0.996121271436274602351091,0.0184118069572760389984722,0.0362007947639762794889151,10.0591095355705988367845,-0.00249961866669221825093539,0.0101408543277732091092425,0.0375607892948889438011761,7.56300000364126479013294,2.15615478016780182102252,4.12858725182912866813467,1123.1657920506631853641,1125.19552398562564121676,1113.45136521720792188717,1115.15550805613520424231,612.143937820485120937519,215.009490007619206153322,-525.894257238838576995477,-222.764818372227409781772,150.759428751610244034964
63.0799999999999982946974,-1.73948515474860410101599,-0.493090677685420419873452,0.904048841655124335581206,0.0306480356800671212280651,-0.0336238919431917568370061,0.0198539645205549931950006,0.000547848851321256630209078,-0.00179347096899961288771208,-0.0879628345111724690985611,0.996121604438138907866573,0.0195044218189870111057616,0.0387934959597661388475132,10.0545807660145687378872,-0.00270696819268509501071884,0.0102020334942056339899707,0.0380931450352776576617764,7.5629926762542298845915,2.15618071871197614086668,4.12866772677589288775835,1124.80816582193028807524,1125.46978189472702069907,1112.27691636674694564135,1114.53594565643834357616,690.608358386281452112598,-17.7540854067865545573568,-391.631560700379566242191,-275.056171023329852687311,150.760743032833914867297
63.082500000000003126388,-2.03173889454860256975621,-0.449893879955573394724411,0.87263344865703074137997,0.0278456114770588188112033,-0.0349114867049900648443561,0.022955040252354751151298,0.000590878086187229096225282,-0.00190301442736932500607305,-0.0879526040921668750272033,0.996122286710860227465503,0.0208121244136554722770072,0.0412768015114173894564153,10.050454116279665228717,-0.00290591428563440968071974,0.0102731806788121937668024,0.0386432057074424586962103,7.56298359088568172836631,2.15620617273983405937088,4.12874693397544767492491,1126.61883384259635931812,1125.10675355859166302253,1111.4932074137050221907,1113.78022720101785125735,800.678961373250444921723,-286.967041472770290511107,-239.547099350025064268266,-355.621697116248412839923,150.762029265792648402567
63.0850000000000008526513,-2.38044620560406627873817,-0.317485764986430218925761,0.773790456508805180035893,0.0229485557069989687395406,-0.0360600458724820716049919,0.025829565989814506909994,0.000621710729106975026198034,-0.002016168508396443039693,-0.0879351024525432539702408,0.996123600861482660917545,0.0221711499419759983098288,0.0435448749329043205413825,10.0466582206741428251462,-0.00309656419163375834155416,0.0103561797012926247452125,0.0392135119972444184943683,7.5629732709948127578059,2.15623048395142369315636,4.12882702670930079591471,1128.81156062879858836823,1124.03494668736243511376,1111.07918086999620754796,1112.75783717085619173304,780.088597561671235780523,-474.508095197711099899607,-54.2373007695498330349437,-384.286572631194133009558,150.76353914041038706273
63.0874999999999985789145,-2.63455321591550051252284,-0.146651688529693152718281,0.667723967012755381666977,0.0171546846568644793806779,-0.0364964951810356971750871,0.0273319679097051258798157,0.000642335855569930612093965,-0.00212486606456809912560346,-0.0879102669010512899339105,0.996125568324730426006397,0.0234093922505849497128771,0.0455782285855755309178505,10.043114897406766772292,-0.00328012251139391799656386,0.0104528122607049599179785,0.0398039132324094144244064,7.56296289443200908664267,2.15625400298829417167212,4.12891082493489491866967,1130.51927683040116789925,1122.73421308260526529921,1111.22202090985751965491,1111.85879433786362824321,630.600515331202814195422,-572.440192898400709964335,164.6873528618538102819,-353.025370587103168418253,150.764769002257281726997
63.0900000000000034106051,-2.79773756987008459518051,0.0801037985174054972814517,0.571069287539731296199363,0.00961485830815312671193684,-0.0364720838815336956262314,0.0280881292956695789719834,0.000656732501717514037531398,-0.00222526183594700223758456,-0.0878810794864022526429181,0.996127932525212256287261,0.0244375299007254936922706,0.0474006633838501487132611,10.0397442363343607496518,-0.00345853198204370453419654,0.0105644216701003927638691,0.0404117746550661724458386,7.56295353520376512079793,2.15627756919636981436383,4.12900013086685291341382,1131.96456320545621565543,1121.17274572286896727746,1111.9026176343058978091,1110.99271031791977293324,556.083218570199505847995,-714.867290689378819479316,419.437733753206032361049,-350.062214367747458254598,150.765969549026664253688
63.0925000000000011368684,-2.835966922557793257198,0.411433734308048026928617,0.495322790673243362746803,-0.00066305627866524113975949,-0.0358300959645454497604078,0.0285887513219463748614935,0.000659700086425322345697053,-0.00231101037873697717078825,-0.0878474413086861999344634,0.996130716407080063490298,0.0251361069098836042989831,0.0488465655289268899097443,10.0364697642643516672933,-0.00363463637614545214196693,0.0106909287749061259614747,0.0410326539644586471555776,7.56294609488190516799477,2.15630170460623959982627,4.12909568932502857308009,1133.29969292325358765083,1119.15987662915654254903,1113.31920957862462273624,1110.10848326602399538388,418.698481894006079073733,-744.576385727118235990929,607.160105996951756424096,-280.391262558196444842906,150.767376957830890660262
63.0949999999999988631316,-2.71841354264348789016026,0.733354671276181591110799,0.476014903279713408323914,-0.00924975961486475956041531,-0.0348965253544440759392309,0.0289375759831139722777493,0.000645573977445005340106143,-0.00238114753120897580315751,-0.0878064099350599480686697,0.996134182892245756413274,0.0254987804742178233996519,0.0497512064627028197105751,10.0332215345942916684407,-0.00381132636755621883109524,0.0108315887835990724147317,0.0416608069862614907585829,7.56294022878410565624563,2.15632617349993127575658,4.12919655423518250358939,1134.05805561492434208049,1117.44986379423676225997,1114.93841816428789570637,1109.59075400513006570691,232.375232945532189887672,-679.490061424592340699746,713.849945364971517847152,-142.561195875414171041484,150.768522717634738228298
63.0975000000000036948222,-2.45581042709222607811625,1.0950192358835733053013,0.50032309811129838106325,-0.0166861654776239085040679,-0.0335499927750453549868404,0.0294052978545737593585319,0.000608070019084082998180041,-0.00243432020732492438927497,-0.08775401060991808166456,0.996138691465968562077649,0.0255175722317917408332733,0.0499392075508964874974716,10.0299384212925879467093,-0.00399170745699191278216267,0.0109849822749183301945353,0.0422898055926467786314049,7.56293564784508998144474,2.15635061079446810339277,4.12930181946725483044247,1134.46156908798184304032,1115.76242632203184257378,1116.88845930545130613609,1109.39567728664655987814,106.238022519792352227341,-667.338337444811827481317,809.446317099031716679747,-14.8256219752435391967538,150.769641251466197218178
63.1000000000000014210855,-2.101097411273713078117,1.47614945762375526783217,0.549748776446756903801827,-0.022691224054547046856678,-0.0314491247333257770146808,0.0301018719763107567288785,0.000542559211121221600035436,-0.0024652820662814144483943,-0.0876874473120474867693375,0.99614450625262873639798,0.0251088039320432609979861,0.0492655278047423803022831,10.0265692842431324294239,-0.00417916953971978616388938,0.0111491744433292912230815,0.0429129884374766304433457,7.56293231957604561443986,2.15637478008877003787802,4.12941145327382574947706,1134.58924572752357562422,1114.1131721070109961147,1118.98564974978512509551,1109.51662589525381008571,-12.4293807741764155139208,-647.538905984445136709837,837.709060830036605693749,127.912126276376426403658,150.770737966093321347216
63.1024999999999991473487,-1.68294832781065673010801,1.85083259200591965232263,0.606559726104575647198658,-0.0268321329721935113166165,-0.0279490284705267641451876,0.0312939236795549829972529,0.000455521981668882431498746,-0.00247464257143862123577982,-0.0876097851452393577842415,0.996151348166942951500857,0.0242905072367644442321577,0.0478226087419523285260148,10.023073113659343391646,-0.00437647328493749945832469,0.0113225407249090293665406,0.0435237373930194709759078,7.56292978917790570392299,2.15639919939730662079569,4.12952474991276563542897,1134.39942218411101748643,1112.52473179211256137933,1121.07700460959767951863,1110.03523791802786035987,-154.900635072329237118538,-678.536351222254211279505,869.373578050964169960935,312.738844919134919564385,150.771809401903027492153
63.1050000000000039790393,-1.16974249010384334646062,2.24074191973943914746314,0.646930185352116549069024,-0.0298033055202349926593453,-0.0218697819525518546979193,0.0335368522595463069979616,0.000356688089356054047630168,-0.00246198622879168242325032,-0.0875247009823419824803281,0.996158886750374783503048,0.0230587574375687720529271,0.0457733139081876044818031,10.0194195357943591773164,-0.00458592788040208636235473,0.0115031124992658988215322,0.0441159880804495654893493,7.56292727444418666493675,2.1564250637231738849664,4.1296418736815647676508,1133.81474255216153324,1110.72049035089798962872,1123.33251764004216965986,1111.08032011985028475465,-271.731914951075964381744,-635.946839315140323378728,751.144990631771634070901,441.195683103434760141681,150.77306737466449249041
63.1075000000000017053026,-0.768534567294619996857818,2.47526487554772733901132,0.632128178346643476714917,-0.0309918517133595701473769,-0.015303933449668025504331,0.0360849088738848869373221,0.000252275912858398348222883,-0.00242500194981376104158555,-0.0874357199216187069845674,0.996166814282100077093673,0.0213813519786028444213954,0.0432158745680111186504568,10.015588677102870818203,-0.00480928777734162052337474,0.0116880662886454395749114,0.0446847347574780978662901,7.56292408057352272265916,2.15645313006181815751461,4.12976313898927482881618,1133.04076260935494246951,1109.34499759553523290379,1124.83272956275845899654,1112.24121633354616278666,-363.303850833529679675848,-507.938342315772331403423,489.297656209045555897319,504.468340683665189772,150.774093733306841613739
63.1099999999999994315658,-0.419755420052260019847523,2.57702037881521217599357,0.548635873951658914471352,-0.0313616201841504793623727,-0.00763127460740761678209543,0.0388662858743943420702927,0.000149937522845087372637407,-0.00236837335412197437164994,-0.0873465064721060530095187,0.996174795782592936710387,0.0193652624083556698653119,0.0402992235627492173533071,10.0115694688029339687318,-0.00504700861340239698149546,0.0118743975411756148147235,0.0452263605222507150682709,7.56292012958036252712191,2.15648347260692041515995,4.12988779797787941561182,1131.99822329799553699559,1108.18079863932143780403,1125.77900592108517230372,1113.60266182326631678734,-509.265232749170138504269,-441.369311416385016855202,266.831114029446268887114,619.652286513929993816419,150.775098816730121598084
63.1125000000000042632564,-0.0675768527048246636645956,2.52774448219978875584957,0.372947569918634425079063,-0.0313154940696871025851422,0.00178529245405891130206444,0.0412951285300042839065959,5.68976240330364545368623e-05,-0.00230130152134686146933595,-0.0872624171217889210705465,0.996182340311318692549492,0.0172086637936666661530261,0.0371818234362669905457288,10.0073575115134563162655,-0.0052985294648430266567507,0.0120589616747152073017446,0.045739018864703842592867,7.56291544635680690333857,2.15651617684268881447451,4.13001434295600322599284,1130.49443644560778921004,1107.13815103845217890921,1126.16688513290637274622,1115.33947776611739755026,-582.748115966589693925926,-308.225958948584434438089,15.6834368673491351131588,635.79788383071206681052,150.776282206630384052914
63.1150000000000019895197,0.177933012588951111609958,2.35454904419914035074157,0.182758142281649965665835,-0.0310507262025380946501851,0.00892257196670893579226735,0.042052148014144502541356,-2.59928381473662739576357e-05,-0.00222963531653310939595336,-0.0871891031756065193469851,0.996188940970815339781552,0.0150529216944760291241323,0.0338997826042539418534005,10.0029524264632296848276,-0.00556297264097154169765203,0.0122381297474611731856964,0.0462229232848917828690993,7.56291070931865583304443,2.15655137615781100635104,4.13014150822468728563308,1129.08448271816109809151,1106.63966884457772721362,1125.8574231054219580983,1116.78165124242150341161,-582.409494713221988604346,-109.923562510275516501679,-238.731209549349586040989,556.689092485254832354258,150.777250900339936379169
63.1174999999999997157829,0.388776710552362014805539,2.08213761297975086250744,-0.0217286263176888309878176,-0.0305901997665198668863162,0.0144353309999759871207203,0.0418509173895505667828409,-0.000104031851726744533096977,-0.00215854799492649906955677,-0.0871245642471886461155606,0.996194760867568640527736,0.0130347971643532678509558,0.0303773195315347258049776,9.99835509668872823851871,-0.00583874005086818231163859,0.0124081563059523312247956,0.0466803707572607737286141,7.56290611133460366488634,2.15658767637038373266023,4.13026777914445819561706,1127.58238897204432760191,1106.58853322590130119352,1124.97322908516071038321,1118.12292322854113990616,-666.080543738940264120174,85.9574377973800949348515,-480.425430172844926346443,550.595728540102072656737,150.778203304836807774336
63.1200000000000045474735,0.61826949828097421679729,1.70031272001836319951451,-0.25064127905593941436635,-0.0296813835224694448633453,0.0189642731027080506389648,0.0408825679458536886401454,-0.00017812940341137246469741,-0.00209598529578148380300706,-0.0870688674604948170676622,0.996199776265864755941948,0.0113342383128929719005029,0.0266408674121223765229871,9.99356429248783406649181,-0.00612346856265197619223484,0.0125662618046974965818618,0.0471152929331556599712449,7.56290103185373663308155,2.156624656214447988134,4.13039101266021102532022,1125.75407999946469317365,1107.06945603356484753022,1123.45529595455650451186,1119.53462988512342235481,-664.280630182135041650326,263.046074856858524526615,-592.106963052235187205952,478.484965908392837263818,150.779329606673940133987
63.1225000000000022737368,0.796988158783298872300804,1.37609400019160177386368,-0.40956090599921912698278,-0.0284742981799022965017087,0.0214275680455840548954694,0.0394973014832794636075342,-0.000247919490609187481017228,-0.00204565500319108493909592,-0.0870203435695868360300054,0.996204126959243652095211,0.0100392263970592310329266,0.0227443729778127393115206,9.98857437555943228346678,-0.00641452485324029569868642,0.0127104204549929131889963,0.0475327870620928447098485,7.56289491568370486618278,2.15666204535327254987465,4.13051022426963410083545,1124.26098582113195334387,1107.90376360018626655801,1122.0126942698980201385,1120.51534805808432793128,-581.929171362600641259633,409.240801827408404278685,-563.230183477174477957305,351.739783544373267432093,150.780256084956846507339
63.125,0.963297091110469905217428,1.07586794109746586300957,-0.522971245179147947723663,-0.0266632182942168269312866,0.0232351146433482542985605,0.0380232484170306764270642,-0.00031370217746405697168896,-0.0020086350192063716704749,-0.0869755653508212100977204,0.996208114038408920620782,0.00918022018770182912650313,0.0187322579145580286885675,9.98337434266800549664822,-0.00670887932180998930453697,0.0128391909879776496689052,0.04793847433257527462791,7.56288683071284051351313,2.15669907140023742186941,4.13062491747878279824135,1122.8444341426543360285,1109.11566004270002849807,1120.63914503717319348652,1121.29332880284368911816,-551.14078552004684752319,528.385432826010173812392,-506.667448101384252368007,282.140792459305259853863,150.781172122675002356118
63.1275000000000048316906,1.11466014719704187285743,0.803160707395347395198826,-0.595575105994039843970711,-0.0243774937512063714917243,0.0249066847584540999871461,0.0366414144979858649731064,-0.000368896898142062308958988,-0.00198812420003180532340759,-0.0869329419926622992687015,0.9962118741778097641415,0.00881059574581220805722381,0.0147957942210707182884022,9.97794740548163083815325,-0.0070029454212298036450135,0.0129523417276110053286686,0.0483375314368642908235962,7.56287555499873409559086,2.15673584159579467822709,4.13073524307020711887617,1121.50528189353030938946,1110.54569076431766916357,1119.47935702938980284671,1121.92605202038157585775,-519.593019116207642582594,592.925766473596468131291,-391.400120394182351901691,225.906141951120787325635,150.782081148214132326757
63.1300000000000025579538,1.23851039880706093043727,0.559941445761285239157701,-0.618332163614311980381899,-0.021586218218115772737864,0.0265268195626401220854618,0.0351311563861060952018711,-0.000406578301359594121867219,-0.00198050675883518732811606,-0.0868910381397091508004493,0.996215544376259698466924,0.00884019193674211167799371,0.0111261138233129247554487,9.97227123958960426364229,-0.00729361437401279590758696,0.0130500365971335224174465,0.0487339409666895928552321,7.56286079635089514283663,2.15677282694402716600734,4.13084343475722270966344,1120.24646904707196881645,1112.08028887506952742115,1118.68214443520128043019,1122.42285951259987086814,-546.04133322208872414194,652.369120483538040389249,-264.72794332800253869209,194.843796206300652329446,150.782983775766126655071
63.1325000000000002842171,1.34111472473026371865501,0.292509725388879593399594,-0.588109078384210226531081,-0.0176186138411321621677352,0.0281760688856188649953349,0.0331185801968496978942014,-0.000421145442102859035582441,-0.00197793854737197960513839,-0.0868501840671385832992613,0.996219115894416251677512,0.00908997819898135772653802,0.00788374120737853067986123,9.96631972180811231964981,-0.00757843748318242325934246,0.0131325442118035273092458,0.0491299263288880877498244,7.56284298339768223939927,2.1568109736397653719564,4.1309523607879761186723,1118.77507522742234868929,1113.80753636673239270749,1118.15571731275099409686,1122.90027100141219307261,-544.183817782999653900333,580.466963788449447747553,-133.159311723814568040325,155.806159970466808317724,150.784062270852643905528
63.1349999999999980104803,1.37915860283948421560751,0.0857024812648887052146662,-0.517071405401431483106478,-0.0137653285897016194189169,0.029078846495567401558846,0.0316070015134338813678205,-0.000417455457811354967850859,-0.00197567448817632202937022,-0.0868076498399237145298102,0.996222833794474960100729,0.00945437321054719281843148,0.00502927778581120643597302,9.96006615364410485824465,-0.00785510847244775753384083,0.0131994390119280404632951,0.0495260191748308556403124,7.56282275257737790497004,2.15685012198746317579889,4.13106327642991999482547,1117.52554995815944494097,1114.98262369400913485151,1118.01634787658281311451,1123.20189031245149635652,-516.787156380277565403958,382.277405022509810805786,-12.7700516272787503169184,93.7604800646997915691827,150.784959187678538228283
63.1375000000000028421709,1.36400055725074054180368,-0.102780519611016307734985,-0.404336465868841088422414,-0.00961312158992752921471414,0.0292913951594660909583112,0.0305073269065684604672839,-0.000407449123875570278028452,-0.00197128931031213903285471,-0.0867609617337803673553509,0.996226913218800635974048,0.00988043507718814467688517,0.00238748514406345035965273,9.95348504246795151573224,-0.00812195764915252596538586,0.0132498831297706808063364,0.0499210087769414098679555,7.56280188909575379341277,2.1568893481512740883943,4.1311771557971646018359,1116.19113944551963868435,1115.71892339184591946832,1118.09186705461456767807,1123.36907340173593183863,-610.696113626960595865967,200.776004007445465049386,65.2457236863149745431656,27.7485881218439232043238,150.785856715344351641761
63.1400000000000005684342,1.29528266255469404200085,-0.298512312115966294001623,-0.229566994976516391968602,-0.00520581391571437162441027,0.0286767900972764860911823,0.0296576667273079769282518,-0.00039852056871410908994724,-0.00196325463459575680000291,-0.0867098538725168954677258,0.996231378003626599770826,0.0103205734525217834862687,-0.000126054269712475019993292,9.94655367938719692233462,-0.00837836574653873927820413,0.0132837325516556529342305,0.0503118376085521512575127,7.56278189769398423436542,2.1569282150655091356839,4.1312951394578902863941,1114.47206939002307990449,1115.98650371404687575705,1118.34257649501455489371,1123.34063325306078695576,-641.546796596586773375748,-7.33421247314921309623514,109.650957804260229977444,-59.9064890353110115484014,150.786937436997504846659
63.1424999999999982946974,1.21359864128825756246499,-0.427806204605311990452066,-0.0569741150263490814253942,-0.00246350534483551772760301,0.0274833903144845910493377,0.0292780020478334047917546,-0.000390848691608785658423847,-0.00195214359994848427222458,-0.0866561571195230972985968,0.996236066736160275070233,0.0107532515822727284260374,-0.00245176585918814929354603,9.93925445902659809860324,-0.00862455445846782575713974,0.0133018050423189208159025,0.0506939347911270765667524,7.56276306180262292144789,2.1569669233246080430888,4.13141786531743893107205,1112.98340546253962202172,1115.68225232948020675394,1118.64012184363537016907,1123.06954095655964920297,-582.952988952476630402089,-220.451044395646022167057,125.822050039122785847212,-169.188766367828833381282,150.787843331465893470522
63.145000000000003126388,1.12948800864288334544483,-0.514988297845925480089591,0.136889083035713454705729,-0.000552652207656718365801074,0.025801472067096615364834,0.029199260868246149774885,-0.000384813672041540435434653,-0.00193424174553763006736973,-0.0865997095169462188790632,0.996240999276263416994937,0.0110707979977412024341632,-0.00454518572733403694585697,9.93157626717263752880172,-0.008861810356742817057496,0.0133051445589233586358491,0.0510618525526537747616374,7.56274529618337343350731,2.15700556011542454726282,4.13154552959342513673846,1111.55730444525920574961,1114.8842484920680817595,1118.97168674521049069881,1122.49468942122121006832,-535.030859849165608466137,-385.811826529909922101069,124.858326140319846331295,-282.238749661693191228551,150.788757415558478669482
63.1475000000000008526513,1.0536768906524873745667,-0.567391242753135793819297,0.342224778734338819230487,0.00105640437405972171906743,0.0239802406276499492643328,0.0294068330397089967853663,-0.00037885326182436623735153,-0.00190855941083245116834943,-0.0865397918536154886481881,0.996246240938188254432362,0.0112159249783597564364968,-0.00632408806946031451512447,9.92351624845515623007941,-0.00909156751569555228453812,0.0132952867760998891255575,0.0514099026171801684603757,7.56272868314834489922305,2.15704444908806980407689,4.13167793640245495367935,1110.30825116329242518987,1113.75319319682967034169,1119.26441347433728878968,1121.65834720825046133541,-427.28768404847625106413,-510.270946049932035748498,84.726292156105699859836,-393.5388700076996997268,150.78968033681314864225
63.1499999999999985789145,0.986027726621065747636408,-0.586111122336398171484007,0.549860773174123851347872,0.00284434890036864033643904,0.0223544846082159714972803,0.0300981132220440941726913,-0.000374816702013018663696559,-0.00187309741857081863032619,-0.0864750516011509179348238,0.996251914542241046035542,0.0111180719499051616772078,-0.00778215481883304249777211,9.91507991134139565758687,-0.00931547234371578325440311,0.0132737267845745316591222,0.0517328533774014595603141,7.56271276659073166115377,2.15708371779242069621318,4.13181444902877004210495,1109.42086602501876768656,1112.33289376182074192911,1119.39531820599063394184,1120.52699507118450128473,-282.161306579329277610668,-662.53145277621786135569,-12.2484497443502817759509,-554.99987896499794715055,150.790616433288562348025
63.1525000000000034106051,0.896183833155013598315008,-0.587478627600476088765902,0.779476890821744206050425,0.00570073356942939982877627,0.0208542834800441410914029,0.0317394678262591031780993,-0.000382469865371345464372804,-0.00182565812464891875921413,-0.0864028716738608759673212,0.996258248083620734369958,0.0107180931374353527463228,-0.00907731621745891739672096,9.90628093632284922875897,-0.00953502917820643614010834,0.013241525053776074388745,0.0520265980504714120602472,7.56269653500029903625546,2.15712272574003405267717,4.13195301303400963632839,1108.89744463039505717461,1110.44053593294688653259,1119.20317122561550604587,1118.88334781342405221949,-99.0313035342244774028586,-705.569967756176197326567,-147.646888368460110996239,-640.117563498861159132503,150.791758435308850039291
63.1550000000000011368684,0.797250144027750740072236,-0.584622325283889909819379,0.933883141332184307792375,0.00868694426767445231074571,0.0198990537460206028119725,0.0339368512948755862712602,-0.000404675999455843347224482,-0.00176967460209547910315875,-0.0863250555024594190545173,0.996265075127940602506271,0.0100584040680026937097935,-0.0102307286292094047619461,9.89714052169534674874285,-0.00975115644384866829541547,0.0132007910858981079849084,0.0522881698146419882089475,7.56267971826830542880771,2.15716108106280302081359,4.13209125714468061829621,1108.92570950734739199106,1108.80504392303805616393,1118.65708376414795566234,1117.32640725368855783017,92.1280935453906977272709,-645.82225961789470147778,-307.418759792114940410102,-648.374203864840069400088,150.792728512562007381348
63.1574999999999988631316,0.662431346375274565652091,-0.588656566679191639579471,1.02480939105589463622437,0.0117014623008198405396119,0.019021268159743420778085,0.0369375735525616089027778,-0.000434845237932714818920171,-0.00170817118202073255257833,-0.0862471002593907382083316,0.996271912047595242789555,0.00915981022078860007695766,-0.0110882640878402043138617,9.88768542952947626645255,-0.00996476480795533206546999,0.0131548637866195829854155,0.0525156231764969741449001,7.56266253656748332900861,2.15719867838535384052534,4.13222905326067646569754,1109.35808509812159172725,1107.21142463486035012465,1117.66607742665632940771,1115.64147679410280034062,249.223424409419578751113,-671.19011051606548790005,-526.356419805373548115313,-754.458203965965026327467,150.793721531339883767942
63.1600000000000036948222,0.470129348511208966510111,-0.603933396940852351697515,1.03993791117046674443714,0.0143585944034834607496709,0.0178076976308591955477922,0.0408796029035109476090781,-0.000466269378513171927659597,-0.00164350650660241917599969,-0.0861736477134128903143662,0.996278353387861081991161,0.00803297023256377418221064,-0.0115055493834017343035558,9.87794660044936101428448,-0.0101765516398608698439565,0.0131073327873399980703084,0.0527081649828397558188442,7.56264484081788612712671,2.15723539199293457002682,4.13236674305147388963633,1110.17182662939512738376,1105.44909337045601205318,1116.02530166511974130117,1113.55411623385680286447,318.902323487118906086835,-608.607786337422680844611,-653.930820074112602924288,-763.165358012038950619171,150.794944687480693801263
63.1625000000000014210855,0.307707664130763725029993,-0.620475187085254176189153,0.969488214674142256832567,0.0154226690540047728372741,0.0165912422252648510123674,0.0440140782528119778316267,-0.000489185006756598589686136,-0.00158149649553260079025419,-0.0861062156853035498560445,0.996284262899786110523337,0.00675483412981824071774639,-0.0112833071139260797399739,9.86795786707869559961637,-0.0103865094714619896065777,0.013062306670588587353965,0.0528660177400974568007186,7.56262620610758418138175,2.15727107320836486437088,4.13250433065788858044698,1110.95259671555800196074,1104.16838570317167977919,1114.39642332628409349127,1111.82565000404065358452,303.176460027000928221241,-461.352826576204620323551,-669.816290819580785864673,-672.331517154836888039426,150.795994287146328360905
63.1649999999999991473487,0.178975106309377018920515,-0.629636246825954426498129,0.819972029721029671556209,0.0153044780540077998004511,0.0150544471323552329911077,0.0465977000688402656636278,-0.0004927423697604002561512,-0.00153063090712435832287108,-0.0860450504229217094653848,0.996289613757441294694672,0.0054565129971359122018626,-0.0102081300643865752197925,9.85775426231168871993304,-0.0105940490075569927058696,0.0130240225881086604114989,0.0529903609776262163322258,7.56260620192300958564147,2.15730630207733131697978,4.13264099647216642807734,1111.68770892952875328774,1103.14232923757708704215,1112.67622021102488361066,1110.19245864808567603177,269.159846989986021981167,-361.909193616471782206645,-677.403455188795305730309,-625.311665182742444812902,150.797080575325281870391
63.1675000000000039790393,0.102111188410530809300703,-0.622680132755829118806901,0.617826192536485629958065,0.0142847233037501283869908,0.0130907490523844167312761,0.048448414917094673182163,-0.000473438372118392810858345,-0.0014950468711312939282948,-0.0859884603799119101585902,0.996294551206672429621847,0.00419972615701239004870615,-0.0082297286551148013389323,9.84736987583769263210343,-0.0107987309222345329723369,0.0129957824277238259691458,0.0530832809874097338864729,7.56258427272432331989194,2.15734164624176250057985,4.13277589024843461373848,1112.29839595050862044445,1102.35883973508839517308,1111.00940605033838437521,1108.69909167812534178665,199.72763156177975929495,-250.256005871832911680031,-633.020431925155094177171,-552.921668624129779345822,150.798201517831984119766
63.1700000000000017053026,0.101018345545275861629975,-0.588163778027702810469179,0.372038221027713222888167,0.0127426410783055658881846,0.0108990677805563540569977,0.0493800555698987869712724,-0.000435038454273827435332678,-0.00147293840074943084388071,-0.0859342930030213281167306,0.996299264255205652141001,0.00294618810364294381187733,-0.00546102579254403863728839,9.83683662233377908989951,-0.0110006468359220462016612,0.0129798452905019647690699,0.0531474679178661618683677,7.56256028373054256519481,2.15737716023636805218189,4.13290832995694223939154,1112.68634708733816296444,1101.89104920821728228475,1109.51111805139748867077,1107.42785030496361287078,106.611890050232076987413,-129.18342147729998714567,-611.985210701015603262931,-505.330712242498805153446,150.7993697128588621581
63.1724999999999994315658,0.173121068055373888983084,-0.516546477224135380801329,0.0504841038014021831203948,0.0117447276831518648831931,0.00895917475062876778046927,0.0496487723575509062867717,-0.000378321461413994508324321,-0.00146445224362516711671955,-0.0858854621956457731091206,0.996303501000122770925316,0.00169572226278029425383664,-0.00196333510453020748665054,9.82618443850834388797466,-0.0112000438541278724002836,0.0129784438060572618334199,0.0531857208506343118181725,7.56253476407291636007812,2.15741361096337946889889,4.13303827546331881137576,1112.83145540075929602608,1101.71292262770248271408,1107.94947999683608941268,1106.17243811691514565609,-5.78042126639661368869838,0.26504284687675944143237,-538.641414867785897513386,-423.960192574178563518217,150.800833037434671268784
63.1750000000000042632564,0.263152338284244280419699,-0.440288920610421907753107,-0.225979913667189391546231,0.0124869999554332502395004,0.00815634644495164332078652,0.0493995783527340637242276,-0.000311680282446709572882065,-0.00146695988693737607543033,-0.0858415854351978618863583,0.996307293649327574414087,0.000412199797292539527049371,0.00204030060474410038229287,9.8154410222237657990263,-0.0113977072080022785727227,0.0129928473104867353571379,0.0532007513637155760033437,7.56250871675007463323936,2.15745070651125203653464,4.13316610586402166660491,1112.65744498100616510783,1101.89237442245166676003,1106.81791097705718129873,1105.30804934209163548076,-133.561689572411410154018,139.674550188348291612783,-429.308980773801977193216,-329.101338542809457976546,150.802107882490247448004
63.1775000000000019895197,0.33926634318970683157346,-0.356677860367843213573735,-0.498020585207469335120578,0.0145614399226824779709499,0.00752086790392164639129646,0.0488383371054772127961563,-0.000248237253738006248288822,-0.00147211053143885038999028,-0.0857987276592395570196103,0.996310986812187993066914,-0.00103802836994448810514768,0.00621864459261797786204795,9.80463196616234000657641,-0.0115953965895068799446532,0.0130237316719537896819725,0.0531946754488034773133975,7.56248226681762947265497,2.15748765723322399878725,4.13329266018605334664926,1112.16364695289689734636,1102.41129537864458143304,1105.80293509296598131186,1104.52693142420025651518,-289.364634032417029629869,299.967444519916114131775,-428.008600149521953426301,-353.949213255968004432361,150.80344392040296952473
63.1799999999999997157829,0.378921957020167621266182,-0.252547640528619332656035,-0.801237136867485766344998,0.0171778454090868934467373,0.00649735032046502500313601,0.0474326916823421748659051,-0.000196065021264903480797612,-0.00147719686284275824456058,-0.0857533744263204583679894,0.996314882926817801944708,-0.00267976037943447320532897,0.0103435915540500619758113,9.7937825808588119258502,-0.0117948515342119631538198,0.0130722560363066425681566,0.0531686971544219552643362,7.56245499725324155093631,2.15752412932130788192353,4.13341777680105426640012,1111.21062181084539588483,1103.39221164504988337285,1104.67786797631151785026,1103.53830327581340498,-404.742362574481660431047,407.245485925087393752619,-394.15523050277289485166,-389.292162021712101704907,150.805120535444245888357
63.1825000000000045474735,0.361861014159643501475472,-0.164888513378658646546526,-1.01617584654715797931601,0.0188215911096944639446793,0.00580352157154880032852162,0.045289728627102461555598,-0.000156866119507208625401956,-0.00148040770560269323470604,-0.0857022956218719683674223,0.996319263593509862886322,-0.00452385989910844554806602,0.0143089969126443533609105,9.78291795282065557159967,-0.0119983065208890977287881,0.0131400931235544325692555,0.0531227720773108300078569,7.56242725774553559148217,2.15755945306817009665679,4.1335424393990551905631,1110.13993514002345364133,1104.44752280827106005745,1103.83215894045110871957,1102.58047061409070010995,-475.617736157512297268113,447.102158474307088908972,-305.644774152759111984778,-423.058650281802329118364,150.806579677331541233798
63.1850000000000022737368,0.301966094416780794773558,-0.0817269508629445418090853,-1.16666557216874422486796,0.0198044883335152938075296,0.00557537313662204853104143,0.0420558861479772005953492,-0.000130115390790427995666712,-0.00147743940149933799567405,-0.0856421636946100711673679,0.996324426012444086531161,-0.00662614279535372885376887,0.0180455733323491573916186,9.77206356306631107599969,-0.0122087795279071410770033,0.0132288098908784814561335,0.053055548973243299437641,7.56240008530292673327722,2.15759305695624181709036,4.13366939605138572488841,1108.8325331300566176651,1105.62772243742256250698,1103.14964410554694040911,1101.42301002440331103571,-551.060122740092083404306,468.331825261082769884524,-232.879815406825287027459,-495.870746335818580519117,150.80810281211381607136
63.1875,0.219881198397249871812065,-0.00730412308665862042289518,-1.24811432826684165497966,0.0203466912136990620008081,0.00580177445107088723269539,0.0382694723901012903710672,-0.000110406340089820887979781,-0.00147158535722661338793205,-0.0855761965357007131638412,0.996330094019624135093238,-0.00889590879938029210904915,0.0215900239243371414032957,9.76124731394773093029471,-0.0124290735502414345647892,0.0133398430944606967429866,0.052964672900926837439961,7.56237438236389891699218,2.1576253293556484358362,4.13379948461392476843912,1107.38463452632549888222,1106.78918193457434426819,1102.66775986341804127733,1100.10111688241386218579,-594.782077331470077297126,427.626351164016739403451,-133.790392704099531329121,-556.550769450984262221027,150.809677794356929325659
63.1900000000000048316906,0.128020350868694843260442,0.0535831650739045789455517,-1.23878903514026061927211,0.0205205139544068944357225,0.00639740579520429661353198,0.0345190615645616927231742,-8.88985468829524180496907e-05,-0.001467870968919911126363,-0.0855129091735895852099958,0.996335533259482875045876,-0.0112088634622197202972416,0.0250488199002057154718415,9.75049942693137339233544,-0.0126620862156757909428029,0.0134740816456820882568435,0.052847117726457261410733,7.56235087667837468927701,2.15765707300889664210786,4.13393292059192329901407,1105.8586227433977455803,1107.76585419324374015559,1102.48069214202610055509,1098.6402561771469663654,-660.971794274181092987419,349.475632963961686527909,-16.2516293191318794697509,-647.763480968192766340508,150.811312651324243461204
63.1925000000000025579538,0.0249641020912410270538029,0.115952893386961686239545,-1.12919759877087977351096,0.0204647075415219509286757,0.00712348092807342167520623,0.0306197280833449270165403,-6.37235104674540865339963e-05,-0.00146644010651613646706304,-0.0854575643705969972829806,0.996340289533700462776267,-0.0135186279634713357733489,0.0283886832357140919680383,9.73985269290029087585481,-0.0129108062697408359359441,0.0136307723454506205668091,0.0526998543253591397728108,7.56232950477105170250525,2.15768827888638314860259,4.13406905939865509935771,1104.079775554952902894,1108.53656009939504656359,1102.58650171682234031323,1096.86229947757124136842,-621.264277002065909982775,195.633658227548608010693,79.3267603009365558364152,-631.506603508234093169449,150.813339111900887701267
63.1950000000000002842171,-0.0447544546459890044132202,0.169325529793494050645464,-0.968904354500740971900541,0.0202589677894928245349693,0.00745507043976032391513487,0.027881151961675312150879,-2.59239909188753549554567e-05,-0.00147117210494016850859389,-0.0854154825956589813795716,0.996343896062090506049458,-0.0157141774215807661363442,0.0317260734869667868074394,9.72934226393606138572068,-0.013177203299975881120587,0.013808917079521688259236,0.0525201338548738697054041,7.5623094740172591698979,2.15771992223285247192166,4.13420650202009021256799,1102.7523013583902411483,1108.74402248438059359614,1102.87732594353042259172,1095.48272315960866762907,-474.815888482703314821265,-19.921131504606748308106,129.868792971983452844142,-501.853115671476075476676,150.815077838183043468234
63.1974999999999980104803,-0.089112881531893992081983,0.239757352720116945210549,-0.757657342655339904879952,0.0198990513527749178501747,0.00735638892920105827433197,0.0255624392973117300909003,3.19207157301123090487743e-05,-0.00148322667270080199575233,-0.0853907934106908350635479,0.996345996180145632159508,-0.0177324187100571933894955,0.0351511214277997058319514,9.71900478264917389026323,-0.0134624497612234068216752,0.0140063262175869705089548,0.0523059422252128009001026,7.56228942597823206028806,2.15775351436555373751958,4.13434367219322940201209,1101.70569611254154551716,1108.43695444187210341624,1103.23584568168166697433,1094.35303389921614325431,-377.473413157020047492551,-252.884538239511812207638,136.198285222484059886483,-414.576493294377371512383,150.816863407154613696548
63.2000000000000028421709,-0.107208451396529819144021,0.355581254073077002164638,-0.474319009054833318206335,0.0192625444593443537200095,0.00679915226318626025880931,0.0234533040211349005921271,0.000113265868207651463641338,-0.00149804465702771025768791,-0.0853850597849508535786001,0.996346465532471969872574,-0.0196137147137756678860754,0.0386781600070294981352781,9.70887714475982477324578,-0.0137670035242416378268304,0.0142195120394091097798528,0.0520561458407117830238242,7.56226764377439497621936,2.15779025842293714632092,4.13447926290241785096669,1100.86493429260417542537,1107.479599793182387657,1103.55831736964319134131,1093.40984069313572035753,-236.606836565276267947411,-436.811897303554644622636,77.2850591899955645658338,-268.971357010603867365717,150.819053767188563597301
63.2025000000000005684342,-0.0921986619798742107478873,0.473930237603848614202917,-0.23851085136216232385209,0.0185604129141482172837829,0.00656740278009007843323941,0.0225930617111629629401026,0.000212329122836130921572403,-0.00150585133111727042902472,-0.085391204092372635647834,0.996345925936235166098243,-0.0214842301725411133350718,0.0421480305450066539130205,9.69899600442521681031849,-0.0140903955710774565074361,0.0144436105857820833858751,0.0517706196006116406427289,7.56224313541661619098022,2.15782998288465721614671,4.13461320689340716683091,1100.52266192971455893712,1106.25289495535321293573,1103.62227097763184247015,1093.00817711416243582789,-75.5002789210043374623638,-551.288013537260894736391,-34.4132744543316348995177,-85.0314580128588488605601,150.820913668298658194544
63.2049999999999982946974,-0.0513442319938688246372394,0.589684059937684801333546,-0.0352370976166304569754395,0.0177777052382549066722461,0.00740433739131518900422613,0.022834841783105425810918,0.00031344399408027859765466,-0.00150278938624592807091207,-0.0854018280834369786225224,0.996345015843599357552307,-0.0233422643144993724462211,0.0452344435168604078190135,9.68939854114877441304543,-0.0144305708695116295670058,0.0146725491767820317295934,0.0514504314626421793699151,7.56221587166236464128133,2.15787255350508955231703,4.13474562813276502737381,1100.48743289799949707231,1104.72315972549858997809,1103.38625099737168966385,1092.98468340307181279059,15.3842897431707985589355,-632.737233560050412961573,-149.488318587706004336724,40.63581391249239516128,150.822802876335828159426
63.207500000000003126388,0.00022885849515556777600267,0.673347482579676359648602,0.12018074440671634717237,0.0171447419117769471463841,0.0093812819154932124837698,0.0238387020175589818549167,0.000405944471402780351475953,-0.00149120852540299340775742,-0.0854138524586886133116437,0.996343993208411271567115,-0.0250803666831457966468477,0.0477319415975019437081706,9.68011921182434420529717,-0.0147844974985823392199524,0.0149007586921081278119594,0.0510972781686582430693555,7.56218630965011051614511,2.15791743249999123932525,4.13487632080195410821943,1100.5995833784304522851,1103.08920878755134253879,1102.87482938469293003436,1093.2113561837250017561,44.511881963376218607209,-638.432348783809061387728,-270.395379039517024466477,127.672678330807855218154,150.824711082319623756121
63.2100000000000008526513,0.04290107869522875871926,0.682296309403291445505602,0.203771450470403958643573,0.0171510035229813090351669,0.0122000588235772946393842,0.0252476130247466998279826,0.000485278223248991949761305,-0.00147308925345812267125589,-0.0854229886987399877895655,0.996343222067238132311218,-0.0266154800039371530750998,0.0495669938147344849022069,9.67118676925734810367885,-0.015149013764321062405771,0.0151236060243563896765551,0.0507131418728841501519788,7.56215545252798726494348,2.15796333113161509231759,4.13500506680757240474122,1100.70999230781649202981,1101.53099798157791155973,1102.03427410217341275711,1093.62304679472617863212,-0.553118141215739433924625,-617.783569443661463083117,-438.597249685870906432683,190.079239893511925174607,150.826635329671887575387
63.2124999999999985789145,0.0502143316451009458223353,0.577435416554367142438764,0.221790877316040302424938,0.0179787145802753831058673,0.0155153193306906272974643,0.0267107567487872912814773,0.000546803582586710972164579,-0.001447624660307623035288,-0.0854258106836043168419437,0.996343001760709889857992,-0.0279267178578661429133589,0.0506729580696334211409315,9.66262315045916331257558,-0.0155212564692952647432689,0.0153368028780584576137302,0.0503002746943996895123696,7.5621242272414033180894,2.15801013436654098853751,4.13513273121355862116388,1100.59681778772437610314,1100.00029094033584442514,1100.68184313626557013777,1094.16175238319169693568,-111.450599938541301980877,-474.082626452021315799357,-542.810834509641267686675,181.791834998373587950482,150.828953804665019333697
63.2150000000000034106051,-0.00098635651949198943806707,0.389576727717369675207948,0.180836268248227710619958,0.0188821173997984481651713,0.0178005301676685233347452,0.0275639456466344051621675,0.000584617193708866712993644,-0.0014119585815885701048783,-0.0854200331798827539042662,0.99634354033113536885935,-0.0290400284079171677742437,0.0509675907594545132828223,9.65444247714875025678793,-0.0158986065256296743575248,0.0155363448996569484400476,0.0498611739190313249525666,7.56209271022867479672414,2.15805791883093744942812,4.13526010280045497324863,1100.15273930812350045017,1099.16058484931659222639,1099.32021992962381773395,1094.53200596971851155104,-267.659234286201751729095,-221.849403931787691135469,-573.517791553492656930757,110.062427193077468245974,150.830887305199439651915
63.2175000000000011368684,-0.124407514409113462150458,0.112208401768980836621381,0.105692881202318733624423,0.0195294271602842357815621,0.0191574143195723314847534,0.0279976735107280230718807,0.000600643161800677011750993,-0.00137037946920602268785494,-0.085404361083122104503218,0.996344945429977091322371,-0.0298669651222020215985964,0.0505415090521991947070113,9.64665029528682893555924,-0.0162777967195352132878661,0.0157195378786927665581974,0.0493985720985215329137397,7.56206066091743345225495,2.15810597319524832826687,4.13538658635559297493955,1099.25852161629268266552,1098.89104392067633853003,1097.81425417849663972447,1094.71206451915736579394,-489.671214388717714882659,17.8973131821457158707744,-663.395481308465036818234,20.6293837079744015738925,150.832815417873149499428
63.2199999999999988631316,-0.353396903914763083065509,-0.286997736555751781217793,0.00854519361317381681564243,0.0196570815310575519596625,0.0193692351940037005286754,0.0278966002793877218546292,0.000604735042280975178437263,-0.00133158834835616691517901,-0.0853825371306676933480517,0.996346880709777948936789,-0.0302586568148799639477176,0.0496521960541843956904451,9.63924236767777919965283,-0.0166552856646794145145662,0.0158848240871063833834498,0.0489154203222375918991283,7.56202752039598902200623,2.15815521247985131481073,4.13551174867803883472561,1097.70438323618213871669,1099.25007141522723941307,1096.0032425230845092301,1094.6351528882582897495,-626.522563217620358955173,231.435686306049149152386,-636.764767974402161598846,-79.9235965098023797281712,150.835115882718184820988
