t,ang acc x,ang acc y,ang acc z,ang vel x,ang vel y,ang vel z,quat x,quat y,quat z,quat w,acc x,acc y,acc z,vel x,vel y,vel z,pos x,pos y,pos z,mot 1,mot 2,mot 3,mot 4,dmot 1,dmot 2,dmot 3,dmot 4,vbat
50.9325000000000045474735,-0.797712685702035240176144,0.434513089651993422712906,-0.0904825070521379642984883,-0.0127807634587929694336417,0.0206630070969031805205862,-0.0274145043099143434495168,0.00658272724248103961036671,-0.00903409974806743294728495,-0.746198107403572730156327,0.665629897718988505772586,-0.00694220665536973702280932,0.0563177106639060481851899,9.81370966973702252289513,0.0192554063511716118395345,-0.0360761102167268601914607,0.0113768273537408499268553,2.26220505208710598310518,4.83636833242666153154232,2.05037180936088203608847,1131.09932721968675650714,1154.72412440929065269302,1151.1656622295295164804,1118.97297202863978782261,11.281748359073075604897,52.8078467691287158913838,-342.394081264371720862982,-500.528695222390922481281,151.537351004645671537219
50.9350000000000022737368,-1.23847326407202129594509,0.025848431573593604743122,0.086450406759602360651229,-0.0180482062827553441097805,0.0203963933852036732874424,-0.026579281953937845123237,0.00654753416814450855260032,-0.00897870588258824382787981,-0.746218025929166417498095,0.66560868083818913731875,-0.00946246024748779307467217,0.053123105645481685788134,9.80820316518789780957377,0.019048733723069536521999,-0.0362149557825814719103086,0.0114079100091896354363108,2.26211155420916742997406,4.83633048243261942644722,2.05039718488672795260186,1131.10848172713917847432,1154.66040097955601595459,1150.2348517418042774807,1118.07992557857096471707,-8.37721769163033691540932,-101.978377119032288078415,-400.30737370893831439389,-234.284641814824027505892,151.54049987982213565374
50.9375,-1.50914967984540515644198,-0.281621467905200706383084,0.23985577283257616953982,-0.0251927267048406219873691,0.0185109265861800112440427,-0.025098633957810825845236,0.00650761246619254492967732,-0.00892282005803654056086405,-0.746234495515129658826936,0.665591372854380192158885,-0.0114578981922693751149822,0.0496532703256834379024198,9.80248454274719094314605,0.018836298922124340010642,-0.0363656814430062189091863,0.0114241773809312281706685,2.26201647643380931995694,4.83629248688251678345296,2.05042419082371774052831,1131.05744113122864291654,1154.21423252369595502387,1149.16412536098664531892,1117.80154881956673307286,-29.4336333274072181609426,-294.762894290802023533615,-463.191345993857964913332,26.0467780250346976345099,151.543688271584613858067
50.9399999999999977262632,-1.59231584037684137378221,-0.486728111996088896873403,0.392101948789065346545613,-0.0331199749654427499923059,0.0153395762354223280654608,-0.0235670673892877657884526,0.00646927424917311151564281,-0.00886691752511037031836416,-0.74624753391274589731097,0.665577885858837481336536,-0.0130109587444146440615711,0.046051352303357648287907,9.79656886170775109690112,0.018619942869457055401039,-0.0365279812939006340299919,0.0114242087306828180026663,2.2619200136107413534603,4.83625507319546876772165,2.05045297925930647409132,1130.961313560502276232,1153.18658650810334620473,1147.91889501183709398902,1118.21015946869601975777,-30.5047860599032354400606,-462.300979329111157767329,-425.886610422876799475489,260.155454483450455427374,151.547550092101232621644
50.9425000000000025579538,-1.47450780951338256130612,-0.509618325405913452641471,0.500232124815672585249615,-0.0382091109636254686043877,0.0123990674461461700822662,-0.0227710241201382231068795,0.00643640020195561986943167,-0.00881083300845473746387704,-0.746258537760561169172036,0.665566619631020706115976,-0.0141855223124027554626458,0.0424202245250159676315249,9.79047597596327356939128,0.0184018767593439359908647,-0.0367014080299776918048238,0.0114065619030481544410316,2.26182245963929373644419,4.83621894581199818219375,2.05048293983164553466736,1130.90491720092904870398,1151.9027276270492166077,1147.03469230887117191742,1119.10232609198465070222,-6.82878156125858293279407,-595.011490901393017338705,-305.263487535583692533692,439.354526440095355610538,151.550790605917995890195
50.9450000000000002842171,-1.21523951142126351854245,-0.393844699248624641185756,0.600358668748400603476512,-0.0414783066490034546536236,0.00992724028646050325741523,-0.0223036777308702194311252,0.00640943633137940494554075,-0.00875428063317239789353774,-0.746269204497650551211052,0.665555672465939607285179,-0.0150052184756919726460467,0.0388164350451538214814562,9.78423032708241535715388,0.0181845663455097485139422,-0.0368855788953629457060934,0.0113699391156553558657194,2.26172437179261009987385,4.83618378138439464208886,2.0505135732825281458247,1130.92716965269596585131,1150.21152905359485885128,1146.39257757415839478199,1120.40693210089762033022,22.9706083827049667434039,-727.837832275988944275014,-214.320799389965316095186,559.801947087689541149302,151.554045220313753361552
50.9474999999999980104803,-0.888424019496612982216277,-0.194184840811878589583728,0.695891571728232016802451,-0.0434176258212273513681367,0.00838706063935569338940734,-0.0217131135713685835542108,0.00638788412817515183911299,-0.00869722062677187428281211,-0.746281310590410806860007,0.665543060320248014427591,-0.0154847897409808379909357,0.0352873851195000670655233,9.77785968711124908736565,0.0179706073821980991112035,-0.0370802134627298968228004,0.0113135433830562730228575,2.26162639739846182962424,4.83614970151125511677037,2.05054432791084284559702,1131.01977024284246908792,1148.26353846567258187861,1145.96308831192231991736,1121.90133582742055295967,42.9056457329132783229397,-810.281819351752574220882,-128.774630207069606058212,605.735552309542299553868,151.557304611048806464169
50.9500000000000028421709,-0.536363362030149448678173,0.0525234855397408578747687,0.774842624178589844952114,-0.0441233754244278811307289,0.00832278774063513471226372,-0.0205521613212537208881248,0.00636880280215013951095049,-0.00864170905728150508251506,-0.746295544683973521848941,0.665528013577225019403727,-0.0155836281551907929188161,0.0318783454206028465938161,9.77139463367347360644999,0.017762559379695168348956,-0.037285170815206124250718,0.0112370970179556765866646,2.26152887179446482335266,4.83611771843121918124098,2.0505743164582321824696,1131.14169788136064198625,1146.16011995683402346913,1145.74870442312271734409,1123.43560986244688137958,32.9484766067084535734466,-914.249335769259914741269,-66.912324687984764182147,640.442647657245970549411,151.560561213780147227226
50.9525000000000005684342,-0.141333028945289596034485,0.327475394923371354582997,0.821496617478703838877152,-0.0438550042991252622681664,0.0102465964112953902831471,-0.0183094007575148251532049,0.00635263320271615798684461,-0.00859227052328713492013179,-0.746313066645810763155566,0.665509168382783289352744,-0.015285496176053917083415,0.0287126293095063128690825,9.76486643528268061231756,0.017562873558748609559288,-0.0375001855802376202198012,0.0111412746031184402284442,2.26143176075930352197929,4.83608720751484444377866,2.05060310395467793043167,1131.18451262587609562615,1143.69229178682394376665,1145.6285266884822249267,1125.10354906570842103974,-25.4838875121781569532686,-861.384621081161981237528,-43.0483260306510118198275,556.976977015717238828074,151.564454624786407066495
50.9549999999999982946974,0.137798442235025936364323,0.492756023524967445847977,0.794609048210440871429228,-0.0431002815460879984410525,0.0130064237196594687656637,-0.0156586349102275645961413,0.00634122665316603443402821,-0.00855076545908292282027752,-0.746332436900330353779509,0.665488097272697531892049,-0.0146352937581909967046379,0.0258907609701446023153792,9.7583076808505282428996,0.017373323063452343617552,-0.0377250449072290897079007,0.0110272786164465341762764,2.26133456868342674894734,4.83605710289462109585656,2.05063074509906062559139,1131.014278443799867091,1141.85319685143213064293,1145.53346279296965803951,1126.22049474752293463098,-134.64839817463530380337,-656.975368772037199960323,-64.3125359050498701662946,369.868320358356811539124,151.567678615741641579007
50.957500000000003126388,0.347833049774954994326492,0.561364848538311922432342,0.674559675056096152978569,-0.0420160289595498046000266,0.0157984663925132898243398,-0.0123332263615915649346277,0.00633632804376657154249441,-0.00851549710232967979606222,-0.746350765712842645349667,0.665468047008507701534086,-0.0137274406140179133783974,0.0234568950189490282864924,9.75175225605502760117815,0.0171950647778493677375611,-0.0379594750214313284009116,0.0108965379246293535275836,2.26123691087703670987707,4.83602701467511142396916,2.05065676087204940003517,1130.51127063500257463602,1140.40741494296207747539,1145.30696400895681108523,1126.95289066750115125615,-309.878439284535204478743,-521.218054937350530053664,-155.60137599978813227608,227.020900042109417427127,151.57087104031830904205
50.9600000000000008526513,0.513631458789890471550166,0.531475448532239380661224,0.418207462662743223447137,-0.0401163175193823065556309,0.0183899227376829281499493,-0.00845236603221140650465948,0.00633705470825980318738679,-0.00848330054798086471978813,-0.746366152415226968841466,0.665451198823393541559312,-0.0126408565497849248449036,0.0213955136714382293527947,9.7452353537695124430229,0.0170290134090483463724652,-0.0382029703439354662020122,0.0107503944657278485697027,2.26113895185748159377681,4.83599723777351631071042,2.05068050160725201536138,1129.46488624737639838713,1139.24710657674404501449,1144.75545591297031933209,1127.35559924773406237364,-452.265818090338370893733,-323.235637119635839553666,-258.590184223711332833773,76.6242096438660382773378,151.574653758086043353615
50.9624999999999985789145,0.582435076258737471910365,0.429301945589199540620484,0.132371851261013667722111,-0.0379677108906154303635816,0.0197919071265156149008746,-0.00641644149646120650481995,0.00633970721970955261581615,-0.00845253289870735724509387,-0.74637854439799844463721,0.665437667704745883234807,-0.0113961486960364177800642,0.0196717738170254508034418,9.73879305327449884543967,0.0168760315500873295246897,-0.0384546784524751258937947,0.0105899492611959585020021,2.2610405396158914648197,4.83596799137600985574181,2.05070260855469665983719,1128.24994154455293937644,1138.79123675736536824843,1144.01401308783943022718,1127.33601171572013299738,-535.795046961628600001859,-79.9237634778410637181878,-352.830491905616838721471,-58.2814097410093552298349,151.577758192062503894704
50.9650000000000034106051,0.593586750595764711668778,0.275235205585163955621653,-0.175657321722341386305288,-0.0360616224408304431037209,0.0205066411399603652776502,-0.00652688442653574004553851,0.006340692885275275164636,-0.00842161028453885726618999,-0.746387642389144900789688,0.665427844313118410646268,-0.0100156592205186550925688,0.0182478100480628069313127,9.73246198629502679011694,0.0167366217171130669816304,-0.0387134670195272284631827,0.0104159982739096580728333,2.26094182153632505816176,4.83594024227032992513386,2.0507230197571009178148,1126.78591101256688489229,1138.84748775935463527276,1142.99130345344133274921,1127.06419219902886652562,-663.162374993386947608087,129.427703446869770687044,-495.939482233844557867997,-143.459786727880157286563,151.580805206353204539482
50.9675000000000011368684,0.570580634005478204429096,0.0645644970423057962261026,-0.496190212674570529927109,-0.0351105331101420059525253,0.0207449933740837776097177,-0.00909162135349781200255315,0.00633739591777106401476738,-0.00839086024412587401510866,-0.746395133304671998253355,0.665419858423237919886617,-0.00851075409361827517340515,0.0171199001655395061094467,9.72627927736503572475613,0.0166111089437901461585145,-0.0389777536341670144404148,0.0102289612765365627022884,2.26084273459787299387358,4.83591426945171498630316,2.0507418697990824618671,1124.93412966958430843079,1139.43837527460004821478,1141.53431567666893897695,1126.61871278208036528667,-663.023632771603843139019,291.089910182418918793701,-551.581171524459591637424,-162.015992185944952552745,151.584387967920889650486
50.9699999999999988631316,0.542222703644905323905334,-0.109855349994399276170043,-0.677455515581882550257831,-0.0349801815473093288821893,0.0205034956369671873821492,-0.0124817097303068381269897,0.00632954169780926539229382,-0.00836140014239179080179909,-0.746403557100031589399691,0.665410850720896118737357,-0.00691462307065695419572293,0.0163193482342033208132293,9.72028283718884900110879,0.0164993069459294094958324,-0.0392455532017236125019721,0.01002877914033541151273,2.2607431705108389508041,4.83588942319135206560077,2.05076002884737595977072,1123.47079284871188065154,1140.30293731026540626772,1140.23339759582154329109,1126.25411223809987859568,-534.657755653142203300376,406.530382598995231546724,-511.371004180239083325432,-132.925131761772007621403,151.587308059241337332423
50.9725000000000036948222,0.514330890302586274387409,-0.259693296480473678755629,-0.744068310443685154709215,-0.034444382768762070445856,0.0198041742427246710012145,-0.0158533850705680039172574,0.00631775897873978337093703,-0.00833261182214344031660147,-0.74641471889492461144755,0.665398800020751579609168,-0.0052925320461621114254136,0.0158569387769421504819078,9.71451241610681393012783,0.0164001734131116565229558,-0.0395146200816259354771098,0.00981462323964626612293749,2.26064208111199382855716,4.83586442810657235469307,2.05077839952565943448803,1122.26084089131722976163,1141.47102718759606432286,1138.97746065576643559325,1125.95408712327116518281,-424.725645766976469985821,503.438893991384986748017,-477.289739735425882827258,-113.517402916100891729911,151.590156491544092887125
50.9750000000000014210855,0.481979072127286356508336,-0.374490289128582398703315,-0.719715697034020496225537,-0.033400495413108681475034,0.0186789381632412355982442,-0.0186075002396919840508271,0.00630333628999562006062218,-0.00830521653620598307443679,-0.746429052993597519360947,0.665383198646999240999378,-0.00369717620599845087081547,0.0157641899600907547940309,9.70900954520152126292487,0.0163117659461548825117205,-0.0397824998937478663263434,0.00958503394552679376106052,2.26053898178875645186281,4.83583853070247204897214,2.05079791713067960401418,1121.34716461987591173965,1142.82013178022361898911,1137.84694889714319288032,1125.68652522351908373821,-287.923037368262100699212,561.103350734684795497742,-408.044624661131877019216,-116.299660786913861443281,151.592943784043455934807
50.9774999999999991473487,0.431686892841657399166877,-0.434157295082377159278764,-0.610783706001639670191139,-0.0320206231412922953660782,0.0170169674601924440782152,-0.0203984177381491722791385,0.00628444458607160024582461,-0.00828146721297024109020857,-0.746444918618179853453398,0.665365874230172349435009,-0.00211043436080994573078584,0.0160472686799155023207319,9.703818256132898056876,0.0162313391328560256698932,-0.0400467532716415608451399,0.00933783666544509179108235,2.26043415636389033451792,4.83581144175014365771403,2.05081967558834454834482,1120.82122570447722864628,1144.27654394126693659928,1136.93723753246263186156,1125.37258881933712473256,-153.021941133296365933347,627.598850768615193373989,-343.823594850806898648443,-173.777286283895818996825,151.595656450922433577944
50.9800000000000039790393,0.336364429148340082775803,-0.436212136075812773050586,-0.425380388051933899795642,-0.0303772983250295766644022,0.0146119196033314170668493,-0.0215016454088459707527647,0.00626038980580955264909626,-0.0082617906534157379422334,-0.7464623159231593696461,0.665346825855731016652328,-0.000547907253439838815012308,0.016692980592831890840344,9.69898420226051527492928,0.0161559145416900994118858,-0.0403049205893738146655458,0.00907069503229536444610659,2.26032746549672003411047,4.83578250584428737113285,2.05084426978265366159349,1120.58205491420903854305,1145.95812603406830021413,1136.12783092288827901939,1124.81763879209916012769,-40.7012964695487511335159,571.978441627769143451587,-254.857122604795819142964,-243.637000393630813732671,151.598825317420306646454
50.9825000000000017053026,0.222595338253849167609033,-0.387336006675380872810166,-0.255878645698123630136678,-0.0291445475795726050005641,0.0127698363564180111112689,-0.0217964148441047063375908,0.00623195681208546514717739,-0.00824705064551976667341915,-0.746481309184022445712969,0.66532596279142630635306,0.000965819884100237169288761,0.0177066138813898321657803,9.69455345195630791010899,0.0160824228913749103786479,-0.0405547110840555405375518,0.00878170193995464302971765,2.26021875278567163647381,4.83575147163651486437175,2.05087129863723527378738,1120.6177192221293807961,1147.13643614940724546614,1135.66295191943800091394,1124.15440381736834751791,37.215211294312410927887,384.299131724978280999494,-156.676717128045027038752,-301.369532606578445665946,151.601394306965744362969
50.9849999999999994315658,0.0754251530557247945596444,-0.309729051669889288156412,-0.0998857297987515713177942,-0.0281386175216026789003276,0.0120041930810617595432044,-0.02167229384176768205994,0.00620221016792498955338964,-0.00823786573882200057195035,-0.746501686263727259884604,0.665303487373261948079062,0.00237677533848807548411131,0.0191130004111741830241655,9.69057109081216694335126,0.0160079992541473405121,-0.0407941735539200101001711,0.00846991737130697863733531,2.26010857523561448090277,4.83571917330545186786139,2.05089976345103597310526,1120.76813097068043134641,1147.87962169269144396822,1135.34444733724876641645,1123.31079112906763839419,68.6070335329181091310602,190.502074330236467858413,-126.384452616529330271078,-382.291551617286074815638,151.603889109158103565278
50.9875000000000042632564,-0.124303627403133859496975,-0.219002011649278766070026,0.0493084892121498710726435,-0.0274293046189046305083359,0.0124006527995624057231216,-0.0211502402630243842296398,0.00617243927830210103308017,-0.008232780454988732760091,-0.746523945847888836802042,0.665278847160542752270374,0.00363623206233466833570134,0.0208784543121488946892939,9.68708057796915333881316,0.0159304428988676430312132,-0.0410218493943811587931769,0.00813538364653696235984093,2.25999765232618354815486,4.83568633784082102522461,2.05092825616468488192368,1120.96075438979414684582,1148.08894652105891509564,1135.03102965635503096564,1122.24294605928093915281,63.9127503678210331372611,-48.2302180427931190820345,-114.708558924108245946627,-368.432911112170359047013,151.60679740787134051061
50.9900000000000019895197,-0.28944143892502510739817,-0.164023191371796744908451,0.132871578481935120885638,-0.0276115021760155905650169,0.0130061941722811481164657,-0.0205410764197982431689127,0.00614174624558645482902408,-0.00822877866724027774714134,-0.746548433859156701508653,0.665251700040266458202609,0.00471255015950135941471544,0.0229140361585423446566523,9.68412180223482543794944,0.0158483189355585196711473,-0.0412368633707395071397173,0.00777933438288902403406899,2.25988655650520220419253,4.83565337460492905563569,2.05095491756174874709018,1121.08769472251970000798,1147.63847060247735498706,1134.77090454262793173257,1121.46862657350584413507,44.8118526153346579121717,-300.678373114261091814114,-107.744150455898989093839,-248.237825772637961563305,151.609149976966790518418
50.9924999999999997157829,-0.420892146890882390408706,-0.1355229716751922275364,0.17070641486999499347732,-0.0289897793315983740014552,0.0131794982860796647261559,-0.0198753074712835139936651,0.00611186731604895349539985,-0.00822175209451612293287681,-0.746574634604303066787168,0.665222658926474141871665,0.00552656488814792790087438,0.0251455745748583731069559,9.68172800268821376334927,0.0157609262454635398742475,-0.0414388683427853454777079,0.00740458423423394525297869,2.25977613197073745610055,4.83562026886419271676232,2.05097880908925800369502,1121.18481365287061635172,1146.58555465548897700501,1134.49230890407602601044,1121.0017569304188782553,46.8272500805357196895784,-563.5432303137195049203,-117.055768021995532990331,-108.760660115411909032446,151.611429054286986684019
50.9950000000000045474735,-0.504780292715210854304075,-0.12101674570778971073981,0.166618724150680075357656,-0.0319213316349547249206609,0.0130472832881907401664234,-0.0190711817644099480839603,0.00608400523367732138507735,-0.00820492752794910878977319,-0.746601504014258954278205,0.665192966034597432667397,0.0059761100514204787415018,0.0274510448142593482812046,9.67992473145819332103201,0.0156684111203235117149024,-0.0416279671807819606765833,0.00701500596726768298888599,2.2596664465880786920593,4.83558753103631744352242,2.05099918325852881295646,1121.32183097292249840393,1144.82075445090731591335,1134.18562570251765464491,1120.92482327292850641243,63.1587020498177267313622,-687.804503400969338144932,-92.9824798477945506647302,52.4233877690408149874202,151.614079186992142922463
50.9975000000000022737368,-0.500697340362827536530688,-0.112336820985943330875045,0.128325931206389326488804,-0.0348307534841474711329035,0.0127445390190971674648779,-0.018459757850142147900252,0.00606105372552504656491479,-0.00817553718504309898107429,-0.746627962241846909741128,0.665163838295161680136403,0.00598872753229150178722051,0.0297865320852800791184833,9.67872671656876804036074,0.0155718662881688882371201,-0.0418044295428196543973343,0.00661564053280576033766458,2.25955736168517962170199,4.83555635816481022004609,2.05101587838214527437231,1121.50060716311986652727,1143.14653213848237101047,1134.02739650483681543847,1121.26387386926421640965,91.9463623584687894663148,-653.7312501458507085772,-22.706964303254341785987,197.405194540622147769682,151.616217104769020806998
51,-0.43018829726979745942117,-0.0904844013699146465512513,0.0656142368018394206430344,-0.0366700450761097418439505,0.0117823199484403829534473,-0.0180975626966561227437769,0.00604681831640844439507143,-0.00813215832754305735508016,-0.746651606298231795832976,0.665137953881032917280436,0.00549794393872875958306778,0.0321386868551701981866486,9.67813716221474606982156,0.0154730075687028109654442,-0.0419686566084326376224745,0.00621213107855417018959843,2.25944856578057917673164,4.83552835667960057008941,2.05102895567397158771428,1121.78156278471442419686,1141.55209820018103528128,1134.0720908810014861956,1121.91184924563071945158,128.433001075771642263135,-583.996211877123641897924,62.6479979824240658103918,282.680738077244939177035,151.618281887318090639383
51.0024999999999977262632,-0.328301150519480777756343,-0.0494609362789937279103469,-0.00604337253504874660769985,-0.0366873358241923200329104,0.0102813103277866000478946,-0.0181013698202221497146613,0.00604365441045216604531998,-0.00807524266278769435600804,-0.746670426457664127006808,0.665117541073321771882831,0.00448358800100739918192971,0.0345025812314567054128744,9.67814750194791351134427,0.0153740793580434027820747,-0.0421210392825724644350061,0.00581015340314286476974814,2.25933968835629794824627,4.8355041188684966257938,2.05103886190624029595142,1122.14277216849814067245,1140.22655107909940852551,1134.34063649474865087541,1122.67727755964915559161,154.852479716476324256291,-429.427318123824477424932,163.437365856050803358812,297.617092834691504776856,151.620286022114669322036
51.0050000000000025579538,-0.215868104757289902551065,0.00917066892397126222358228,-0.0744736236300451021064006,-0.0355598016060022503737059,0.00900184625578720649941022,-0.0184346486089203634439748,0.00605013908519043148298566,-0.00800779162967267879591482,-0.74668289201780602137859,0.665104294520298955362136,0.00301405937536526613573784,0.0368622128158393874697296,9.67873779652302701492772,0.0152774005133291153335495,-0.0422619584586833227368707,0.00541490305332040667424254,2.25923044460009281308999,4.83548332714603823490052,2.05104652844859813853873,1122.55582518329720187467,1139.40496160956081439508,1134.88927771028215829574,1123.39993470980493839306,176.948402342577963963777,-222.843703979765138001312,292.249128842136656203365,268.659170715544746599335,151.622216954098178121058
51.0075000000000002842171,-0.077084705676110337746465,0.0679660307837043758949491,-0.138065362396621593710222,-0.0352410873470062266377134,0.00887202471151914140445882,-0.0190563143082280311846333,0.00606449568092078117320654,-0.00793422124218523192040742,-0.74668887695984054175824,0.665098319451233432886283,0.00118251741673742333249564,0.0392187194966383684269218,9.67987681742126149231353,0.0151849414645642086935107,-0.0423917687411895158233754,0.00503105923782713650854737,2.25912065790168714585207,4.83546477879753844320021,2.05105263448182606467185,1123.027514180211483108,1139.11233255920001283812,1135.80188213896008164738,1124.02057341322756656155,157.863740532373299174651,5.45410933132684849766747,357.999000623711253865622,168.562774219179630108556,151.624449254543350207314
51.0099999999999980104803,0.0523443766640366084375025,0.0739465471419781666950755,-0.168278904904609977188912,-0.0363370541961843054878933,0.00995693458085293234272051,-0.0197967426568085858029633,0.00608498020007065647252187,-0.00785865920785100771639442,-0.74668998297849553669181,0.665097785452072653988864,-0.00091986302334867015018105,0.0415712326059152620372217,9.68152340924914689423986,0.0150979613951756283518613,-0.0425108607743589356209313,0.00466258823611523029462056,2.25901077538355421481242,4.83544755212208876571367,2.05105703398621841415661,1123.34514388595835043816,1139.43223215621742383519,1136.67927271339908656955,1124.2427485809000700101,103.831886070012473055613,222.35473491589340255814,348.896706802501057609334,21.4241105952514310217794,151.626238607547975334455
51.0125000000000028421709,0.20508303853623938151074,0.00140828391742559011490243,-0.171435850920002713637658,-0.0378174468113727096918453,0.0114705721047250585459265,-0.0206836143550897522125354,0.00610443664892945658806411,-0.00778484213839757046432544,-0.746689066307311133385838,0.66509950789714666896657,-0.00312531192740716362576947,0.0438457514962253686041649,9.6836294464180419083732,0.0150167412849969168081588,-0.0426197524654220311068897,0.00431219091728862313067649,2.25890075601327344756442,4.83543067188367459152687,2.05105951919660256521638,1123.54667361056181107415,1140.22410623378004856932,1137.54636567297347937711,1124.12769396620387851726,60.7659738475975430560538,417.000060724799766376236,350.880505969191858639533,-116.19687511564247017759,151.627954014295454499006
51.0150000000000005684342,0.396416709235421993451354,-0.191231073006333934793943,-0.1489019278081279984427,-0.0379132519101822301754723,0.012962788967154156502537,-0.0213039744942429623564273,0.00611496839433221285597941,-0.00771734037562624673733946,-0.746688590551618958102154,0.665100740522019284739486,-0.0052396904854092804515453,0.0459735354658327571852894,9.68614058158259894071307,0.0149402563850959888003267,-0.0427191149654587501438563,0.00398159453007301822324848,2.25879048426457229581388,4.83541305642694929645131,2.05106061574561326921184,1123.64897375519649358466,1141.51723245984248933382,1138.43367524324594342033,1123.66176420532156043919,16.946017483875898790302,500.595669543873214024643,282.510228044004634284647,-204.578809672197706959196,151.62992647113256339253
51.0174999999999982946974,0.530450899171926337771765,-0.430352301019046479257923,-0.116078099530224188029592,-0.0360204638091400353161475,0.0133637099635026592586717,-0.0213052490305360581190897,0.00611362135245127613636384,-0.0076586772137434378990295,-0.746689690038255693416147,0.665100207777038932022151,-0.00716044029470352949573453,0.0479231072784402772901657,9.68899746120878901933793,0.0148660807672476823204644,-0.0428097868647014032084108,0.00367176505030135640755828,2.25868010782761885479886,4.8353937031593261508533,2.05106095032484647688875,1123.63140369798111350974,1142.72708458149713806051,1138.95891681319221788726,1123.10479991784382036712,-23.2302259568650093513043,481.303078853469969544676,148.652972570622637249471,-223.846741895544340650304,151.631498006556995505889
51.020000000000003126388,0.599586181325987732648741,-0.718390693625207132910759,-0.0764730161901384930533965,-0.0335918197720424249741455,0.0124271191799394248311827,-0.0210894770487685540016898,0.00610292488986257427446835,-0.00761026326738724074455478,-0.746694232473539387662242,0.665095773720254190841672,-0.00887186476336716822732598,0.0497207983547172244209733,9.69213752458236221798415,0.0147909036729718251779175,-0.0428926469750636613076367,0.003382959170362277289551,2.25856958987112932391028,4.83537103824393543760607,2.05106190531111831631961,1123.53282262541210911877,1143.92374785411107041,1139.17694010609943688905,1122.5425304958432661806,-54.474691309605404399008,500.589138335652421574196,10.4062581060990364534291,-209.376132149538733528971,151.632994025094035350776
51.0225000000000008526513,0.582011654518939547386935,-1.06618932767100371705737,-0.0222315844360467737561571,-0.0310767227040518873026897,0.00999084668374788410771803,-0.0209058095135392363328464,0.00608681641666997813588935,-0.00757442873989112256533085,-0.746702506030141544002277,0.665087052293223068843986,-0.0103592019235421092804295,0.0514281879716442097416618,9.69549778968278097579514,0.0147106821645267196035922,-0.0429686725263645277750335,0.00311460714934153580502052,2.25845915229647964395099,4.83534481093260382067456,2.05106460704730420019359,1123.35903024143294715032,1145.23003027317668056639,1139.01094810372273968824,1122.05791925709559109237,-65.4267117177964081520258,447.550002161458507998759,-136.559263036530467161356,-126.317493410739473347348,151.634701493938109706505
51.0249999999999985789145,0.476941895316067565602225,-1.31424129990049531890861,0.0327909827884864460423309,-0.0290938626944372107085979,0.00687160626056552547441525,-0.0209313988960782050574583,0.00606629918245336213766805,-0.00755213583045350519279415,-0.746713355966013292430716,0.66507531915061335325845,-0.0115753291963231891292807,0.0530531125533521968895556,9.69901840154105165936471,0.0146211869534707879919599,-0.0430388725669264768369793,0.00286514203906164735546902,2.25834890537885168981802,4.83531642027012509288397,2.05106882257559419713289,1123.20568906682342458225,1146.16149786491632767138,1138.4941437909174055676,1121.91094302879014321661,-51.1106629847938620514469,333.19618668612071132884,-277.669529003145555634546,0.327925176952535868402094,151.636051163303449129671
51.0275000000000034106051,0.28154666015256346600637,-1.46882989576363787165292,0.105061766921129659535517,-0.0271906463729529035422416,0.00256895580963408236979673,-0.0211540791936687747054613,0.00604207855120742279297907,-0.00754025807270880966265425,-0.746726994477170391562026,0.665060364653433544468442,-0.0125152390161918786182227,0.0545437875508356512233021,9.70264418330657463229727,0.0145188002826586205762371,-0.0431040566248939091553716,0.00263241804639143851807237,2.2582386255917907824653,4.83528707524479095525294,2.05107394812574606035582,1123.10347692650884710019,1146.8960112066081364901,1137.62260045870630165155,1122.05955888298035461048,-22.598280372801390569748,257.603044557076941600826,-388.893468116367557740887,99.5696401523164098534835,151.637324994017376411648
51.0300000000000011368684,0.0243667438021459674402092,-1.51605039109819395015677,0.194536667497618859234976,-0.0254812429185672893738879,-0.00234901642717385292571941,-0.0214520145853198153373942,0.00601380834478881451388155,-0.00753137458137699295629419,-0.746744376361745620940269,0.665041204129428242808331,-0.0132090915381694873342866,0.0557759981736637017180058,9.70632627774015688260079,0.0144007303977772543185365,-0.0431647947240494170295655,0.00241391215391951411556315,2.25812785980316110823196,4.83525733024922388381128,2.05107892364587529598907,1123.09269766495935982675,1147.44951308770237119461,1136.54967645033457301906,1122.40879122955197999545,26.5339058798204270317456,173.461880232001448121082,-439.916019883084970842901,166.737364715269677617471,151.638536257321248967855
51.0324999999999988631316,-0.274032260484347922613324,-1.41531487793228238913912,0.300409520263459572930742,-0.0250206154581320353025298,-0.0075315948236560487094593,-0.0215912571495934131615702,0.0059824530062814228539847,-0.00751711924398700860605604,-0.746766039894546262978281,0.665017318688788772185205,-0.0137149286308100373799057,0.0566321406266291765829735,9.71002194581129884909387,0.0142650331184738885653696,-0.0432214423171448230975855,0.00220720444308574424707725,2.25801637269001531649337,4.83522745211857429836755,2.05108285732813611090819,1123.23614645590782856743,1147.76332060776735488616,1135.42302035929287740146,1122.89324570655594470736,101.111872834001701448869,76.8089849606047181396207,-448.028854679931100690737,212.390898343556301597346,151.63967270156047106866
51.0350000000000036948222,-0.617159798965601691378424,-1.12951797380966101336242,0.427263648282485308804723,-0.0267752803867533674397894,-0.0130970403487553292004586,-0.0210757570240709783682131,0.00594898075578462887103015,-0.00749418013640333266489613,-0.746790570174416412640994,0.664990324387070730338678,-0.014024221732867665768385,0.0570715998768853011169355,9.71369450861005745423427,0.0141105334590762264423969,-0.0432742513011277127321641,0.00201015844545423053024713,2.25790425891454882290077,4.83519782866823710776316,2.05108605558525036727247,1123.59825702912962697155,1147.83355801250559125037,1134.30953217693377155229,1123.47074572127030478441,158.401720262609984501978,-28.4635233240660348030815,-325.678285156497452135227,189.179515755262031007078,151.640951047411306262802
51.0375000000000014210855,-0.84240409097322166420696,-0.781478339680445888149052,0.510518076641900186984913,-0.0298858701550056941875777,-0.0163234332817213806388068,-0.0198395044988318412781947,0.00591461458770627199893477,-0.0074611908368541202118962,-0.746816073877820785220649,0.66496235145878967998101,-0.0141084383003540689283106,0.0570888362281401634534816,9.7173141330990393527145,0.0139370532927100693187938,-0.0433234071895449573963432,0.00182076312351436907059632,2.25779113322051250278832,4.83516902616878851972615,2.05108900669586136089606,1124.02815505722128364141,1147.62100299114695189928,1133.79462893350955710048,1123.839143285332738742,184.192123596662156614912,-140.826402856046854594751,-82.2966069704601039802583,103.379303181557929747214,151.641946200035903302705
51.0399999999999991473487,-0.962296879250739922717628,-0.372962149360976047418603,0.541296728934772097829864,-0.0339494640788228774219704,-0.0175904717123108421394928,-0.0178577744797001058962849,0.00587949683104715698639398,-0.00741844145083950419483632,-0.746841081676243301323836,0.66493504540387804446766,-0.0139063060675800390098011,0.0566919476522699111731285,9.72085827483536490944971,0.0137455177030224324347119,-0.0433691174211450064523987,0.00163701348014237495730183,2.25767683663004037342148,4.83514167389100624205867,2.05109166780016893838479,1124.51921764711210016685,1147.12942599822599731851,1133.89804914208184527524,1123.98764223717762433807,210.132990850599355781014,-272.008714736736692429986,205.261685857098683527511,1.57494320028410039746802,151.642870015495361712965
51.0425000000000039790393,-0.969794241153128067089995,0.116430265270469179839097,0.492733536507854175123811,-0.0387801061670083116461605,-0.0169467666138425135380352,-0.0149376045166823012699808,0.00584156024530054461540995,-0.0073680066127665569744587,-0.746865422208769613732215,0.664908592524179220539793,-0.0133086903584591492721856,0.0558899933613832694545565,9.72431169454552879471976,0.0135379864599074039438475,-0.0434117360801099250178225,0.00145686847028499589368211,2.2575619630435435070126,4.83511573338995592763467,2.05109473501478456469727,1125.07882001147481787484,1146.26095941746257267368,1134.8209373627955756092,1123.84701800133416327299,187.042586117918091304091,-352.918987657905290689087,462.691210475386242251261,-104.422756496243223978126,151.643898119985180983349
51.0450000000000017053026,-0.877148093909620230057556,0.478437597076012632868469,0.376353588493155255534361,-0.0417901361635197518551443,-0.0149795615792844370034453,-0.0125508741726498649488031,0.00580198134348945248478513,-0.00731171060802389503191501,-0.746889325604367160238439,0.664882701661670072468269,-0.0122666351695258149523404,0.0547343408735690289956821,9.72766474505779399351013,0.0133174063948343947283437,-0.0434519241102660630504673,0.00127867321699551110547599,2.25744732841750694873895,4.83509083602357048192744,2.05109861079375299652838,1125.45443057770216910285,1145.36483105993556819158,1136.21150519445995996648,1123.46552845469614112517,119.489083965817812327259,-375.868158649314750618942,651.182032741872831138608,-194.003809744885074906051,151.644689467033600749346
51.0474999999999994315658,-0.720305070799751145926848,0.757095791627092506992369,0.196634306923015034218594,-0.0432338103333994305810251,-0.0121917232896660322760685,-0.0111628662082981777725621,0.00576188026003824835252765,-0.00725067535325558867181917,-0.746911409526460734475961,0.664858901940653446160923,-0.0107514523847618490015599,0.0532699952541278304307681,9.73091355776312916248116,0.0130872497986123034752204,-0.0434907716686723580523655,0.00110102746663610548925882,2.25733337926978583354298,4.83506684784308404800868,2.05110280947000234164079,1125.67626543130336358445,1144.3816186242177082022,1138.0768475265019787912,1122.87699895261062010832,52.4549146075701102631683,-430.75811068475348974971,869.447301499950185643684,-277.706425518903245119873,151.645415127893443241192
51.0500000000000042632564,-0.506073787701738497801784,0.980729868828522866053277,-0.0529919257850564318079734,-0.0438096367326383379081634,-0.00856743611548482601747434,-0.0111799660347965627155142,0.00572188586436818674013649,-0.00718578142731690194117133,-0.746931119673962862215433,0.664837800625264985221463,-0.00874512300913025952819879,0.0515364867087580030835525,9.73405905287737382991509,0.0128517615228308478003694,-0.0435296331164386277046141,0.000922918103870633017155045,2.25722034888809952590805,4.83504350911890057318487,2.05110705868085574365978,1125.71670515074015384016,1143.21104050651069883315,1140.55874170196193517768,1122.07699632710091464105,-28.2128759021217128122316,-413.56444631903048048116,900.233885814480913722946,-284.793928223998420889984,151.646212823524223267668
51.0525000000000019895197,-0.330829498286154377595381,1.0798702791981542592481,-0.257051890084590117790952,-0.0439820204753889609783357,-0.00558773203698187479609993,-0.0123582666413333732563506,0.00567891324642350904527976,-0.00711845302842093428929982,-0.746948002246421660643705,0.664819919493780830954677,-0.00618488268498091492419988,0.0495377747895268533140367,9.73710642003312720760277,0.0126158201302591956027843,-0.0435700465919165863537543,0.000743611141932092848012836,2.25710768515221404939552,4.83502077419833486970902,2.05111135156399670975702,1125.53520105179268284701,1142.31379639262149794376,1142.57801695557668608672,1121.45302931148989955545,-122.80706966496182985793,-329.455950828223137705209,742.264771971797244987101,-217.699612531867103371042,151.646818914832209657106
51.0549999999999997157829,-0.173291013672834587344695,1.10663685059741290217517,-0.427168235987699929090411,-0.0441558071029873114299313,-0.00290327008612915795499054,-0.014059166689966262620004,0.00563079226605272230299359,-0.00705181635531127240512639,-0.746961378394208286302103,0.664806007367556128784258,-0.00301669884313578856582794,0.0473190068321895224157103,9.74006234073595145162017,0.0123848665969519319135506,-0.0436136409109524406102487,0.000563139399437969398291848,2.25699511320682333348486,4.83499917161554915168153,2.05111521218587977699599,1125.10266980241590317746,1141.56376075237108125293,1144.2700655618175460404,1120.98849826444256905233,-217.702553969982119497217,-268.783794080762902467541,592.327800979743983589287,-150.94607503589494967855,151.647367036934610950993
51.0575000000000045474735,-0.0328775547361459322126542,1.0910358042600416528245,-0.557461729714242237854194,-0.0441880713482153408833142,-0.000602438947388309899676206,-0.0158317472352674064317579,0.00558125728880487590594095,-0.00698572002615466085273521,-0.746971445189219984683859,0.664795813163979065762987,0.000666716854053048257888747,0.0449584052544209217261439,9.74293337519338109586897,0.0121649790901143337734647,-0.0436620549812747060780538,0.000382463241456036250227879,2.25688286223239842342991,4.8349802462933988422833,2.05111763549446646237584,1124.44668828194221532613,1140.96987742221699591028,1145.53965596047692088177,1120.69829893631003869814,-316.646255423322031674616,-195.443222615167599087727,389.349558321901895396877,-75.0068162903588131484867,151.647869422911441006363
51.0600000000000022737368,0.0889187407583263700328047,1.04369663247310962006509,-0.63676993663449654725639,-0.0439538339164078639687006,0.00134194648352895136433904,-0.0175109081818825527976369,0.00553729460611226530913909,-0.00691811691761284180968161,-0.746978675304106998211751,0.664788768636109916876364,0.00468241247203723953695942,0.0425527806184210627415965,9.74572540605165649196806,0.0119625840356944370540537,-0.0437169454618809918966527,0.000203247084019238954564687,2.25677149723354553145782,4.83496531141300156519947,2.05111826704231292595182,1123.51943852529848300037,1140.58654463929474331962,1146.21681335342805141408,1120.61346418299058314005,-464.240201468341410873109,-118.339781037837695976123,166.313478055113876052928,-0.213656766891484634074416,151.64831962731810222067
51.0625,0.219701329962603997270065,0.965759895290000169865152,-0.676974918603389541615911,-0.0436250198433317248891683,0.00347961995849397102628653,-0.019248632945151805673234,0.00550384397626485673271635,-0.00684939560621040596788411,-0.746984805967375153912258,0.664782877370297065056093,0.00889107959749661086457095,0.0402113271282885514912309,9.74844321353926446249716,0.0117841656900157000509299,-0.0437799026816851830079536,2.75007793945945355849197e-05,2.25666146985118531986814,4.83495431126456054471419,2.05111745784276822135439,1122.12548727460261943634,1140.37817851702834559546,1146.37122335075173396035,1120.69723065247558224655,-547.643393499854596484511,-35.3229409721146296874394,-33.2980334927317898063848,52.0244408215167126741107,151.648803317611282182042
51.0649999999999977262632,0.320716829742573483752466,0.885970282842435286063676,-0.668352192237994136014834,-0.0432652324971158699917773,0.00512100495856972291047748,-0.0205431091368045715128687,0.00548377956744475029970953,-0.00678019244288480694288213,-0.746990262603761556725601,0.664777633377459209462756,0.0131711170935836230366789,0.0380229811520789301448886,9.7510899983519827571854,0.0116353951376235685566396,-0.0438524266054564001993121,-0.000142697887280353389845636,2.25655304478632734443977,4.83494628238772783390687,2.05111558146731987051226,1120.78122155780170032813,1140.40992993443433078937,1146.05032318596454388171,1120.87358638709793012822,-557.001736452763566376234,52.1015217640712720026386,-187.506629901231036683384,83.7681959816590051559615,151.649161851116588195509
51.0675000000000025579538,0.416138162229306884931646,0.784117661320071102082352,-0.616640328441352525423724,-0.0425020112010684805725624,0.00678826731300986082467963,-0.0218860687542032743280185,0.00547531430833077779884999,-0.00671173137689503630787247,-0.746994037957745771194595,0.66477417239614733368569,0.0174632893856225823725481,0.0360265815372110970171704,9.75366724660205797192702,0.0115206252286785167104899,-0.0439357453113654108922681,-0.00030551281420749664286679,2.25644600506259696004463,4.8349402684322440038045,2.0511127456120554768404,1119.34047859233737653994,1140.63868612584883521777,1145.43369020124509916059,1121.11607163238409157202,-628.065120707648702591541,137.856295636786370550908,-299.524026072487231431296,118.141588524971254514639,151.649477024093442878439
51.0700000000000002842171,0.523119432459412503355622,0.619514616005419904709584,-0.500308352049356086510556,-0.0411895945880344088729785,0.00946177673305294633654405,-0.0236997888023381501898523,0.00547221064738001930494171,-0.00664593780480199954746601,-0.746996760359515454830159,0.664771819393312424217868,0.0217717887732950671209053,0.0342137539225228631822873,9.75617425977415031468354,0.0114429354090110277364367,-0.0440305051585680659598232,-0.000459431141204121962304946,2.25633947924674371776632,4.8349352465778023812959,2.05110865421170052158573,1117.64089595426185042015,1141.09921141261861521343,1144.55270305560134147527,1121.46429432972308859462,-595.076514631268878474657,189.447360175735809662001,-324.479599904656879516551,137.717037993513912397248,151.649808162458413107743
51.0724999999999980104803,0.604182145184681274052707,0.436427193723059492214134,-0.354738665041974154945592,-0.0400663740753758601531587,0.012189366247586342142939,-0.0252733734960675533731678,0.00547224591764472554494825,-0.0065850766996774215064625,-0.746999591312387023478436,0.664769263550741840163028,0.0260399562806694490069148,0.0326321844128316801425527,9.75860659519794992888819,0.0114037932439754064600779,-0.0441366603469057899866712,-0.000602767758273765538734601,2.25623335016723913781789,4.83493027881811965329462,2.05110248352402457783228,1116.36509601918373846274,1141.58592292672665280406,1143.81129220172329041816,1121.80465682235103486164,-453.62810985806828512068,199.122423634833467076533,-284.809334478031644266594,146.773112269208866109693,151.650046937439952898785
51.0750000000000028421709,0.672737132142285809699445,0.209710471804226333825127,-0.160559145624337068491982,-0.0389573449270590940751724,0.0144154905152180032312792,-0.0265992120820077483644983,0.00547422729043357814138204,-0.00653141242909152913015403,-0.747003682112191591535577,0.664765197421545828149192,0.0301932933532007008459175,0.0313405837489783151150746,9.7609572869521574745022,0.0114029234954954507980096,-0.0442533940667288738790575,-0.000734105348453006120029718,2.25612710319906284439639,4.83492421851227049955924,2.05109459083187006811499,1115.37275540497034853615,1142.09482353079329186585,1143.12865638321045480552,1122.19815989106950837595,-345.100094689183492846496,208.154634413252011881923,-286.006037099868194673036,180.617703990172600470032,151.650249357164113916951
51.0775000000000005684342,0.729245300146149633135906,-0.0776448827114566697549236,0.11326619080122779514852,-0.0370108077360332479721627,0.0152944860223852945046996,-0.0274676845773324865285225,0.0054773122919009580716887,-0.00648420865480176834838577,-0.747009925985153144800677,0.664758630453713528218884,0.0341144064126537374659343,0.0303546775530203344350966,9.76321833177808429127253,0.0114383679015481447976965,-0.0443790706522664349376051,-0.000852723722547895105969284,2.25601940007452217429318,4.83491657285843334790343,2.05108566784365020652103,1114.63959554573693822022,1142.6266960987934453442,1142.38126201622321786999,1122.70774534230235985888,-181.43089896009900030549,170.246378972224420067505,-266.94902044243184491279,185.756608286452092215768,151.650452546116270013954
51.0799999999999982946974,0.743344504633208003063771,-0.28980135054704042607554,0.354423322296820997312494,-0.0349417396903689350673439,0.0142036139958397842480986,-0.0272530359180211435854435,0.00547961052889394187315197,-0.00644328443533972658463505,-0.747019426159819643906701,0.664748339895005480038037,0.0377133024422738605263561,0.0296795589505164242316582,9.76538120330580028394252,0.0115067544196097524406008,-0.0445112887137433868578462,-0.000958686904004305158986943,2.25590880791674752714471,4.83490719057061824059929,2.05107636024430517451833,1114.46560091017067861685,1142.94605542565363975882,1141.79391128099950947217,1123.12694293250092414382,21.8718888087439111700405,97.9383419953545910630055,-234.566768162192659019638,155.164800182740435730011,151.650590336228191290502
51.082500000000003126388,0.711646387519873524496461,-0.42679950455604592773895,0.575801481792787117619525,-0.0329572408915136463858353,0.011497012741530164559034,-0.02594710488114441646057,0.00547853732838391501575037,-0.0064082911547190170992172,-0.747031976724772062148361,0.664734582162078924127968,0.0409166062936156954554789,0.0293026039544183464213845,9.76743795379744383922116,0.0116033738353526899578227,-0.0446471800236801982797452,-0.00105291792671732787819994,2.25579496425826242500534,4.83489582647871429799125,2.05106711523758500348436,1114.74895498978071373131,1143.11638780877046883688,1141.20842817541165459261,1123.4835693432164589467,214.547927759876358777547,51.8847358021237710090645,-263.177595740991762340855,128.431839972952502648695,151.650697319554012665321
51.0850000000000008526513,0.613067854127517408713288,-0.476365892448819105986502,0.778524986518389860989942,-0.0307986276825349611363514,0.00764737701706746930696568,-0.0234392088039302587398893,0.00547079279846156459055084,-0.006377614908377574748366,-0.747046942675430480917953,0.664718114502068968540982,0.0436565490134889766515869,0.0291763499496112826969707,9.76938248625974026140284,0.0117226158863636756302107,-0.0447837408339726711359319,-0.00113722975842014723153739,2.2556786332280900353453,4.83488202765522423476341,2.05105911653248229598034,1115.53834054897060923395,1143.20547910466439134325,1140.47802330229387735017,1123.76910213236601521203,343.047037945046270124294,30.5692677204938902946196,-274.363641085641916106397,71.3677520084014531676075,151.650792554589031624346
51.0874999999999985789145,0.478108850945490715389496,-0.42948118461701295656141,0.870295064653808569943294,-0.0290531426570721125479668,0.00512642377547907913265535,-0.0209203803775588302593658,0.00545301940475675320924021,-0.00634854846905884805108311,-0.747064746473312557561997,0.664698516193581778743749,0.0458658657912842798731745,0.0292291525787639200339996,9.77121136015056990231642,0.0118585342386399294339894,-0.0449181163499241600800538,-0.00121411359290916312687891,2.25556052882618507382517,4.83486504450182774661471,2.0510535355222190290192,1116.4641901795043850143,1143.26923414737279927067,1139.83660996998469272512,1123.84040810325814163662,393.280217655254773490014,45.753540044074057391299,-260.897401201967340966803,-15.5589266521394602449391,151.650846267119135291068
51.0900000000000034106051,0.290742391482387618761862,-0.329711891929407863166546,0.861138139696347337803672,-0.0275737212692830357951834,0.00410564119385580742621622,-0.0181260088318457475431433,0.0054232360201050917522525,-0.0063204182545922157551721,-0.747086819476460051170363,0.664674200913856760841725,0.047499303509377643894851,0.0294294341191820157943582,9.77292362512783086003765,0.0120052638934520124192051,-0.045047826560002564300067,-0.00128615354861013036352757,2.25544175069099139818718,4.83484494958581745294168,2.0510507699004505433038,1117.50474163724788922991,1143.43424680488487865659,1139.17353629628337330359,1123.69130749910527811153,409.860835537091986680025,93.709272927660350660517,-261.816203374339920628699,-100.781569694930396963173,151.65087590609493872762
51.0925000000000011368684,0.0678920496794111760774371,-0.225651160223612673449978,0.760614541882773997905076,-0.0265921866531825083768137,0.00437076527938774685860812,-0.0151294090817571877383152,0.00538026579430364061684688,-0.0062913789826558623105579,-0.747112500372657195590875,0.664645939213845848847484,0.0485019467873412449265835,0.0297315609281939979835485,9.77452199462036297461509,0.0121570415723670048613325,-0.0451709473259413948897922,-0.00135581626803294233440944,2.25532310303161498410418,4.83482267611047333843999,2.05105006406675816066354,1118.51349435719089342456,1143.73778051201134076109,1138.5275289531123235065,1123.3365002547832318669,370.876461585085849037569,154.67676424405425450459,-238.940456191620739900827,-192.323231570382915833761,151.650887635075179105115
51.0949999999999988631316,-0.179789711682152075766794,-0.158043907013739021172327,0.554196176672770324245221,-0.0263589535876146557891175,0.00570772647918720531234893,-0.0121543881110956104862897,0.00532578599443299383064954,-0.00625942502532926634689625,-0.747140053963593286923128,0.664615687400899379788655,0.0487928282066762003532645,0.0301177124147774949447509,9.77601241496859252322338,0.0123086943204197326456883,-0.0452860301949410543054242,-0.00142485301940622989189111,2.2552050115539699071121,4.83479925573541180483517,2.05104987118357184883166,1119.35912394517163193086,1144.20763062610444649181,1137.97883401532635616604,1122.72969134125423806836,316.238081768617234956764,228.507607879256710248228,-192.859821836365455283158,-318.119807034619100249984,151.650880430939508869415
51.0975000000000036948222,-0.473792172894746399514077,-0.145193422425904272721198,0.213904899377319240860729,-0.0270438506908549924911966,0.00731025439665228867619495,-0.00964696366191487852947972,0.00526458604873917147132234,-0.00622385310059874862637086,-0.747168280786937311077622,0.664584762848953070069058,0.0482799666145491551683122,0.0306233338064901133845908,9.77740348798355896065004,0.0124560467599805664573598,-0.0453919264340104933186382,-0.00149398338887824898985057,2.25508740782723293705203,4.83477608034232719802503,2.05104866116730466529816,1120.09468476603478848119,1144.88031855140820880479,1137.56322984393000297132,1121.7459012196093226521,221.181262000550844959434,245.715699535195909675167,-92.0895747952710763684081,-391.35019650050696782273,151.650853567786612074997
51.1000000000000014210855,-0.688599836512824192702453,-0.185900291506780224182194,-0.106831983305285593832679,-0.0284274341927965301657366,0.00778556282292502867953266,-0.0093594982156294248554218,0.00520412448369721863938864,-0.0061843985310822821230281,-0.747195876036045092405402,0.664554577067215768160224,0.0468553814486581329812331,0.0313195073632059201029776,9.77870626898836547979954,0.0125958334264903368260313,-0.0454876842724475580204135,-0.00156297994958759685346639,2.25497008944956434106643,4.83475465864820375117006,2.05104529033333893295321,1120.46503025517495188979,1145.43620912378105458629,1137.51838614134976523928,1120.77294035875070221664,105.109667639640164793491,199.937989625777788660344,62.3928803022066773564802,-398.445921461824070775037,151.650818802547206587406
51.1024999999999991473487,-0.8377126048648694256471,-0.252094846892664481430302,-0.407769738851772589605105,-0.0306314588692188222163182,0.0070376942273759780094311,-0.0111286580922554771688748,0.0051535626626457026189243,-0.00614035104684673184449739,-0.747222262718112539836568,0.664525713419938490744698,0.044397037201948007234531,0.0322883340928903778133119,9.77993401895094294218325,0.0127255999771334251530197,-0.0455724380109191889998144,-0.00163099819591030104244667,2.2548526944068942867716,4.83473601974995315089245,2.05103930443654514093055,1120.62023310423251132306,1145.8800084995361885376,1137.87519424544075263839,1119.75367161230201418221,31.4575741745850834263365,157.786646743135179349338,254.148012688717273022121,-424.113634677870720679493,151.65077434104540543558
51.1050000000000039790393,-0.905040823271554328854904,-0.321927790030605731619318,-0.688847105264079995201598,-0.0342139058513285382323588,0.00502927140294566824008093,-0.0145150331607263663458163,0.00511592127230862860759464,-0.00609097914269224414290926,-0.747247379078165407939593,0.664498223872576510018462,0.0408883974287141890857633,0.0335280098236008655687712,9.7811027667133547680578,0.0128432689732925625625271,-0.0456453954545270601528273,-0.00169750626676393049155345,2.25473463167716259292206,4.83471946384827333531575,2.05103133701307216441023,1120.62231812604795777588,1146.22514235749713407131,1138.789126204794001751,1118.65237218536026375659,-21.9586754590524364516568,100.093113069209451282404,404.787275902501562541147,-354.692546547176334570395,151.650712723778525514717
51.1075000000000017053026,-0.850933785608001258538025,-0.352274947317527009627014,-0.833222095318959188325891,-0.0378595647762049111739735,0.0031547035877161834667437,-0.01748454595883901230291,0.00508953682794938654099237,-0.0060368582618356416910621,-0.74727038247808252879878,0.664473063123974139188022,0.0364139974047531303491532,0.0349920188251087033171061,9.78223049863325044839257,0.0129465669877377575341937,-0.0457059598652302181975848,-0.00176242432729788785911174,2.25461570304505576345377,4.83470404282294996534119,2.05102244851581483331415,1120.5104397269371929724,1146.38047406488249180256,1139.89913062495429585397,1117.98020887956522528839,-62.5152531997287184140077,54.4127161356795241431428,486.540023752546915147832,-185.307059018246320647449,151.65065610129673245865
51.1099999999999994315658,-0.682226797045516808459809,-0.347494193525561434476856,-0.879160490851067399908914,-0.0415184883387394176867957,0.00167876721851696847180591,-0.0201316277341965603475682,0.00507015190327577205953169,-0.00598297322425832191900019,-0.747289923190100902061772,0.664451734933729554199999,0.0311685246452066966327266,0.0366626693836154954331263,9.78333604435546888566932,0.0130327771745798928065829,-0.0457538394645206902833223,-0.00182600418611891844936079,2.25449648185680784351348,4.83468912518848181747444,2.05101339684165395738091,1120.30974186004959847196,1146.49720593817528424552,1141.22182632355452369666,1117.72583689026987485704,-105.732235510177389414821,73.039753717520326858903,584.096757508015343773877,11.3110019333304414601571,151.6505952878822540697
51.1125000000000042632564,-0.382464929546795562309569,-0.311978987604215940443453,-0.83308365973791476122301,-0.0445408663622269967996559,0.000541918377213965098831983,-0.0228245929676858076706747,0.00505361213315726198747058,-0.00593327327869294998685668,-0.747305477724080069457102,0.664434822789037315970972,0.0253455855526405551825242,0.038507546730764549702819,9.7844396401848179323224,0.0130987818900813388078852,-0.0457890567471744419636437,-0.00188895539267475804853791,2.25437773680528685815716,4.8346741216252775430462,2.05100507225893879947876,1119.98177854938603559276,1146.74567283347028023854,1142.81961441249586641788,1118.03676388923190643254,-133.248039195427793401905,127.928237249696437061175,553.310393227856138764764,223.032537491166777954277,151.650518150446714571444
51.1150000000000019895197,-0.0988654389481373879755566,-0.271113882628134517105423,-0.725023521324246744690356,-0.0452601946320779213728258,5.92631169428204293276978e-05,-0.024609335035552251658153,0.00503308807931914826971909,-0.00588803838067697080105312,-0.747317411964684596981101,0.664421963261487613650047,0.0191430742529199171553245,0.0404057277356585781147302,9.78556370844120948504496,0.013141010426417791545628,-0.0458119041969522952650884,-0.00195273915313996359460758,2.25425962984187400195424,4.83465778849487293200582,2.05099785245279742085245,1119.64350166407211872865,1147.13684712442409363575,1143.98837828969521979161,1118.84099957772627931263,-145.782689913990708419078,203.557581799171714465047,402.434683978028658657422,422.502954568128643586533,151.650450367496574699544
51.1174999999999997157829,0.152257025758436193019207,-0.23414516188697065413038,-0.562808888689791064763313,-0.0440775528047665926534293,-0.000105430350003064642440756,-0.0258166696273865667321523,0.00500405834861560212811771,-0.00584612422084850383297017,-0.747327080986367020543071,0.664411676529147010583642,0.0127181567492009733877367,0.0422461654362630695258574,9.78673098593071877360217,0.013155551099580308979653,-0.0458228497768584028260186,-0.0020188949362750729064897,2.25414206838849517922085,4.83463900835827065094463,2.05099190638359107907718,1119.25286509981674498704,1147.76346074246521311579,1144.8317878323841796373,1120.14927866207062834292,-160.795580888734150448727,281.865805154840415980289,271.318523724946658148838,582.757660077252012342797,151.650378278332652826066
51.1200000000000045474735,0.331208896209630399010138,-0.208143929576920405644103,-0.366797149169274971924892,-0.041802345256735214118482,-0.000143525061964935683874942,-0.0265216226891328947512516,0.0049642910740969421398705,-0.00580604014709431084928504,-0.747336082204058893552201,0.664402196979243075958266,0.00619999103419196367914523,0.0439439673604801600559355,9.78796352316622630951315,0.013138309301746999707694,-0.0458224416707346746124863,-0.00208877975502571276711361,2.2540244864526362000845,4.8346169341395270890871,2.05098728753254544443507,1118.83952375962803671428,1148.54617615019901677442,1145.3449709083206471405,1121.75478787811402980878,-162.854966580160549938228,322.719216818466975382762,126.003093397256748176005,671.090880224139709753217,151.650301685515898952872
51.1225000000000022737368,0.389478235060700894720753,-0.197720223266993205823994,-0.137832702674285267896437,-0.0392250400473659610600663,-0.000183907872938541763633072,-0.0269126346352593047439594,0.00491398347523287152421867,-0.00576655376249410930172834,-0.747346183245875317346929,0.664391547247154323763141,-0.000306618308344247525454307,0.0454517488881751169360612,9.78928155066769889458556,0.0130854288355539156302187,-0.0458112256148579810588473,-0.00216329828971479308508119,2.25390596995215330977658,4.83459085460489124130845,2.05098414922629590506631,1118.4385902669155257172,1149.37705682655837335915,1145.46180329937078568037,1123.50473306319304356293,-159.817851109219020599994,323.797755394774696924287,-23.6759096569345963700925,741.667658420139218833356,151.650218342987813002765
51.125,0.309813352681675313604615,-0.197239509531247914075891,0.170691790641049501164872,-0.0364285303685597111611472,-0.00041145254544078040895988,-0.02732252273655210936254,0.00485794806261892041926442,-0.00572735922206796775613125,-0.7473600308697043725914,0.664376717117507342713623,-0.00674739512684481568260964,0.0467983956408304785368202,9.79070165532139569108949,0.0129939614038496933229316,-0.0457897356797853441467971,-0.00224245126275488372916134,2.25378586292328808582397,4.83456140632883268892783,2.05098237336859812174339,1118.04043450408266835439,1150.16516492717141773028,1145.22659136003608182364,1125.46312617021135338291,-121.179581708175803100858,212.606928669549773758263,-129.098225867373088249224,653.964587378872238332406,151.650109008755407558056
51.1274999999999977262632,0.133658060428387098772518,-0.197415729063048467351038,0.451445505776542077569502,-0.034236451597890384113132,-0.00085466088777912542061993,-0.0274928930888512501606868,0.00480077351574648147902735,-0.00568939297528401732167991,-0.747378109632737874790109,0.664357119652738026260863,-0.0130462152056640134922816,0.0480316709387195311942165,9.7922366390687063386622,0.0128620156837216063211438,-0.0457587207364980180779312,-0.00232547018647097933699563,2.25366466966191802967501,4.83452983290047200171102,2.05098136032288236307863,1117.83269235837519772758,1150.44009146990515546349,1144.81631217003450728953,1126.77455600008443070692,-46.208043260434358501243,-7.36773376156257242541869,-181.537270689202955509245,425.836357122771403282968,151.650009197279331374375
51.1300000000000025579538,-0.112923254442042209078068,-0.184410516775339594630623,0.740909934317037555118191,-0.0328612061130710980672021,-0.00162716114266165615825921,-0.0270279820944162654794418,0.00474633460263156146258234,-0.00565323265030831696720259,-0.747398886538051865358057,0.664334445768253512021317,-0.0191223185753936139597009,0.0491891034638168994641561,9.79389480946474222378129,0.012689246082327564416059,-0.0457192736295998491957704,-0.00241076547829894996879951,2.25354347451432968085783,4.83449822065435697027169,2.0509794256513891319571,1117.8093942877803783631,1150.12832625836358602101,1144.31890500658960263536,1127.59230795582629980345,39.9692729789671972184806,-284.9953644362264526535,-208.286789746564721781397,235.595687476841220586721,151.64989945874856402952
51.1325000000000002842171,-0.40856468318298644337716,-0.140745542078771213034827,1.0604591973453345588041,-0.0337614838804017047824146,-0.00285369861648793491856746,-0.0251290421624613367901357,0.00469638255593420646943903,-0.0056185630614191857390427,-0.747421095044701444543023,0.66431010991865069303941,-0.0248808982590754956820689,0.0502720017625665344107588,9.79567943518506467626139,0.0124773841369444100229957,-0.0456728044123708015744612,-0.00249606214050895197642532,2.25342325706316337630142,4.83446848197225964582913,2.05097510271493455036307,1118.03253872327013596077,1149.01511464772329418338,1143.77487822130115091568,1127.9525344374692394922,125.183121024542913346522,-512.268721036855140482658,-170.616846666981132329965,38.3233565698340683525203,151.64975552443965511884
51.1349999999999980104803,-0.586506879869186814602244,-0.0783323329562141124071672,1.26498112940763385303455,-0.036889727872263841645939,-0.00387112123293536147458638,-0.0222915465112742024189618,0.00465246686527012297956984,-0.00558434537219895579113205,-0.747443740548456525552012,0.664285227929599875196232,-0.0302427904810456046891254,0.0512731442384933427947047,9.79758740105594938540889,0.0122301716303811636860077,-0.0456210078111986133686528,-0.00257844998438787461822463,2.25330471087794137474702,4.83444221675343221988896,2.05096802327611849037226,1118.43530989290252364299,1147.5669826531816397619,1143.46582077325547288638,1127.7839247386752958846,203.593386771977264970701,-633.209294859665419608064,-74.0548698845562682890886,-138.464167377671515168913,151.649624988151060733799
51.1375000000000028421709,-0.62960106430075646333222,0.00275845784806796195942624,1.35534319867188046693229,-0.0411915988498168655906895,-0.00431058090990023637378847,-0.018291317413260184399082,0.00461259131670996996854583,-0.00555258429836701181830927,-0.747467059800786870482625,0.66425952914497188306342,-0.035050129860037949891538,0.0521882759361097930961293,9.79960918266280600619211,0.0119531202215815996608983,-0.0455657088670179885592226,-0.00265480320282358243227927,2.25318786071214827160247,4.83442046425321247937745,2.05095832111930054253435,1119.05050565713054311345,1145.84906817342334761634,1143.40460387187818014354,1127.26021360058052778186,312.092614221205110425217,-731.836330695194533291215,45.2247319826024636313377,-270.914091825213859010546,151.649483212174544632944
51.1400000000000005684342,-0.501612733382515996183315,0.100504987974854992360818,1.28386887584471121037666,-0.0456793774604087737811753,-0.00390512233981422669099048,-0.0123300480916304130291072,0.00457362018356322931611491,-0.00552541621324107931623182,-0.747491354851508749135292,0.664232677895434275860964,-0.0391420807451976285329387,0.0530048231213160886410307,9.80172861189853250607484,0.0116528493588694184029952,-0.0455087544176058650391425,-0.00272210457681283917591442,2.253072118582109428786,4.83440241259458769462753,2.05094717606322607394986,1119.99577296400934756093,1143.90780099970379524166,1143.69194443316860088089,1126.42935427954853366828,372.760084079275429758127,-628.959765084918217326049,169.508465508506105834385,-304.61179891477024739288,151.649300019091782587566
51.1424999999999982946974,-0.26437515760361435246395,0.165972361928362288630012,1.05806646303340290415917,-0.0480417020180441203813793,-0.00300661741019929255880339,-0.00678123521533923346443773,0.00453185013221758456469779,-0.00550381111260691766040587,-0.747515700689941109402525,0.664205734263008995554856,-0.0423819749615897481409554,0.0536902643127284834312363,9.80392320047439724817195,0.0113363859176802209138835,-0.0454519354283555512830084,-0.00277775249387110425430825,2.25295738206001061598727,4.83438732955042382855027,2.05093500817483898046589,1120.91430607752522519149,1142.70426934800161689054,1144.25214619941993987595,1125.73715460600806181901,382.07834183698201968582,-339.858132278512869106635,286.773047002851569686754,-237.6648802620969149757,151.649136413008250201528
51.145000000000003126388,0.0540013017144555240722781,0.202081258692658749520632,0.677983879181674686797976,-0.0486385505409686197397789,-0.00195261263254505436706698,-0.0019776772535466152942718,0.00448372255276649218230789,-0.00548738799843533596456435,-0.747539091226598895190136,0.664179860485917039625292,-0.0446718374666748088697155,0.0541979027569150367815709,9.80616462825371115741291,0.0110108989865281784586992,-0.0453968571230957199102996,-0.00281970462269014003620082,2.25284379996420813796476,4.83437504497872438946615,2.05092152523682047515763,1121.90616467319523508195,1142.20851033831036147603,1145.12580966818359229364,1125.24102987823744115303,398.629371920993207822903,-63.0885470695052532619229,392.87667998235428967746,-142.059272815204252538024,151.648961191769700462828
51.1475000000000008526513,0.387041999160293137549615,0.211790912896284017064019,0.217927500874075169567945,-0.0477645742162075004344501,-0.00104655383452407200507717,0.000682752112060138090232631,0.00442759065779022367714823,-0.00547777625566624268987903,-0.747560478398092365104333,0.664156235840142050719237,-0.0459351094332076312354296,0.0545383812496760406185459,9.80841878476188355762133,0.0106833513996332004486467,-0.045344866281743570479712,-0.00284633490754342046574754,2.25273141855357872387344,4.83436552094831828441102,2.05090678159537498359555,1122.90745293713121100154,1142.38882661265392925998,1146.21652959933271631598,1125.02685824193167718477,391.483296901598350814311,224.044728522016185934262,473.867029983488350808329,-1.27761713670340903981071,151.648775994541864520215
51.1499999999999985789145,0.674305226686608749631091,0.194884519883446849508601,-0.248719666283503337833594,-0.0453054837334643106805387,-0.000430615874725616778508075,-0.000395110083194599324887125,0.00436723680357604254753667,-0.00547405085549560084523524,-0.74757650533054786912146,0.664138620616791408579616,-0.0462269199825965163008767,0.0547582388177221407454809,9.8106465708723753493814,0.0103598928377577042397872,-0.0452970065847815642201546,-0.0028565930836411479801229,2.25262058613393811867809,4.83435920828422549533343,2.05089133303126169849406,1123.86358115770144650014,1143.32873398091942362953,1147.49514481809887911368,1125.23464179255392991763,400.141317715838283675112,539.356343209189276421966,585.843307408113560086349,189.105591392393421301676,151.648578165430819808535
51.1525000000000034106051,0.900360635490696781246811,0.155478521419455784080554,-0.698267065329330249845441,-0.0411586559126967468924541,-7.32262058624257998777282e-06,-0.00505443322303118433569402,0.00430860263698690845041162,-0.00547068362224946078131715,-0.747585371057572944941683,0.664129047118479087785659,-0.0457129532483175407553411,0.0548652725344192654377551,9.8128068131487182768069,0.0100460320650747007148462,-0.0452537397273026706367993,-0.00285051394788825252987752,2.25251080575691808860483,4.8343550189407142880782,2.05087642987628226975971,1124.90815952571142588567,1145.08560832870125523186,1149.14574613637478250894,1125.97238619889412802877,362.478391605960609922477,696.3819637545459499961,612.411924080384324042825,336.164903959762284557655,151.648325153430533873689
51.1550000000000011368684,0.961157913589299028878088,0.115646665501545675702744,-0.921236401608876653845925,-0.0373756575757934680903638,0.000146241844204519466209752,-0.00980547346624960347583055,0.00425528874253794115595229,-0.00546163072025155748451253,-0.747587027423862071628946,0.664127594863309522743577,-0.0445486520788577547436127,0.0548286578546084285568085,9.8148589497587490626529,0.00974633435533186869015321,-0.0452148338771852717488109,-0.0028293469754287247155955,2.25240078078454430965394,4.83435175258575178247611,2.05086318448633386779534,1125.67597311573217666592,1146.81064379969393485226,1150.55720443850236733851,1126.91546631235360109713,285.351425846543293118884,676.477621366554103587987,563.413510479643605322053,411.700002271947312237899,151.648100387538676159238
51.1574999999999988631316,0.881618885751158321006926,0.0771400140805521411513368,-0.962661038951587055834125,-0.0336964950714736533043947,0.000176336473807381919655379,-0.0138878379623270549469982,0.00420864794628457786207498,-0.00544554728369474067700695,-0.747582718514600563786132,0.664132865258869942159947,-0.0428103454895203475172316,0.0546557892268546979819277,9.81676396609312007512926,0.00946420555863961357467851,-0.0451793927926263452765632,-0.00279509349907217661060366,2.25228975782165141694691,4.83434919951472075183574,2.05085234581337161330339,1126.33491665494284461602,1148.46799643553094938397,1151.96281368877043860266,1128.03088621025199245196,266.256976411978257601731,645.822975640873437441769,612.642845324221866576409,482.788311674611065882345,151.647859887203111384224
51.1600000000000036948222,0.646880529601399856254318,0.0385045445942463343547146,-0.82350680331143466528232,-0.030070007509646369536771,0.000145600999270363465169786,-0.0176139195045267524242227,0.00416814946662961809120684,-0.00542431408094602631603243,-0.747575034152003214948934,0.664141931743643110230835,-0.0405173341401534672923113,0.054374606429674052221479,9.81848581727714631028903,0.00920189981387596264705842,-0.0451459651525453892206841,-0.00275024681562015694408219,2.25217742137511578448539,4.83434668026768754600653,2.05084426545586984147462,1127.00725799779274893808,1150.03975867789995390922,1153.62041866512504384445,1129.32940787072789134982,228.233953691161900678708,473.27271378192909878635,598.590624480096494153258,436.477657646314128214726,151.647551357108568481635
51.1625000000000014210855,0.370691223609849462850008,0.0144960358247274000847993,-0.584954475663819750685946,-0.0282286474717754372332212,0.000100596052216985276466475,-0.0196629202327340581180071,0.00413084977321995922006082,-0.00540138946704559787248545,-0.74756806176941204000741,0.664150184485979400150768,-0.0376430945206879322140203,0.0540019044727341329670267,9.8199928163445200368642,0.00896063782938472629113758,-0.0451127199110997884057284,-0.00269753516762519978192114,2.25206363886030436205488,4.83434240241555368555737,2.05083866127746228258388,1127.47608642339923790132,1150.83436000444180535851,1154.95576681117245243513,1130.21327449848467949778,170.874898681286936152901,195.375120552803650753049,511.867809335410015592061,283.609387241252647982037,151.647276206983434576614
51.1649999999999991473487,0.0679665489286793433887368,-0.00105622085233915592727971,-0.271171702677093007238796,-0.0277461659321716208603803,5.90916494955844042954486e-05,-0.0206165736411524566640274,0.0040926791944245104540312,-0.00537805323455264275983589,-0.747563749627175311296412,0.664155447870654169761906,-0.034179751783614382987242,0.0535054672761358512955709,9.82125840307159236886037,0.00874038587695045998682275,-0.0450777366538498841519456,-0.0026396542555469004395774,2.25194851366424630967344,4.83433637570059282495549,2.05083463004291566278425,1127.86163249119840656931,1151.01663428066308370035,1156.17975771179976618441,1130.74745480693286481255,153.808397361366104405533,-48.2030115954538658229467,485.830537182325087997015,141.297398154047670004729,151.646980425300455408433
51.1675000000000039790393,-0.253680543372437672378084,-0.0117393738058147525937791,0.128993764047914682979723,-0.0285905094981238928897316,2.33857388267748729461168e-05,-0.0205734189005155748697362,0.00405352952539686593042001,-0.00535523573982515932456749,-0.747563382087051642166387,0.664156273419959308768057,-0.0301871433891937740456868,0.052896865242109084026545,9.82225976830969216280209,0.00854043298840670081495396,-0.0450391739094889095862406,-0.00257851063487298708468143,2.25183243482525341505607,4.83432939791196947254548,2.05083118367229566558763,1128.24512841020646192192,1150.5933449464644127147,1157.38491949708532047225,1130.91976148925527922984,129.306100424016449323972,-235.853645025660938472356,373.086459550713811950118,-9.46524656460012536740578,151.646599181857169469367
51.1700000000000017053026,-0.437677797886463715304473,-0.0157785014257847966412385,0.437762402668679106998439,-0.0303736169829706414979853,6.07782786004627628386647e-06,-0.0195493555939508477370392,0.00401607621141033925560304,-0.0053359747853810200399205,-0.747568491155742864684441,0.664150898766921904403659,-0.0257418412024110337954497,0.0522522753057150374234041,9.82297812909506085077282,0.00835981389345524100731311,-0.0449954059133298306383253,-0.00251503221648332383336699,2.25171601780477681487014,4.83432160011665423837712,2.05082732775984544204562,1128.50816299331881964463,1149.8373660555341757572,1158.04519000955428964517,1130.70012857410983997397,93.6076959290800090229823,-343.468842068062713224208,164.318087621190272784588,-142.886012097681373234082,151.646257607894938246318
51.1724999999999994315658,-0.48784341121236857174992,-0.016864185300417840196463,0.673051773953002641093235,-0.0331064009928439609287132,-1.08625539987718178765554e-06,-0.0174402410690231088330471,0.00398150554899625447324851,-0.00532174102735041842926478,-0.747580656392509923513501,0.664137527842846075998295,-0.0209207409807789720956883,0.0516034002441238121017264,9.82340060376462176350287,0.00819751227683220701214495,-0.0449451033482835340948647,-0.00244969731495076666755173,2.25159912671275597162435,4.83431291832436915711924,2.05082201195439672858356,1128.71316688985143628088,1148.87600073612566120573,1158.20650993519052462943,1130.20533142876752208394,70.7807759670778864347085,-385.472040353700492687494,-32.8698497556447435385962,-223.594542450540956224359,151.645888741599776494695
51.1750000000000042632564,-0.407951843692023252696544,-0.0167715106887958050052578,0.818566119721732987635221,-0.0364351198179361582263347,-2.8094319155714943898796e-06,-0.0144415613437736452956406,0.00395336782763317483302412,-0.00531002044426789106962294,-0.747598887635062214762627,0.664117270605004583750031,-0.0158873301685500678548379,0.050953466294880664366751,9.82351954463267418304895,0.00805234804739411551277595,-0.0448873759031887323289745,-0.00238255589676163691270627,2.2514816418833198952143,4.83430307214194776577187,2.05081496890428782720051,1128.86206687315439012309,1147.91000585376468734466,1157.88084076077598183474,1129.58215586185656320595,42.7891863203293993933585,-353.841938240067008791812,-251.130867297987379060942,-259.32771292791960604518,151.645495224889117480416
51.1775000000000019895197,-0.177579916311682600715827,-0.0162492282764439485709396,0.836177235199378143803983,-0.0398573105390836457395665,-1.53159003330290367290338e-06,-0.0107143204837352439690035,0.00393033837131289299354764,-0.00529677145763618028445618,-0.747619335002625673425314,0.664094495624909630926425,-0.0107523285195367801492239,0.0502197415474518876754573,9.82333429754460141225536,0.00792312459758552287136801,-0.0448218418413220270890562,-0.00231387126505455458999605,2.2513639976221435645698,4.8342924336947907804074,2.05080643479620494673554,1128.92711282145319273695,1147.10679104492442093033,1156.9508555986999454035,1128.90869286412726069102,4.87027971553731742204718,-286.334146351360971038957,-529.927020432960375728726,-294.525295882107911893399,151.645069373882705576762
51.1799999999999997157829,0.215802459401402357830335,-0.0156217503088728545956876,0.713502537881466114555451,-0.042237574084539923624515,-7.58988453868727362325568e-07,-0.0066640076908534087718472,0.00391039867925716769919697,-0.00527674286435661759470106,-0.747638125153855748195042,0.664073613480181346169218,-0.00563104585046751010546373,0.0492933763816589681772129,9.82285007325340586703533,0.00780923598972268259016394,-0.0447486361187745193546128,-0.00224406507373867830645864,2.25124639140795190783706,4.83428167080753734552445,2.05079702310169409429363,1128.88641827173205456347,1146.47833512200918448798,1155.23120565861358954862,1128.10952938244736287743,-36.8220682989697607467861,-164.330887398416564337822,-700.53976828222039330285,-293.965126187763075904513,151.644517423963350211125
51.1825000000000045474735,0.565889514849543528995923,-0.0148963327881132812091636,0.517329317584905634674897,-0.0411267532638566121749868,-3.65524656242806407461404e-06,-0.00484280421794648294198105,0.00388845658177717351522418,-0.00524747043774892191897452,-0.747652127746972428035122,0.664058196536599254500288,-0.000555971123830205360416556,0.0480682787076426448757971,9.82207806369703462223697,0.00771086046869535590014832,-0.0446684384087215613501343,-0.00217386955344195213768455,2.25112876117962201760747,4.83427224582906056582488,2.05078709131015912703333,1128.74300247995824975078,1146.28513660793191775156,1153.44815675728705173242,1127.43886723318769327307,-79.6422541109270269998888,-8.68619994243555382240629,-735.119756207028785865987,-283.413066737412520978978,151.644020856431467336733
51.1850000000000022737368,0.83450245113307464084329,-0.0131110849896691021576611,0.26984951387793021382322,-0.0366331106821334018253111,-1.35092312264769800903355e-05,-0.0049105602330405803343516,0.00385983888314275292233391,-0.0052072922320217859826208,-0.747658884366913856212022,0.664051054863935896754867,0.00444651615015636408889677,0.0464589103632137984112305,9.82103510591805317631042,0.00762891191187004078649858,-0.0445825202675483589498384,-0.00210432940796195485158582,2.25101141104354951494315,4.83426575407761749403335,2.0507769634268009362188,1128.48820700117721571587,1146.43490412229698449664,1151.555606877576565239,1126.69246404875957523473,-132.256529504395302865305,133.707080856705687210706,-793.378145939908222317172,-365.740675323664390816703,151.643483834669950738316
51.1875,0.972991976010843195865618,-0.00815171227085680072388385,-0.0396084198353225391819876,-0.029943780422292259890682,-3.62955862653819346513862e-05,-0.00565213629540122809713498,0.00382159164520904943290747,-0.00515492569215778625307811,-0.74765744940619172087537,0.664053283334861688125272,0.00933192373430395682998295,0.0444122333947669506448719,9.8197438462043660223344,0.00756485991291091716681727,-0.0444927696023026952865109,-0.00203682956917159135173945,2.25089516870592865060985,4.83426385457790441790848,2.05076622744659564645531,1128.08171983243687463982,1146.95367201221483810514,1149.48126602759111847263,1125.61016385657103455742,-158.972616651962169953549,234.224851891789711544334,-685.831887701429764092609,-436.125712547378611816384,151.642790623791540838283
51.1899999999999977262632,0.913361433481282847246518,-0.000292222140599705457186808,-0.286996511689805278155774,-0.0250543360400529262210778,-6.475122787595817867249e-05,-0.00610108160080109068745813,0.00377560931562867475516643,-0.00509466675226501533590984,-0.747651239743670092963157,0.664060991542783418672968,0.0140596759710256424824593,0.0420257736029650691422788,9.81823151197187726779703,0.00752057494856642888558795,-0.0444016387270007514831427,-0.00197267680839708064305382,2.2507805929722621840483,4.83426563057116975841154,2.05075525040626116535236,1127.69334391791812777228,1147.6060283817548679508,1148.12644743907253541693,1124.51183548602466544253,-156.05707461560288606961,290.471739770816043346713,-429.284040813407500536414,-475.272073094795530323609,151.642171380543942404984
51.1925000000000025579538,0.696441464185920455776113,0.0129942107730613570781841,-0.50700293994845213596534,-0.0219159100170425759357418,-9.85646580302032706373191e-05,-0.00679097521239282499172507,0.00372692774782164542440865,-0.00503429399116017434884229,-0.747644253905566213980194,0.664069589750133637551244,0.0185929772252133168608523,0.0394957156945774240375258,9.81653109976937443548195,0.00749722478286461886665126,-0.044312112163779567020061,-0.00191341778497324671581836,2.25066812013793748903367,4.83426884043293370041283,2.05074537031366066486271,1127.30143445935846102657,1148.40603071106966126536,1147.33484582352298275509,1123.23380349109584130929,-161.723099436684634611083,367.937393417053556277097,-202.166153621680024343732,-578.525465659208407487313,151.641508564345770082582
51.1950000000000002842171,0.323183110116733673944367,0.0363090152955119829791819,-0.718654976893101871127101,-0.0205304561879223537723682,-0.000128942691720387349069848,-0.0087434033925988235286253,0.00367870821455787986101194,-0.00498188760480290909055112,-0.747639738358245042881833,0.664075345411995310307418,0.0229326481274665927578837,0.0370051268881522038567411,9.8146831599266057821751,0.00749468548657522114914142,-0.0442274991713374684976223,-0.00186132701809050204663776,2.25055826809222558892998,4.83427142360077866101165,2.05073772699963452481597,1126.88472842073429092125,1149.44571534884107677499,1147.1156166709636181622,1121.6192081577271437709,-135.6832911620455774937,382.022157557896207435988,36.31908766850421699246,-577.682395601712073585077,151.640663155766418412895
51.1974999999999980104803,-0.0237266634097163704730793,0.0617494280374790704968291,-0.835506529535846254042042,-0.0209608666485270600521318,-0.000122586191237787563461034,-0.0113268592437517495730148,0.00363349773079430209826723,-0.00494044030924651288161353,-0.747640971878790638882606,0.664074532115057958314708,0.0270295866657320540960008,0.034661074167211244900777,9.8127362408820424377609,0.00751155565614150533271243,-0.0441510806335106975595295,-0.00181940501338283223617398,2.25045121781688761686269,4.8342720469666815574783,2.05073250318868716135512,1126.62301800354885017441,1150.31614149885740516766,1147.5164412618653386744,1120.34539151308990767575,-78.8429976049934850834688,336.149830470013455396838,258.880819505160957305634,-458.337750742695959615958,151.639917768249318896778
51.2000000000000028421709,-0.34628120674352530494744,0.0916865543206124011810232,-0.879018144674959200912667,-0.0224344164232371974521119,-3.92789341873668395406158e-05,-0.0140880907896003063073387,0.00359396749657717347326003,-0.00490749226607872963967782,-0.747647829340960523580861,0.664067294394818818936699,0.0307713302268013341733699,0.0324983932460942287479,9.81074611231417037515712,0.00754483255033613822021499,-0.0440857864382610889486536,-0.00179101947883045838766369,2.25034667337812432919009,4.83427047710759616450105,2.05072981096009776535993,1126.4905134327091218438,1151.12646450119200380868,1148.41002076849008517456,1119.3275194040124915773,-28.1648442110364669588307,307.338608106035394484934,414.02098618620323122741,-341.000322124508045362745,151.639131510691129278712
51.2025000000000005684342,-0.613999316738333411613837,0.122738137795084703562942,-0.862095893709430183271536,-0.0245788003433209216452848,0.000151885664292458728115084,-0.0164388776340976539014349,0.00356435131822906798790274,-0.00487973167098306945255182,-0.747658627828287514205385,0.664055526038101806562963,0.0340215795705337553656022,0.0305646986685668836658536,9.80877341695387627851233,0.00759041308467835358630982,-0.0440337686490533258831803,-0.00177917818959725084274059,2.2502432454910752390731,4.83426629608068392229825,2.05072996784040828543993,1126.48219378249359579058,1151.85283453938836828456,1149.58654619279741382343,1118.64038990246649518667,26.3401333952300227281285,266.443576118232556382281,504.502103389954299927922,-176.474597026368854812972,151.638312564238532331728
51.2049999999999982946974,-0.789176249568395382638641,0.150768727739407970567243,-0.780019348862219574769483,-0.0272711887230042207552749,0.000528853857053287307841971,-0.0182568826531314919170423,0.00354295933207539933545993,-0.00485353789645548861636515,-0.747671379619009646155803,0.664041496021710475616828,0.0367375190754718333741025,0.0288293272253570403984568,9.80688310075616698213707,0.00764356465557342566741195,-0.0439960774548134453398873,-0.00178663010924278798166598,2.25013892482374888714958,4.83425930501230993741046,2.0507319879879104540521,1126.6222140996851521777,1152.45868238178195497312,1150.93253128543756247382,1118.44514641888144979021,90.1309379873958249618227,238.25917742180169511812,588.043736236949598605861,34.3540722417225694584886,151.63745492459995034551
51.207500000000003126388,-0.877975828992370588288452,0.175325092625778167221284,-0.616975410683075820017507,-0.0307450188626067592856383,0.00123502532172513161679017,-0.0202354146594428303818081,0.00353061313017294939667345,-0.00482560587725487655230694,-0.747684614453406837242255,0.664026876741320326580365,0.0388542373181162969952851,0.0273007530483131560794519,9.80514059430264772743158,0.0076994552352144651069521,-0.0439726103123024431029719,-0.00181489716212590752875133,2.25003257495915542918397,4.83424975257024414077023,2.05073490071345831964322,1126.93284847243080548651,1153.04413042649798626371,1152.52676487398366589332,1118.81216026367519589257,130.489035192091790804625,191.869308227289423030015,552.487941890321280880016,225.199932668213762099185,151.636380797071637971385
51.2100000000000008526513,-0.853503486149120416115466,0.185894989346801375873497,-0.433997564238895350285929,-0.0337143809163908472759097,0.00199633727317761371436444,-0.0218183516357050334699696,0.00352712787399784470990238,-0.00479493541623750036545504,-0.747697446370237606139142,0.664012674023155557989639,0.0403619260246615013665306,0.0260081710051012632289869,9.80360954345201918158637,0.00775356146673638561145347,-0.0439622760272451937324512,-0.00186418781770235309977468,2.24992383422804520520799,4.83423785876620204504661,2.05073804426299677317047,1127.2746592756459449447,1153.41802892291889293119,1153.69497099489058200561,1119.57114608222309470875,143.324492484628819966019,124.983812566119908638029,404.796429281491157325945,369.054883617190228051186,151.635447221568455233864
51.2124999999999985789145,-0.744934827086151662989266,0.187859335397249249677287,-0.212353593571764143188574,-0.0365317263042309672838037,0.00272760214051726880557514,-0.023011000462380862968681,0.00353124754433220902627433,-0.00476136674544101658884676,-0.747709446727960802547841,0.66399937985605350654339,0.041286934543814407527762,0.0249774659994202313795242,9.80234944086846660127321,0.00780204472196333476824437,-0.0439632825073425978490427,-0.00193338092264028335240389,2.24981289899604108839526,4.83422445727959804173679,2.05074069230535638297397,1127.64947093485329787654,1153.66904948932801744377,1154.55074702038928080583,1120.65743468175946873089,159.62615794133873237115,76.4152201921724696376259,275.927034654155079351767,503.546050442370642485912,151.634471531295588420107
51.2150000000000034106051,-0.557422112150962933974085,0.18853460109242914377603,0.0787618603056402522000212,-0.0389578128251865524189768,0.00309988495178090562448547,-0.0235183920625650598468237,0.00354132027747482147628233,-0.00472246019595781805350265,-0.747721273285725240853594,0.663986281446145243378965,0.0416398360221289925986454,0.0241927137715079038082777,9.80141350963602420165444,0.00784214729884060747500119,-0.0439734289164470035227161,-0.00202016030861128671053395,2.24970025318411792625284,4.83421094950624397057481,2.05074149671675876049903,1128.07279006535304688441,1153.80010502387995074969,1155.07460616816206311341,1122.08887633443623599305,142.491977859999536804025,12.9676184520510151543249,90.073825025000886057569,505.43835007448768692484,151.633248236870372238627
51.2175000000000011368684,-0.392395261312401266717842,0.194773698833792696660794,0.323130117274741668342841,-0.0396412132484512194641191,0.00296712579375237950687905,-0.0230838050707307569642257,0.0035511324730621912290629,-0.00467845984278910873022106,-0.74773483815312768996364,0.663971258074272596694243,0.0415394596293555129484787,0.0236133711166362225686299,9.80084589910264369905235,0.00787233217427538503607742,-0.0439903836473606313361984,-0.00212118956880331293105013,2.24958676873963181463978,4.83419780542171562132125,2.05073947031240244598393,1128.36193082415366006899,1153.733887581588305693,1155.00111614551451566513,1123.18462643213320006907,95.884488737688926107694,-71.3652225157342030570362,-152.980633563905001892635,376.096435371779193701514,151.632181528882028942462
51.2199999999999988631316,-0.264681542116217916049692,0.209281607066490488167076,0.544126387962010404919511,-0.0392908561804970329900399,0.00293404292253460685299671,-0.0220231410973981654721765,0.00355502207922001869574991,-0.00463102922517342769498372,-0.747751040398271005216202,0.663953317014881583268959,0.0411201034375810042797994,0.0232211199351523844836009,9.80067912737442448189995,0.00789200384069983426615913,-0.0440119348186441619596998,-0.00223213996720121685829463,2.24947370647644406815857,4.83418521340615914283489,2.05073432725411697319373,1128.55221250904105545487,1153.44327891130160423927,1154.30970300034323372529,1123.96935851129342154309,59.6802032922973282325074,-184.34993699956640966775,-455.555665887590066631674,246.597674694031667286254,151.631060552139729225019
51.2225000000000036948222,-0.191786078121405217933315,0.227588188207192648748745,0.752795636760417719024474,-0.0384925579734597053671585,0.00343017700173361451965182,-0.0201737722821355089375395,0.00354968667192354699752022,-0.00457853263253915621078249,-0.747767574092340292502001,0.663935084633563987743798,0.0404422263703399786916037,0.0229732766395331494679866,9.80093322261578947518501,0.00790115810479569309621173,-0.0440360804485653428708147,-0.00234823314452511054672978,2.24936135567767836462849,4.83417375157480577740898,2.05072624500614031362034,1128.66033184061529937026,1152.81213789659000212851,1152.72333781607540004188,1124.41761480560398922535,23.0841633048267027561451,-274.087130641233500227827,-699.029989178240384717355,82.8756949143129304502509,151.629646075805794680491
51.2250000000000014210855,-0.208988967497796052086301,0.23290949979230005095765,0.85790647828438648669902,-0.0375946708323771708326611,0.00425706622949983959358633,-0.0180570247101730779748507,0.00353533510923459068364672,-0.00452240359613172680786075,-0.747781701924910113810085,0.663919632291214534269841,0.0395561778048648671202159,0.0229104937753252246857016,9.80161332371061888579789,0.00790058922091178492119745,-0.0440609329302823066187855,-0.00246421932465385991675721,2.24924948219965914475438,4.834163847911717049044,2.05071638216280849320583,1128.66763332556524801475,1152.07284325809473557456,1150.81455305445024350774,1124.38373698586519822129,-7.17835494611534041808909,-322.718947601263380420278,-850.622191260482054531167,-73.45004374540026503837,151.628404943136501970002
51.2274999999999991473487,-0.29875180830094583139811,0.216579013109286455662783,0.867397472176354988881997,-0.0366876909456622934957437,0.00512189534347679258780017,-0.0152024974221285635866963,0.0035090738737152383196205,-0.00446760513365025441895328,-0.747792333701188804973015,0.663908168352405847478792,0.0386032461342818572491709,0.0230769959161524207402749,9.8027102549172795420418,0.00789191652058698379923474,-0.0440845933482511068146614,-0.00257513073882671694736501,2.24913747932392027450987,4.83415584308526291579255,2.05070570844491761874906,1128.62444006588475531316,1151.19854315858515292348,1148.47022685977685796388,1124.05036458687732192629,-20.4381007623292170194418,-351.344044124109473159479,-965.829244421826615507598,-152.24297063183655609464,151.627093802847269898848
51.2300000000000039790393,-0.42442370471959112165905,0.177566592972102116343436,0.785271211506784472256015,-0.0364904307787579304522829,0.00591162653081282046807488,-0.0118229103238599881492421,0.00346989800268863264262609,-0.00441621300792385297617759,-0.747799989530468112164385,0.663900097766578101143864,0.0376578461009492992950243,0.0234911512482384315925188,9.80420129211979940464516,0.00787735381434084662444217,-0.044105145951077999455503,-0.00267645880966240617970797,2.24902481992303826530133,4.83414998956045049993691,2.05069426009718425163442,1128.56544282175354965148,1150.31612303747328951431,1145.98540683233864001522,1123.6225221327056260634,-24.1374532435988129464022,-326.043666084039273300732,-960.388491091780224451213,-153.912043935373219483154,151.625720934868354561331
51.2325000000000017053026,-0.545040309718681337258772,0.110455129868246834656809,0.594332410201060978849341,-0.0378375179985682708050376,0.00676777820276459277787362,-0.00848743283633052701675492,0.00342156666641228778338868,-0.00436769930962358898102194,-0.747806254847422691156567,0.663893617593351303973748,0.0366883374743271969964376,0.0241868721657829272020379,9.80605044083911181473923,0.00785935783721514007182929,-0.0441207663247881048951271,-0.00276402819090205672039606,2.24891133083152361393786,4.83414615517092816077138,2.05068221525361593648995,1128.50375279966669950227,1149.56832482816412266402,1143.66828440431550006906,1123.2808043672000621882,-30.235440714777936932478,-266.254886395851144698099,-894.344439854962161007279,-91.1000027535838796666212,151.624269480911408436441
51.2349999999999994315658,-0.614765526111789806229524,0.00486982554394783245799161,0.271905924776398799647126,-0.0411206694616336465575301,0.00775054025316363522785101,-0.00595065737711818979610578,0.00336870081128931055103326,-0.00432054903916342849384824,-0.747812442474483307641719,0.663887235758958804687779,0.0356351356002243269127661,0.0251864913139755591808822,9.80820999876001664574687,0.0078401391111465289218696,-0.0441298672531464791779499,-0.00283424428897484500730619,2.24879840118922480485253,4.83414339276302840175958,2.05067010294754759058833,1128.41426561817979745683,1148.98484860549524455564,1141.51368463306789635681,1123.16702211893812091148,-42.6688904487273248378187,-148.833709375154541021402,-636.903918156614736290067,20.9956488929839828472268,151.622431902746143350669
51.2375000000000042632564,-0.570686437045012762148133,-0.0901338617260659669128131,-0.0313659826730024529628515,-0.0445098793216667856786906,0.00815349326303589118369874,-0.0057000528933925445618236,0.00331758490518948949421496,-0.00427179757355617729930319,-0.747819983513054231671902,0.663879327037755762042082,0.0343928235567013407258941,0.0265045271269965937444013,9.81062223532178734330955,0.00782149124901369147133678,-0.0441311120177335994285706,-0.00288408313717845692092379,2.2486874867450579174033,4.83414124603471595520432,2.0506581277586333200702,1128.29040834742295373871,1148.82415628128796925012,1140.48376481353079725523,1123.38578261166503580171,-73.3394377785850792861311,2.38502376587226372350869,-226.184794340745412455362,148.885366708478841246688,151.620817371946458251841
51.2400000000000019895197,-0.401050845766182773033393,-0.166158805220227773213892,-0.31085479357836220959399,-0.0475278359807954214888426,0.00748779264637827648293245,-0.00733154551063129687055175,0.00327048765883635426943155,-0.00421786494932339679070354,-0.747831482149954651639234,0.663866967967449150833659,0.0329044398522252076744188,0.028086115006376852210046,9.81322223980129848541765,0.00780474645713275481939686,-0.0441232038469619586296133,-0.00291143333232172759131307,2.2485784516844899982857,4.83413928981271201479331,2.05064552503974839581247,1128.04756842928668447712,1148.99677372432461197604,1140.38276066136359077063,1123.91144895248089596862,-150.59563933609805985725,133.91717646739735414485,153.464383322173915757958,278.33554681003835185038,151.619112809084924720082
51.2424999999999997157829,-0.0700695733284961430609172,-0.203734061509954267332745,-0.562888817319106005143681,-0.0499601258830705136082528,0.00561514001812469208674283,-0.0105995094235364489820839,0.00322856045678698725179268,-0.00416015722779342761450394,-0.747848054421694441451507,0.663848884751787160496406,0.0311931979291524968944671,0.0299272090425382469858206,9.81593878631386829169969,0.00779033204536804836648489,-0.0441047217771952243525746,-0.0029146036307797955691723,2.2484700358745262072091,4.83413652760422962728626,2.05063251214906516750602,1127.53743015074314826052,1149.49374216362434708572,1141.25108673014096893894,1124.77746034571396194224,-230.566973512186734751594,209.709225904072837920467,441.793203867838656151434,331.711008314381103900814,151.616959686014411090582
51.2450000000000045474735,0.275672367730258438545121,-0.17756133591612033306717,-0.682905394288911171685186,-0.0506740375703814971419803,0.00386774306482492828684894,-0.0135360483001978875589044,0.00319081498344860178470461,-0.00410223594198857403198,-0.747869675122199595307393,0.663825086353918458748069,0.0293414607263564920780485,0.0320201655177005245489497,9.81869768501985973330193,0.00777784857839687940317397,-0.044073914651163170752568,-0.00289261602215210066393891,2.24836100302906860548546,4.83413292733259147837543,2.05061914755559859813161,1126.89473356172516105289,1150.04531985384551262541,1142.59172668070391409856,1125.57000399405364987615,-299.87201463971479142856,222.658009134033591180923,593.462309647307961313345,299.46324100376983778915,151.615073933929608074322
51.2475000000000022737368,0.631279688113666748172648,-0.0966450255202621344441383,-0.711215623130818208608162,-0.0493925926077867644137243,0.00272871162796758329888158,-0.0158046273640554471584529,0.00315753965262263909530294,-0.00404607801944443547237373,-0.747895912726084466370935,0.663796044182125899446589,0.027392551868778397539117,0.0343438989512543507709452,9.82142468255353762174309,0.00776631617476035082670016,-0.0440286645725539785289904,-0.0028452408876819424571325,2.24825076425706082972056,4.83412873051530755930116,2.05060521678695550917837,1126.03807007754380720144,1150.60703220929508461268,1144.21839827837902703322,1126.27477655073357709625,-408.2242095482417880703,221.764078694169938898995,697.286776621101353157428,257.301199021965032898152,151.613092289665189582593
51.25,0.989171621467849315756382,0.0360198471158263422431389,-0.662705965743544123114361,-0.045260879300708468930825,0.00240392542497345389554408,-0.0175724733994941199888284,0.00312824184899592122946488,-0.00399228686068518832247287,-0.747925046982646835047603,0.663763694849726526570066,0.0253847140190157395667203,0.0368409138984154421736505,9.82404858655574741987948,0.0077541808009734102674626,-0.0439666324458734755764588,-0.00277321461771331450110734,2.24813871659950237358316,4.83412386525880055643256,2.05059051933005420664813,1124.8536125139858086186,1151.15414024731535391766,1146.07816056380625013844,1126.85650998916230491886,-439.289774060252341314481,162.573332023987461525394,619.266407081403713164036,154.403090857844659922193,151.610603889125087562206
51.2524999999999977262632,1.18342917816995507607203,0.148888545579127062890024,-0.573601345247064298149553,-0.0404801308783907451416262,0.00292980072528872250922638,-0.0185593046913985482149201,0.00310380355744912682022796,-0.00394181003281349629646657,-0.747954085855766614976403,0.663731399771146035604374,0.0233424929581054554916797,0.0394717037197539061255114,9.8265032962386946735478,0.00773945288563882179133646,-0.0438855082128017867648673,-0.00267810944425621918346669,2.24802461865605396340584,4.83411865380167427019842,2.05057535100595789145927,1123.84162120724454325682,1151.41989886941428267164,1147.31473031378322957607,1127.04679200502209823753,-381.391807225495938382664,50.8227426126917762871926,402.320058003555175218935,14.1100496120926095500181,151.608439527030697036025
51.2550000000000025579538,1.24529838175885743112303,0.232664548119288827621176,-0.452004756583785471946157,-0.0358499507624432112162793,0.00388567165985789124763028,-0.019345175791331346848434,0.00308323385980664157676734,-0.00389640732449879215529287,-0.747981047555239642044,0.663701387150876787046627,0.0213303909073515041150415,0.0421805992773165300269156,9.82873094256412116465071,0.00772011279734332103719119,-0.0437832543191898210244162,-0.00256264416038289510532677,2.24790843889240177233546,4.83411315103474326093647,2.05056071185354271690926,1122.9466534778573532094,1151.40825396037894279289,1148.08976085382505516463,1126.92706023722280406218,-319.028119926970759934193,-58.7593749948764028090409,235.985909843445597289247,-84.9535236952781076524843,151.606183819175271310087
51.2575000000000002842171,1.20402606027244840625201,0.273731028030130996153702,-0.311033833223487821140196,-0.0319720595434704393800196,0.00495549058394287051526605,-0.0199666692977505354222867,0.0030645916598222707957766,-0.00385820190251011212179133,-0.748004930896346120761109,0.663674783961643699470301,0.0194335775357137759133952,0.0449028638479265357341674,9.8306841746547455329619,0.0076942151669519938048114,-0.0436584403183010658078267,-0.002430670190139699350651,2.24779091141727072056256,4.83410720321897180440374,2.05054732098788150551627,1122.24648060760887346987,1151.12610199443975034228,1148.49465986300106123963,1126.6220243865454904153,-216.205160879568410337015,-179.887939295831415620341,95.9306215740943457603862,-134.610861693576794095861,151.603855357646835955165
51.2599999999999980104803,1.06666016095805016306031,0.248231523031678197321881,-0.150202903125117082083761,-0.029046987289467779413954,0.00642375274351741389067261,-0.0204024388782580341772377,0.00304681003961650024094987,-0.00382926599243972858727103,-0.748025634683324835982887,0.663651700179054504502574,0.0177254749196281771728145,0.0475843544236544818692991,9.83232778342036439767071,0.00765998973058145023184995,-0.0435105312372203803517046,-0.00228697849723782931086191,2.24767314026901310342055,4.83410050032630689287316,2.05053575039330571172513,1121.86562767346049440675,1150.50881426390060369158,1148.5694139616950906202,1126.25400592875553229533,-83.8261771085425095861865,-336.724074792355679619504,-4.36015368036127970441385,-130.033718154460842697517,151.601443888916264768341
51.2625000000000028421709,0.837690944442788798518507,0.134532906440259170111062,0.0649451675442787174086234,-0.026400231356409592509138,0.00865511746690826935801688,-0.0207312379415565961604528,0.00303275173921459554812752,-0.00380943336790918758022473,-0.748043596101663821329453,0.66363163406007941169662,0.0161938401685840331623023,0.0501913902915181037167613,9.83363978126829962889133,0.00761592434473956809981576,-0.043340048311786255608169,-0.00213702023495225632704342,2.24755642970427071958284,4.83409321624217280799485,2.05052683931325763211362,1121.82734972206594648014,1149.44248162047711048217,1148.47285909459924369003,1125.9718557957728535257,54.0300643880706132904379,-424.876249801455742272083,-42.3246667628301977970295,-50.5073038853166380590665,151.598461327137130183473
51.2650000000000005684342,0.628770544637207273730439,-0.0181193355889884104292786,0.261644033625724636848986,-0.0248526215404527676955393,0.0102182324658851905047063,-0.0208131236629749936939415,0.00302382389074776821574764,-0.00379669369762762869829897,-0.74805983511294882326581,0.663613442490684102281762,0.014824325111294122531147,0.0526484902530526127639732,9.8346131123933933082526,0.00756084330149031126622194,-0.0431485360101710319069568,-0.00198696449639154540736663,2.24744175006483004608526,4.83408581172058759989341,2.05052131894754907648348,1122.13577799540098567377,1148.38443301489223813405,1148.35779062788083138003,1126.00146940932881989283,182.539869747536187105652,-423.133350326518780093465,-38.9665460571804658229667,78.4496833168108906875204,151.59590733012137775404
51.2674999999999982946974,0.440500205320609961034961,-0.194055763928286273412027,0.469981690886047909216927,-0.0241935985012773774327499,0.010277775210386730017631,-0.0205669264043914570838645,0.00301418770145362845819248,-0.00379044218051803908850483,-0.748075989170533972583144,0.663595308343876033596587,0.0137270962815043279237059,0.0548127648228730751656101,9.83525625681630266683442,0.00749393181134197592513368,-0.0429383917813614471303829,-0.00184350994219959450626245,2.24732922855910821624548,4.8340781793090821238934,2.05051939048227538364699,1122.74004907080279735965,1147.32681486884644073143,1148.27802636431351857027,1126.36410421235655121563,311.607031158905328993569,-417.667315863141141107917,-31.9382187081664916661339,220.286123421898167862309,151.593288728300990442222
51.270000000000003126388,0.275318280791123748407756,-0.371583094739910468895516,0.714442157461203652957238,-0.02445429039102731127997,0.00825633186055930307079009,-0.0196169901861383000341021,0.00299728549163195230262136,-0.00379005108486731544237269,-0.748094099015674252051156,0.663574964126617317106138,0.0130209935699562052990874,0.056540123797081440204515,9.83559116295003477148384,0.00741477296380680783033368,-0.0427126454365341148844415,-0.00171303137571420264692601,2.24721838931231943092826,4.8340690817323954675544,2.05052109028146611890975,1123.69381315119630926347,1146.29609643557546405646,1148.19809953433991722704,1127.10290002643887419254,367.377932069069515819137,-305.68101540577850983027,-41.6118503098701637554768,292.825658217848570075148,151.590079283670718268695
51.2725000000000008526513,0.203464768951944680042132,-0.452257019823151029669361,0.890713240855671606333033,-0.0251903060255548594259523,0.00554124993859270598833833,-0.0180285035896345403882979,0.00297016544672007963556748,-0.00379446788486333033002529,-0.748115500831016522198524,0.663550922892618855186697,0.0127635580151422914352288,0.0577376565984442785550712,9.83565047735931585748403,0.00732334584661016151779789,-0.0424747653765573454642812,-0.00160080408988518777674281,2.24710852135686423025618,4.83405802869383371955792,2.05052637131114501300999,1124.57693873114908456046,1145.79840979181676630105,1148.06996711276406131219,1127.82823250344654297805,346.727675305825641771662,-97.0281439550917923497764,-87.0497892559224482056379,268.438901484995255941612,151.587354338714476398309
51.2749999999999985789145,0.198066012410326619530565,-0.439418718896863902401151,1.00354715142015393780639,-0.0260417679019976054666241,0.00287516388256975471623966,-0.0153719925781953727778051,0.00293481052251330296054554,-0.00380169681220016283593188,-0.748139719129075286829789,0.66352372243822788089318,0.012923522323994671157088,0.0583748447647294416151809,9.83547474421108347542031,0.00722013271472114661481134,-0.0422285253577984048822813,-0.00151045213236124177720587,2.24699935303410658349321,4.8340458123850149618761,2.05053426848725051101496,1125.42745152772386063589,1145.81095571580044634175,1147.76285058806070082937,1128.44509453386262975982,343.847610165863954989618,130.417853783843952442112,-198.116429660593496464571,196.790631428338485875429,151.584583686936866797623
51.2775000000000034106051,0.238432918743368305047881,-0.32347135883640582010301,1.0260522059771868264022,-0.0268843028210128502653031,0.00037488454099273690661373,-0.0110459451397363662972229,0.00289675102517746377306374,-0.00380929499709711837443504,-0.748166719562367910079104,0.663493390757721512862588,0.0134053498381558160168492,0.058473609593211364754417,9.83510955116674168152713,0.00710664357119106769589134,-0.0419778669222825445705993,-0.00144360870612789105559004,2.24689124386997063353988,4.83403349836046647425292,2.05054308567121790218835,1126.29617678197928398731,1146.45049906073631973413,1147.07938496446058707079,1128.81218566058873875591,284.604526374769136509713,324.597282576648865415336,-309.691883496885395743448,45.7246080584575622651755,151.581213778302696937317
51.2800000000000011368684,0.271292646663260139661134,-0.167986844589670031302475,0.932801162730514055176911,-0.026883009061419677748761,-0.000861456918893026258286783,-0.00708904238813412492653532,0.00286318287254705254596399,-0.00381350140624794929980479,-0.748196274577450748388685,0.663460174323355467151941,0.0140642206283232776287129,0.0580715462140987265238223,9.8346028249676606947105,0.00698544055527943255623491,-0.0417268371512350480512232,-0.00139987927008832727798771,2.24678519884331606704109,4.83402282795456006425638,2.05055019792954906776572,1126.85047415959843419841,1147.43394212868452086695,1146.21439117057548173761,1128.67371757415503452648,188.202758823570718504925,450.440677123333841791464,-401.082504505121562488057,-162.529606745249594723646,151.578373575867374256632
51.2824999999999988631316,0.240887080869314429421024,0.00419206711535034803883804,0.725101351120238102332394,-0.0251466725088633491491663,-0.000563471410950627219112186,-0.00388345678462725333451866,0.00283615309311155850552355,-0.00380862999563425083313084,-0.748228343009289975640286,0.663424141944647605129148,0.0147969416819119480022149,0.0571242037557974230432833,9.83400317722005468112911,0.00686006917770490276531348,-0.0414794368792839526771665,-0.00137741101999392582914961,2.24668166708435945722044,4.83401481118058384822689,2.0505541036071117666495,1127.23719057609628180217,1148.70270244635094059049,1145.07397244193680307944,1127.99953762686322988884,135.97392919352705575875,518.832361081429667137854,-485.76451702858935277618,-355.081785578022618210525,151.57550690503026658007
51.2850000000000036948222,0.113385053018837236860072,0.155294920212325854302904,0.441869271439159938541508,-0.0220762672712948547493195,0.00106954404087441297573069,-0.00181506464595171564113674,0.00281158755312204723664227,-0.00379116234164145063725848,-0.748263323501828669925828,0.663384879625992796015055,0.0156085745225886737830301,0.0555523978109806609859689,9.83335597718562937075149,0.00673478302466961123440292,-0.0412394214951151624748427,-0.00137309811626529221229021,2.24658046570981984046966,4.83400922271422217590953,2.05055459207458268267033,1127.53034380556641735893,1150.02810393409299649647,1143.7855685854312923766,1126.8983086462640130776,109.598007996999825763851,501.758181180701058110571,-518.351484519606287904026,-521.894224763588113091828,151.572623086622570554027
51.2875000000000014210855,-0.156999744127241019908681,0.253306917434763134711062,0.105170346613961435133788,-0.0193565718737677486260829,0.00307257042512175783735562,-0.00125805719316355820759645,0.00278342518023555907796807,-0.00375912898265259084323864,-0.748299984403620666029155,0.663343813233574719490093,0.0165436503883761784616802,0.0532865450732148554502388,9.83269964627025139236594,0.00661392178747559778689835,-0.0410101300153748876686777,-0.00138284160214791106494059,2.2464811861436912998613,4.83400623892109848611653,2.05055193620103892726547,1127.78518061608156131115,1151.21149335225572940544,1142.48221501933744548296,1125.39006650304395407147,118.096934398880051730885,452.475329600658824347192,-523.662713183806431516132,-712.698900115958849710296,151.569724094772141143039
51.2899999999999991473487,-0.62711921860988950605531,0.302624292148371054622658,-0.307531594132558483423168,-0.0186932499231301403608274,0.00439810880229800707508225,-0.00220312760595987606332402,0.00274794812688418550739033,-0.0037123249285014501240576,-0.748335792089779294755658,0.663303817004949669566827,0.0176251132505581623033386,0.0503252551020310218143905,9.83206243580383265623368,0.00650158158462515230885392,-0.0407943069677957834140436,-0.00140177289112290259613658,2.24638302783344734336879,4.83400610448923018225287,2.05054623324237095260969,1128.12082847756028058939,1152.29048058209423288645,1141.16725501951464138983,1123.33481414568746004079,131.305061627496030496332,334.878703873947983993276,-401.310447553418498500832,-755.17406706219412626524,151.566234497511430845407
51.2925000000000039790393,-1.09634008482880629387068,0.295232918092181106928251,-0.62425270424047929473943,-0.0204686640178636802822609,0.00470269975475176831708479,-0.00407104259865661167322459,0.00270722786632397348013934,-0.00365119084097761384052894,-0.748368356301756576520745,0.663267572420907725039285,0.0187890998271927969764938,0.0467623526227439884062065,9.83146058212975226808794,0.00640141475830363886750929,-0.0405939931596315320416757,-0.00142458291930856219276169,2.24628494813821166786738,4.83400808979624851957624,2.05053790958665782540038,1128.44170592421937726613,1152.88588687162632595573,1140.47566278156932639831,1121.61419616773105190077,130.569311248679298387287,198.486485282627057813443,-156.532373666697765202116,-644.341542943527656461811,151.563322146731053408075
51.2950000000000017053026,-1.57974603104411981391308,0.24765414326201046213427,-0.882956352344703598866715,-0.0242147247490041156448015,0.00506696940571527143504227,-0.00646826271751995210412822,0.00265986825699470559244975,-0.00357679803316130959234265,-0.748396194943644732511245,0.663236747847609775519118,0.02002190194633344383357,0.0426643116639521952082603,9.83089983828586966296825,0.00631636806757555901992163,-0.040410540002724891495145,-0.00144655124316564551861797,2.24618587775188993660436,4.83401062346117527113165,2.05052751264775023898324,1128.77367503380401103641,1153.28291300850787592935,1140.38459315118075210194,1120.11310643096817329933,131.406204289743442359395,180.571364837242583689658,115.357638417176858069979,-569.341235818655491129903,151.560410532619357582007
51.2974999999999994315658,-2.10244948055352542937158,0.148960234836471916430867,-1.1059575409775350696151,-0.0305604157694977299208894,0.00608653768362546303272165,-0.0093603535363939588398452,0.00260488828667791412832533,-0.00349341564752942042304529,-0.748419561791248133530985,0.663211035094301237791115,0.0213377340443478315246129,0.0381569894547347937541204,9.83037427529223961641947,0.0062486290684476445897455,-0.0402447805146585804725312,-0.00146351776446913134366312,2.24608523174375784847712,4.83401268876797285400926,2.05051581080472145046656,1129.09873694566749691148,1153.78874369581171777099,1141.05245097365468609496,1118.76748998864036366285,91.4978549806151306711399,230.411751680021922084052,365.061072094017276867817,-401.20656654869372914618,151.556923186094877564756
51.3000000000000042632564,-2.44635010506372019278842,0.0362396373121973910946814,-1.20813627926873756734949,-0.0369327961330381746019036,0.00721070651938353693322092,-0.0121549059762218972929881,0.00254610180460031459287462,-0.00340531917758672610790915,-0.748439947405952876735569,0.663188711966300803446472,0.0226749026093661550096403,0.0334340747547999389555073,9.82986698909961376102729,0.00619961191064300701919487,-0.0400972939301038194814808,-0.0014720245429735347858502,2.24598384040395604444029,4.83401393068415163867257,2.05050412483049537826219,1129.23116430870732074254,1154.43497176690857486392,1142.20989851165177242365,1118.10707359822367834568,6.99947981128940455164411,335.569188460214036240359,551.661592363134104743949,-166.425752631136106174381,151.554026516468951513161
51.3025000000000019895197,-2.6586664057784026304887,-0.092718832164218778491005,-1.21112677021729187032406,-0.0438888731365705414555478,0.00767787210073261200404815,-0.015888857110017445828376,0.00249053298545272609396117,-0.00331393970315617923672047,-0.748458266760381407678437,0.663168710272253103532591,0.0238847853411802285572563,0.0286927586423566666207208,9.82935249219384843399894,0.00616987302773625186091966,-0.039968639609612492680224,-0.00146965192495609586059713,2.24588306879606669497207,4.83401419427855216781609,2.05049409489265777040146,1129.13373434472396183992,1155.46658963811364628782,1143.81075893547176747234,1117.93536122548425737477,-110.199536698437626114355,537.600456553661956604628,742.840696827663919066254,21.4311276613183778749772,151.551144073025142233746
51.3049999999999997157829,-2.7383896543012600233169,-0.233749530179838099774869,-1.09516168026760185583157,-0.0524388167209691585801679,0.00662184431489627571554291,-0.0206382037278124083612418,0.00244512386114295121944395,-0.00321954033034314813718768,-0.748475095573402859905343,0.663150353210945064930115,0.0248044471480929201723242,0.0241136062667524631031313,9.82879877804736246105222,0.00615927533110909551650192,-0.0398593896069352054967183,-0.00145501892984993465990362,2.24578441600971068226045,4.83401416786726656482642,2.05048595567788893845318,1128.68016662521563375776,1157.1229740496744398115,1145.9241019957867138146,1118.21422923653017278411,-227.487099968013382067511,643.417437072083089333319,755.572804684447874024045,163.908835171112343687128,151.547706071247034742555
51.3075000000000045474735,-2.65281592180992165097564,-0.315882347760532422586977,-0.909701745005251916076361,-0.0595366857550359909745374,0.00479703523470250033089446,-0.0238666934219537302253045,0.00241096702651505748193905,-0.00312412429058219831903842,-0.748489627956987702006586,0.663134537639401333564138,0.0253820646844879344028456,0.019826256848962622858501,9.82816967026935373041852,0.00616691443157843174893706,-0.0397699752044047075139055,-0.00142774704286718684062563,2.24568859673801313192598,4.83401483386942842912504,2.05047892708308143738805,1127.99629884488331299508,1158.68367682347570735146,1147.5886229588959395187,1118.75490540134023831342,-336.557793945358469045459,596.651168653910985995026,592.452660065388727161917,254.988593826607541359408,151.544861251523542478026
