t,ang acc x,ang acc y,ang acc z,ang vel x,ang vel y,ang vel z,quat x,quat y,quat z,quat w,acc x,acc y,acc z,vel x,vel y,vel z,pos x,pos y,pos z,mot 1,mot 2,mot 3,mot 4,dmot 1,dmot 2,dmot 3,dmot 4,vbat
48.7000000000000028421709,-0.113387967997973432288106,-1.06056822029781616656408,0.79248917451250799892648,0.0209805169328441329379409,0.0385996314519461980463433,0.0345489994115169979371771,0.00814140800736423350669746,-0.002595166963696187833327,-0.100012406021288566271288,0.994912736216192805649428,0.0660656913989931815489598,0.242217786035790250132038,9.97995931367533373190781,-0.00586964998483442950555355,0.0539514705756229534516777,0.0658296095814978193816458,8.45737497291059803217195,-0.569149820238642578651422,5.03296025961140536253424,1123.40465809303145761078,1131.28255726936799874238,1116.38247218350011280563,1135.3534947003001889243,-36.6394880440833645707244,-809.309301233265387054416,-155.433331742926895913115,-550.72601045270880604221,153.693976862681836337288
48.7025000000000005684342,0.0572138025146086900973863,-0.895867578469829450860118,0.683804434019522067167429,0.0193238886320422111053663,0.0355751626132038908933986,0.0380969835312002166882728,0.00812415382007389448582035,-0.00253901919938476607410682,-0.0998879963376125973306685,0.994921298275840415570315,0.0629306052731118115151077,0.247876773559870422491969,9.96920240214562625169492,-0.00592371056948580790302294,0.0543813600410768815951457,0.0664099289445050644520308,8.45737943244020939914662,-0.569012904713350753382883,5.03313291080282798617418,1123.45559624699239975598,1129.30645956652051609126,1116.29561948357968503842,1134.0801278345290938887,58.9665346933624903158488,-802.311097681242472390295,49.2279431985927899972921,-501.334181041739896045328,153.696189081221149308476
48.7049999999999982946974,0.291018018926311183847133,-0.679030693400134555126613,0.4646477785730465104308,0.0182055780996029127616342,0.0328295207291278978711802,0.041864064125426730944568,0.00810847892109965197315891,-0.00247627665525289785905527,-0.0997826206643351309999446,0.994929872417873450984871,0.0596926443498614137106451,0.251884680427272134028982,9.95712158681016923367224,-0.00597528485945639925569495,0.0548528520021036303244699,0.0669473355044752360676341,8.45738498428802287776307,-0.568874587761429739707353,5.03331210390858174719142,1123.69949076649800190353,1127.27100178096543459105,1116.62861189949285289913,1132.84682379509376914939,129.160879262260408495422,-844.645573248430878265935,204.671657176672738387424,-521.506432925258764043974,153.69830654052145746391
48.707500000000003126388,0.597951935319880889529998,-0.379386307612618656204262,0.11810347056558730127751,0.0182383424551798845048012,0.0303308710607453624330532,0.0449765232162795472459216,0.00810267016975703933956421,-0.00240676935755290829707653,-0.0996954537073055646612119,0.994937826530319036066885,0.0563190593570255526589818,0.254349541842330606478129,9.94381587292451740722754,-0.00602559379480838847031876,0.0553548159233664752165716,0.0674299487337065989178697,8.45739250181102164560798,-0.568733346228826985857552,5.03349667671125722279157,1124.10140064330403220083,1125.08323170027620108158,1117.31897776946357225825,1131.47259566990146595344,148.038973533281676964179,-710.864850697953556846187,266.105508164355626377073,-482.869118784563738699944,153.700732615315160956015
48.7100000000000008526513,0.823000409521472242602158,-0.1241671756777257273896,-0.177305307971501457942054,0.0200822502385970581839647,0.0293500972829020927157284,0.0452868832363215109704235,0.00811035869660478234144385,-0.00233347252481345274199853,-0.0996247710208627845762663,0.994944769421297836586859,0.0528485152819773498777955,0.255323604430962414202355,9.92940788844437349780492,-0.00607616303689323053460747,0.0558762524993251241678394,0.0678482632261295098841103,8.45740282094829964876226,-0.568588998331918671347296,5.0336853385646964653688,1124.43968563416478900763,1123.71667752747384838585,1117.95913944031531173096,1130.4324782011697152484,120.112484547480661944974,-405.480940279908736556536,225.540706767265447751925,-395.314814971011685429403,153.702656055687157277134
48.7124999999999985789145,0.945911893120539915003064,0.0943184080341251118717594,-0.385527222063839769550242,0.023882949972081894685072,0.0297935278637997610906574,0.0428901582756361227088959,0.0081343282626030518484006,-0.00226041400011297395275522,-0.0995658057224281245467523,0.994951320029817121159965,0.0493438114007856837295307,0.254877459104888126617539,9.914038391391299498423,-0.00612859789660346460093976,0.0564070723358776685008031,0.0681952714854987679382603,8.457415875698263363347,-0.568444648589682022254976,5.03387622014670998993324,1124.70196306604088931635,1123.0558269988785013993,1118.44668130329887389962,1129.49602159504820519942,87.0565626556536074076575,-130.131100482118938543863,140.297217332427948122131,-359.705294211742227616924,153.704476145536432341032
48.7150000000000034106051,0.94218104971922456147837,0.250670309781609201849051,-0.458201042866036190037704,0.0282720560689796833464538,0.0312381201084286803937307,0.0389041121363996530990725,0.00818040057743143686486142,-0.00219838906294939333968541,-0.0995175269288518238308683,0.994958379638792522747792,0.0459946935292136135919883,0.253189436127329359216276,9.89785928976164797177262,-0.00618421613604199817137985,0.0569386601460340410763017,0.0684663278494084537317832,8.45743056105757418094981,-0.568305897854924690903999,5.03406581596866598005136,1124.87496844744327972876,1123.06602202506292087492,1118.66062552697781029565,1128.63395173011008409958,49.4922640723617988101068,159.239793711604249892844,-6.32159891046871447173316,-327.848768330127825265663,153.706210820019578022766
48.7175000000000011368684,0.763755831314518185415352,0.305316115216977990165503,-0.326795708104880344713195,0.0322187701018439298650264,0.0334542983220154285795012,0.0343262997004594241912123,0.0082535830816141374233208,-0.00216258409554072545191716,-0.0994860810167979003892924,0.994966051330789302831192,0.0430767012747867716893069,0.250465157439482444257095,9.88103115699540879290907,-0.00624429786251600501406633,0.057462697870721300696939,0.0686594966573429998923928,8.4574463530435277647257,-0.568176342194597006063361,5.0342503835073619811169,1124.94942438640282489359,1123.85202596743692993186,1118.41507330874651415797,1127.85677775339672734844,18.0541466028608326155336,482.763360771635007040459,-229.870226037910356353677,-318.445366266422240641987,153.707844392432491531508
48.7199999999999988631316,0.358893473174799026992332,0.244879754125629123251429,0.0530407654423782903840845,0.0357787226096999561031353,0.0361910699292551929495687,0.0301648830569260402445497,0.00835428929799950439893941,-0.00215590357952779101968765,-0.0994765394507150513270233,0.994972468153336175866741,0.0406338443219016187679671,0.246831034691928796753757,9.86372094235346708046563,-0.0063110088123568431478505,0.0579693763717591611928093,0.0687754626054710160865113,8.45746332031542458196327,-0.568048432411001780195647,5.03443145184210294473814,1124.96523918045750178862,1125.47983882891890061728,1117.51127439678930386435,1127.04172489877942098246,-1.04782823295810034736064,661.350887872938983491622,-429.193463939971991294442,-273.045387852786404891958,153.709692209217308800362
48.7225000000000036948222,-0.104226477429918237826989,0.105844700472432218241181,0.496360561637758435082901,0.037195102774031478520822,0.0376005201138208330902124,0.0291526816271633661126206,0.0084685507147638210828644,-0.00216763421048094071658108,-0.0994826319019018051603709,0.994976939239721858143639,0.038477259019396581329886,0.242140096208356025986319,9.84610167372893307913273,-0.00638590709992641145792414,0.0584452653960560244983391,0.0688180627320850585304512,8.45748103530231709612508,-0.567917094410118505898311,5.03461194135198475407833,1124.94418524523803171178,1127.15878040680331650947,1116.26910598904555627087,1126.49155081413209700258,-15.0301389904521283114036,669.176230107744800079672,-576.708773868063531153894,-185.140901755263115546768,153.71114295644034086763
48.7250000000000014210855,-0.635997436897571932767903,-0.0840063136384278652535329,0.961871989180248188056055,0.0362963639045661076720783,0.0372182017595043268531896,0.0317741304325797335739168,0.00858565968428705653114896,-0.00218645831700139958719831,-0.0994888701769754690840131,0.994980129281900382842707,0.0364056433783275859572548,0.236343380033813665885845,9.82833694298653171017577,-0.00646843728122081969289514,0.0588758039184069242866215,0.0687919112106649827120819,8.45749878139246291652853,-0.567779243445314718563566,5.03479351351683845905427,1124.89008848550520269782,1128.82571997945933617302,1114.62773052744751112186,1126.11602039000263175694,-33.4027605586319680242013,615.580633928189513426332,-696.928940747827141422022,-117.9880344860230110271,153.712508261589363200983
48.7274999999999991473487,-1.17091535801668999994263,-0.280640437205788073615764,1.35729775712899058959238,0.033506578736665619533408,0.0356216426530738677902477,0.0370972243098963774809995,0.00869889919204991889090106,-0.00220667703421110160399987,-0.0994819638891448199125023,0.994982810001711071024033,0.0343203642497851013626331,0.229511988485104956314586,9.81057617168556639342114,-0.00655645403961296110301182,0.0592459173404203190416162,0.0687022607456814760062969,8.45751506514434403527503,-0.567632665669768221583524,5.03497561685278238741148,1124.77717144244502378569,1130.23668357644146453822,1112.78446128530958958436,1125.90161064170251847827,-74.9555498355292399992322,458.806951250873623848747,-749.983784679969289754808,-49.7978465984233409358239,153.713808583128269447116
48.7300000000000039790393,-1.64956845445755995172021,-0.454661353089272801675236,1.58729569575695794725334,0.0290544164355826112222658,0.0334719962576196655712479,0.0438852178807554171857674,0.00879915164599950200274847,-0.00222770479464750800757677,-0.0994582615008730019923178,0.994985091500011242793278,0.0322243008900693767015966,0.221705168117013962092443,9.79295461969499392296257,-0.00664740677661061762915296,0.0595400229082829815507871,0.0685558022353111723434793,8.45752967591614535081135,-0.567475143838917506222685,5.03515555289207838995935,1124.5153107363273647934,1131.11975473571487782465,1110.8778116040457462077,1125.86703115701038768748,-175.172103695787399146866,238.982956251416510440322,-810.961683459203300117224,13.9227559920911225788132,153.715037682801892060525
48.7325000000000017053026,-2.09883197833685208877341,-0.621946188574433289630861,1.62613876723625550013708,0.0224071524729144606891129,0.0308846533097045586324647,0.0518041821521007944673087,0.00888901252031987741675234,-0.00225342373976437264707084,-0.099425838015295225913448,0.994986028987408510637636,0.0301808988248298340484332,0.213236630469822607825137,9.7755838400123398201913,-0.0067393988398988325175254,0.0597452443858424164790932,0.0683588184334321252721978,8.45754367554712516152904,-0.567304114557255156903182,5.03533107869758467245447,1123.90131092396563872171,1131.43159835769915844139,1108.72965286801149886742,1125.97122442166300970712,-291.765746227603585793986,-9.30111393527959151583673,-741.523979787545158615103,50.0127321733543936943533,153.716439389598548359572
48.7349999999999994315658,-2.33982018163884752937065,-0.730652947804754426819329,1.46978141645500315348727,0.0160976333663496902481871,0.028800149121595699369669,0.0576557597089037976445525,0.0089617708676065135214861,-0.0022807352060923934654324,-0.0993889976471975244987078,0.994985376115204656066737,0.0281379228781655568725206,0.204233870691814312081647,9.75856087993947340919476,-0.00683113590953141319034314,0.0598502653467347031646106,0.0681192029932787823653939,8.45755808439352207983575,-0.567121107965742221601602,5.035502084641304776369,1123.05648200519067358982,1131.07324916603852216213,1107.17019170511139236623,1126.11709481787693221122,-415.666674077889354066428,-251.105578731138621151331,-561.703704306213694508187,57.047510524187522662487,153.717553050925715751873
48.7375000000000042632564,-2.42501270272693147944665,-0.823578591205007093378754,1.16905492134586785901718,0.00927571222633156999837212,0.026739834155599603165987,0.0620184684875535879866604,0.00901520240353282167888871,-0.00230607813573319771899284,-0.0993496155688445570230982,0.994983346874932061965069,0.026028154272203108537953,0.194909456696213789772543,9.74196039236004907024835,-0.00692173675778161301419544,0.0598490844109025935115831,0.0678441789666435618455509,8.45757275353827431274567,-0.566928414316991258203871,5.03566873083681532108358,1121.82297755357512869523,1130.176070464042823005,1105.92113434647899339325,1126.25646197428409323038,-619.116667394520618472598,-481.037639798323141349101,-475.552518755268920358503,51.090045827432973624127,153.718617976939555092031
48.7400000000000019895197,-2.34967223722639184657623,-0.942672647873801561324569,0.73655722813987134500735,0.0010055833560361872921346,0.0244112517380332474936644,0.0646003990169451425273905,0.00905959729995452558992675,-0.00232179702982767376118201,-0.0993096107260189042698073,0.994980348059278596473121,0.0236838353877026307203746,0.185696942010219356866685,9.72583183128712214227107,-0.00701188139785731932851487,0.0597436066007671906508136,0.0675387082458960147368643,8.45758714131915212419699,-0.566728414319168538604288,5.03583332068237332634908,1119.96089866821648683981,1128.66806096704567607958,1104.79242911133383131528,1126.37254504701422774815,-719.263979385749962602858,-593.926576080542758973024,-355.732362232771038179635,33.4060246317980329422426,153.71984842031531570683
48.7424999999999997157829,-2.156736500524408572943,-1.06725500126496330999259,0.393591325155951132774845,-0.00551342782603328473989279,0.0227510434085872736975631,0.0644368024491654423080433,0.00909105827053306031482194,-0.00232592350797239128673555,-0.099272720843749412411583,0.99497709965248570807006,0.0210788230880396346145211,0.176739733422174527532889,9.71021256841585156394103,-0.00710251865393743929411041,0.0595413923008697928973554,0.0672083223044827593462003,8.45760179929010824650959,-0.566526792572722426299947,5.03599706327797846938665,1118.22665765664964965254,1127.20643758364280984097,1104.14247253531675596605,1126.42349209744293148105,-683.331252186931692449434,-593.589213333612974565767,-205.560428572684372738877,14.9328826225351800616181,153.720840620173220258948
48.7450000000000045474735,-1.86878430395495520599525,-1.23310515139282284025057,0.146020838438742084353095,-0.01083650193167773161107,0.0212222027681744501714789,0.0625405281068963370127989,0.00910196607835735485569906,-0.00231946083425787824214281,-0.0992333719133425412595173,0.994975758795868747697,0.0182584975392875124844405,0.168079449276384657041561,9.69512446342187850234495,-0.00719415158116753269273991,0.0592578524003021939181579,0.0668577037072763669112163,8.45761641953036580332537,-0.566332694507384104554149,5.0361605440570968994507,1116.54424240728008044243,1125.70011490037609291903,1103.76462696846988364996,1126.44720946012694184901,-623.072884827251527894987,-590.913806623409641360922,-110.532782000553041257263,9.32830712194550137894566,153.721805863235687183987
48.7475000000000022737368,-1.54262372487059340464555,-1.4321731020302168602143,0.010064740162051647245911,-0.0146209838737660757085335,0.019395154860167507920865,0.0602137037621031032119667,0.00909276575401488096339619,-0.00231499808753840964972714,-0.0991898521561727086748306,0.994978583725819820671177,0.0154803048341802668153022,0.159889461238553576283294,9.68057176974822475301607,-0.00728729075191442924458451,0.0589172868505031324670718,0.0664893405090936223666986,8.45762950914758881992839,-0.566158559216115686574256,5.03632403632990310882178,1115.1112932325117981236,1124.25186855052425016765,1103.58980862531370803481,1126.4701336330526828533,-467.376036853754499134084,-552.705902999880663628574,-27.4702520659297704241908,14.1727267766001858717573,153.722754082695161059746
48.75,-1.22063963746440018454109,-1.65034989006224686036717,0.00951339764045178518103718,-0.0166602081670580298711215,0.0165695877896218785041427,0.0585916616762032493870294,0.00906763028839626533672558,-0.0023330744176252586792597,-0.0991456617361668041121803,0.994987309850467571692434,0.0131515758002143448579524,0.152376192454248438057363,9.66654624008468843499031,-0.00738273567340338998654659,0.0585501357487638873777769,0.06610422036254451350068,8.4576395714913878975949,-0.566017498834790466766265,5.03648750531524846962839,1114.20736222301343332219,1122.93658538537920321687,1103.62727570814035971125,1126.51807309400987833214,-235.008275638106169935782,-546.183449637825219724618,53.4639983685369415411515,33.6869445549688748542394,153.723687748565765787134
48.7524999999999977262632,-0.88718063815769099278441,-1.88586735447044606672762,0.126591085778241851933501,-0.0180415128775145983119899,0.0113589244830428308385972,0.0583580701090438691558404,0.00903115784302871080213571,-0.0023817784997317028271302,-0.0991052208520574740013842,0.995001346917931073221553,0.011444483629059115648019,0.145673685768509031390749,9.65303058245842571238882,-0.00748326864808252119332099,0.0581884749013381885607288,0.0657023947294386873041461,8.45764635664283304095079,-0.565909986726070846074776,5.03665085478062657386999,1113.93625185432233593019,1121.520951302337607558,1103.85712861715614963032,1126.63856835582737403456,45.7977426103518538980097,-499.919260073573980207584,102.704297622987937188554,59.6606712723009309229383,153.724798402710860045772
48.7550000000000025579538,-0.669827630033654641827923,-2.01931809615794088941243,0.27993638793461878000457,-0.019014419331351384984119,0.00546707154535055681043865,0.0594722481365350455484453,0.00898853023053682899379258,-0.00245413267006497825759026,-0.0990703728170357483806541,0.995017835821667473439334,0.0102478482903568327011534,0.139843570934335720279407,9.64000037984182434058766,-0.0075930074785975068193955,0.0578613492089630268577771,0.0652831704039104482317768,8.45765052844263642839451,-0.565822001172141986202746,5.03681383469896992721715,1114.43635093606530972465,1120.43698908501005462313,1104.14079719625556208484,1126.81637645037153561134,334.835263806473108161299,-430.688886491550647406257,115.030282042503401385147,91.4256357271356847604693,153.725720529812093673172
48.7575000000000002842171,-0.515451157648093349905594,-2.0501374622045265283532,0.443565858221511954972982,-0.0200701466272600395623904,-0.00116434313950744593516018,0.0612059678730073400410028,0.00894659921021553200537468,-0.00254006211374221231233395,-0.0990322095551771641730454,0.995034854092032960970471,0.00939685476370771821663652,0.134924958037115294562369,9.62742629666729143878001,-0.00771446793873873434138622,0.0575913683964966102712957,0.0648451995092637345496911,8.45765237184517104651604,-0.565739668777981541403221,5.03697595225281435915576,1115.61042817335555810132,1119.36750686987875269551,1104.43228002736896087299,1127.09569653446328629798,621.786787119546488611377,-489.806442473891195277247,111.858013969378461638371,145.742150266365342758945,153.726644166688998893733
48.7599999999999980104803,-0.389645263386976192787614,-1.95663704829057971679163,0.612595476453970388952541,-0.0211831104767919650710972,-0.00845978716599768768014123,0.0634844206933387750213527,0.0089099172860600643619744,-0.00263175223327451581270542,-0.0989786029766204222823944,0.995051101160869366779593,0.00878104811295272319471295,0.130876839085247775873455,9.61527778653774056749626,-0.007848613208206543095935,0.0573922268647046734946215,0.0643870712532451094922692,8.45765300021499299987227,-0.565652642323819399017282,5.0371376153759728211412,1117.54528487166021477606,1117.98795687264282605611,1104.70008726610194571549,1127.54508720170269953087,745.21535296392437430768,-535.218037164712768571917,77.4884445435021973480616,177.902213069319202531915,153.727759439691112675064
48.7625000000000028421709,-0.321127199642788629940782,-1.78288537855859896552602,0.712715169501442757926668,-0.021891902321202999504024,-0.0132814474578431072210316,0.0655481792514029104612661,0.00887929542648582814656777,-0.00273074762717962719188458,-0.0989097883679205674978263,0.995064729711236495290905,0.00847907733759498821735079,0.127573850380403752691194,9.6035256904661672194834,-0.00799586583868458142254632,0.0572682841393147776254402,0.0639075801188043884915047,8.4576545488936414329828,-0.565552203866179103997069,5.03729848802210344871355,1119.33650493817708593269,1116.69141668405382006313,1104.81972225008667010115,1127.98520759981033734221,686.90863217667686058121,-556.181395660484781728883,29.013122727322915750392,175.936734496873242505899,153.72869788916776201404
48.7650000000000005684342,-0.272204704460753454942079,-1.53856295704122070233666,0.758597322482999714132745,-0.0225452689381584261973934,-0.0170331734232171266851807,0.0677013928807293080547325,0.00885515348193401975740446,-0.00283331240396299298758831,-0.0988293764036998617639185,0.995075769439245139125205,0.00847177314145518278731828,0.124855739983504909762502,9.59214205310437328932949,-0.00815722556869297524273499,0.0572162779102767873884439,0.0634053180524001280815583,8.45765740703174451198265,-0.565437687450291770474564,5.03745798541639722145646,1120.97982803254535610904,1115.20704989433897935669,1104.84515287973863451043,1128.42477087418751580117,589.846493385029930323071,-621.796976190736813805415,3.98493439866250342973331,161.872968929730518539145,153.729649156613959348761
48.7674999999999982946974,-0.224753402377844718751376,-1.25841323956400574779479,0.756233722913996708747675,-0.0233292228720071680159176,-0.0202350321871630732528669,0.0697731127037129611467847,0.00883744561407728314306187,-0.0029389220236626977314498,-0.0987402279421554784910597,0.995084680495206708172873,0.00880383400470777233159936,0.122555201288109788526626,9.58110174967359284892154,-0.00833291169609845505661383,0.0572275100148378207398636,0.0628787071092954952256093,8.45766147894372366522475,-0.565312746905442198297465,5.03761648414902207804289,1122.28573740509955314337,1113.58243180310296338575,1104.83964692207996449724,1128.79457244445825381263,408.742060945514879222173,-670.60704541170048287313,5.62778836669789050972668,113.368009317979371530782,153.730613359092529890404
48.770000000000003126388,-0.162414380261466373411849,-0.95956835405183715792532,0.696646249405359463402476,-0.0243100583686114701809089,-0.0226195218716780943601918,0.0717480890639457247193178,0.00882044713873213724608657,-0.00304289229700774929016083,-0.0986426760212183451059786,0.995092073161332191233441,0.00945141515410149318787703,0.120396182345677338343393,9.57038461126377626442263,-0.00852314769004105209082578,0.0572890123753447624843638,0.0623265620859517130436522,8.45766711862079922923385,-0.565181435359155770470352,5.03777476966008386227713,1123.02353833727397613984,1111.85401466727876140794,1104.87329182157213836035,1128.99161092077770263131,183.138531843130294873845,-759.527247455910355711239,40.3879912087880086346559,27.5909680949866746857424,153.731595803714128578576
48.7725000000000008526513,-0.056433606021844856526215,-0.60660429126209169936601,0.565014802798507798087257,-0.0255932396442480059040037,-0.0243622317722682890650532,0.0740229589907427237838178,0.00879786912011020806601014,-0.00313919308526592125141441,-0.0985386330318341469025611,0.995098406275084057526215,0.0103640806572534438512179,0.118106222792771720087046,9.55997443950753655883545,-0.00872828951011393218417656,0.0573855251470865510010633,0.0617476098626965064219974,8.45767510081735274241055,-0.56504563243073846479092,5.03793370939107276740287,1123.20143006431567300751,1109.78479556582146869914,1105.04158687812400785333,1128.93252728493325776071,-39.1776370411109198244048,-736.684137629560268578643,88.7374489601722729048561,-79.6448092098486455370221,153.732799078501017220333
48.7749999999999985789145,0.0584930059603548935243111,-0.332231096119499968999378,0.413979340829258191103435,-0.0264532570831202129557624,-0.0249828052976558724618261,0.075637376138257453317415,0.00876629499169369851008238,-0.00322125789806482643734542,-0.0984286321790261570230385,0.995104101879301761179875,0.0114724228604037165046847,0.11549115614926916406624,9.54985811396557338071034,-0.00894822144909845386406833,0.0575008939499185717236784,0.0611403237378547043112675,8.45768568528347230994768,-0.564906071403824983079289,5.03809372533874011423904,1122.82765015206859970931,1108.17059397913430984772,1105.31697906637259620766,1128.59338687472882156726,-225.406521490343237701381,-597.723789605664705959498,135.713131005626252090224,-198.666205188636240563937,153.733824342304359333866
48.7775000000000034106051,0.187743228574928755492124,-0.0881725573554890118543881,0.237148419900462231746374,-0.0265728312882897235724933,-0.0249758775084853480719094,0.0764775076900748584929346,0.00872579128084768722295461,-0.00328240822416920761603332,-0.0983153618900979159311859,0.995109199596821869526764,0.0126928499825456689298342,0.112451922152987493497278,9.54002516155628299543423,-0.00918241000154348605000187,0.0576187875507255670148865,0.0605031671978048177229503,8.45769717828385836355665,-0.5647606803401568065226,5.03825331029065459631511,1122.07439745686338028463,1106.79617661779161608138,1105.72015253315248628496,1127.93919625898956837773,-375.042511090158825481922,-525.612114390837064092921,194.450743751568211337144,-354.844378149983072034956,153.734875532695468791644
48.7800000000000011368684,0.33045934362940632134098,0.169132821373004782472549,0.0201962084949256701071896,-0.0255525941631431323386447,-0.0244779889018321289428926,0.0766238685686207177116813,0.00867905647153751139133426,-0.00331779434597454740002442,-0.0982013990873011610727161,0.995113662052950487257874,0.0139645830919759295074556,0.108974673842732849848858,9.53046744962439973392065,-0.00942921523174416152668353,0.057723410514045364605451,0.0598349461215704481187316,8.45770755975670596171767,-0.564607388362206474852201,5.03841096149431422190901,1120.95243759661684634921,1105.5425334071787801804,1106.28923278513093464426,1126.81916498397799841769,-419.894989237736695031344,-383.282956687374564808124,210.640211778182333546283,-457.416707911449918810831,153.736169682766046662437
48.7824999999999988631316,0.416540818101146514962352,0.359198157860330880009059,-0.147149541858473870137303,-0.023901346880819407392238,-0.0238442463569312618210105,0.0763285083235983874416775,0.00862643940310391793557798,-0.00333429920005885206679697,-0.0980896367493489934608064,0.995117433073642976282258,0.0154448701265665899740043,0.105054837226440433983754,9.52117996837196400861103,-0.00968481069193007949869045,0.0577999936494650173868237,0.0591355265946624034101298,8.457716876743830880514,-0.564445310095478935963342,5.03856597933331684657787,1119.97492251067660617991,1104.87976183435648636078,1106.77335359204244014109,1125.65211271943439896859,-378.755062168408528577856,-184.502437461875359758778,182.152886020001034239613,-500.903499206622882411466,153.737277280984557137344
48.7850000000000036948222,0.450172343755469439585681,0.53303777780755279280811,-0.282850804868167049477279,-0.0218761793883167562912995,-0.0231701009027334425827149,0.0755958914614858062952507,0.00856858715855461812449523,-0.00334017236325586264894527,-0.0979855833219746841233899,0.995120338324872788504649,0.0173051075970679577031852,0.100725661808142519237919,9.51215841780767767943416,-0.0099450499403559641797834,0.0578360985300622049143371,0.0584053821272814965848141,8.45772586813656701565378,-0.564275957676055095468826,5.03871878059630784463252,1119.05866228577383481024,1104.62002121986893143912,1107.19999721523140578938,1124.31464748794360275497,-351.944289766835993304994,-45.6356993940283501842714,154.934972123567462176652,-550.912874350788229094178,153.738417146059418882942
48.7875000000000014210855,0.437523152717081253992859,0.697949024042192056604961,-0.3813877932360741351836,-0.0197689155878885101935705,-0.0223013785727080686427382,0.0743331335061965248200977,0.00850560002358278360867772,-0.00333905515039370709776123,-0.0978897494650794453008302,0.995122981261362893334876,0.0196189647698381403051471,0.0960279078610689340589346,9.50339794045842367609112,-0.0102055024915553901182497,0.0578227141016048953869877,0.0576455458424927555394213,8.45773546768961814734666,-0.564103104706160207726384,5.03887072249972955972908,1118.21520106184152609785,1104.65158333738622786768,1107.54802845266067379271,1122.89754834767904867476,-327.828002010644752317603,61.7090351128005849545843,120.401263083950112786624,-569.588761444874421613349,153.739584969742935527393
48.7899999999999991473487,0.381298986380866344880758,0.849954498401352287473287,-0.427309348296925517463052,-0.0178908071118980757652217,-0.0207649180782108963572163,0.0724025507474906071525567,0.00844732460986467002805878,-0.00333568186204548627199484,-0.0978020309327274628419246,0.995126325101878372869635,0.0224502500264233476046094,0.0912090495692348957046391,9.49488957899874996826384,-0.0104614389147347861680482,0.0577561869146725817558696,0.0568564936672401946560207,8.45774479541622348222063,-0.563930704780251867980212,5.03902271697220616175628,1117.41952227572210176731,1104.92856639543265373504,1107.80200353065060880908,1121.4667036807218210015,-360.794772464939399014838,143.066237137208673857458,100.281992846424685694728,-610.38903955932858025335,153.740787430969703564188
48.7925000000000039790393,0.298129736965731417797087,1.00583353576443168542198,-0.426083548748311002896116,-0.0166591350639439701730726,-0.0179093158364558788231413,0.0702248323203946284154497,0.00840751311994041017339185,-0.00332844375458293557229483,-0.0977227750167179304296994,0.995131775916478389376607,0.0257230244057875048757644,0.0865917322746193318661057,9.48662078398615271623839,-0.0107086789731374743689374,0.0576376136295149235633239,0.0560389673547723454749558,8.45775129174977635670984,-0.56376279402188778089311,5.03917358258605396770236,1116.41122719951590624987,1105.36691452307263716648,1108.04943841689305372711,1119.84560314988084428478,-396.737045733404386282928,151.809112994091805148855,93.5070133667499305829551,-563.266753877799715155561,153.742270918772817367426
48.7950000000000017053026,0.249072530566509714455847,1.10385712501221333603496,-0.39387250999734463308144,-0.0167647299674738813057839,-0.0147260831622602495621921,0.0692049513047445774560629,0.00838943227809152078378041,-0.00331211228394933570109981,-0.0976545457729942056879224,0.995140218229015660611481,0.0293003356785556771935131,0.0823002726048864818864104,9.47857801823034051835748,-0.0109433560320000931170847,0.0574708190762478199342667,0.0551958640429283803330307,8.4577530128516063001598,-0.56360262505064473437244,5.03932014245767234683626,1115.43583704705406489666,1105.68761196040350114345,1108.26953859748459763068,1118.65036991133138144505,-434.691394184060015959403,92.6857265060722852467734,105.072254845076784590674,-432.162560196395304501493,153.743540784986151948033
48.7974999999999994315658,0.256143563956449216156841,1.16406264917713508921793,-0.35502701453321949820463,-0.0173025174111228891016268,-0.011234862820862433555047,0.069010189443302477618758,0.00839312154069016096158418,-0.00328344443939093894382908,-0.0975982455419580341438035,0.995150150557888024671627,0.0330776152440475368354811,0.0784029034106183686514413,9.47074425023448185356756,-0.0111612186617334272625834,0.0572624528911544750098273,0.0543313538697418954570573,8.45775019871979516494775,-0.563447086079838066474679,5.03946134858802530231969,1114.23777022859758289997,1105.83034315560257709876,1108.57479969111795981007,1117.68479034890083312348,-584.441284893565580205177,3.00532474134189175885012,159.58488383153982681506,-363.936321302658427612187,153.744844762959701256477
48.8000000000000042632564,0.350094548361887081266985,1.20213466243847477699092,-0.323480972294411084355659,-0.0175576668991095502514455,-0.0077311871095947851117991,0.0691456805414350644811705,0.00841488965729107578350732,-0.0032425037613649284468087,-0.0975467199966532222399351,0.99516083759974527378489,0.0370095488416010698351499,0.0748991527890195130101603,9.46309873217168018300072,-0.011357162563737364588401,0.0570211611308013913146375,0.0534505705785187287815141,8.45774356173629193733632,-0.5632947696591816821865,5.03959572543866141103308,1112.51363062258474201371,1105.70263858411021828942,1109.06746301664270504261,1116.83068830481715849601,-673.391538260667630311218,-100.588947363888493669037,192.913863521418079471914,-262.223791382623403478647,153.746447277250808838289
48.8025000000000019895197,0.499946456150585916144991,1.21834264672149217290098,-0.314712646265610684892522,-0.0173037683040620227092887,-0.00546804453855841750969935,0.0691852310254915114917651,0.00844679857861887345427121,-0.0031903453243392341023843,-0.0974894455407034066229954,0.99517237287840043524767,0.0410683960693819377629765,0.0717008339625209573098275,9.45561735386321089436024,-0.0115264632333740221770135,0.0567567121006845795583295,0.0525590635090766103432181,8.45773417970720942093976,-0.56314829329289783910184,5.03972372159396808655174,1110.87081253729252239282,1105.32739841878287734289,1109.53936900872554360831,1116.37367139198704535374,-680.48184738893769463175,-198.740377959119314255076,173.993501603648837772198,-134.880311896981652353134,153.747812399893149404306
48.8049999999999997157829,0.710404351220157215252016,1.22918179347008771351568,-0.315287489920040464586037,-0.0164514475491524675421218,-0.00325346300527290261533908,0.0688168268035356522904777,0.00847814210768895425152092,-0.00312546356858080980403725,-0.0974209137319386880848882,0.995184591276297880746426,0.0451761681998813086069688,0.0686499824969726557544192,9.4482733854075817703233,-0.0116664233322281360449857,0.0564791795820199019062535,0.0516619556388076758834949,8.45772222435316756161683,-0.563010707025924261870387,5.0398480350704879526802,1109.11122138564314809628,1104.70893669431552552851,1109.93743052466015797108,1116.15628674533286357473,-702.955413462181809336471,-274.268850670974416061654,117.233761957490116856206,-53.5743022572386209390061,153.749205666352509069839
48.8075000000000045474735,0.952159284352943058316043,1.23509008174607926022759,-0.309069293353635143883906,-0.0149256937866350802845972,-0.000849984694163099748810686,0.067954408928935727818299,0.00849655255550812137099737,-0.00305056849146230057295837,-0.0973444058703042680580353,0.995196760773037647496153,0.0493325920983796600838289,0.0655509226761727264998214,9.44103886166094063980836,-0.0117762166467431147326428,0.0561979452359774797609582,0.0507634649402932125461518,8.457708095809250536945,-0.56288343288529751884397,5.03996876565447404772158,1107.3560354699798153888,1103.95605416542730381479,1110.12553781851329404162,1116.10579988070071522088,-674.828218313059892352612,-309.713895461414551846246,-12.9645449900569538215223,8.75073302790504214954126,153.750620050851210862675
48.8100000000000022737368,1.20063420776907303633152,1.22474424035338125271721,-0.275074027679776289545543,-0.0126341870893714961626708,0.00189173108360758679413749,0.0664680574568261156587212,0.00850645838873014849268461,-0.00297324760799713662048904,-0.097260004912277292499212,0.995208558516776586877484,0.0535962603329651135486422,0.0625190144989410390152784,9.433883282960229266223,-0.0118556974579292640631367,0.0559224603481860010889548,0.0498645932635312372216418,8.45769390034547541290522,-0.562763739407333818398627,5.04008683783926603183545,1105.73708029407612229988,1103.16036721700766065624,1109.87260779970984003739,1116.20004041047241116758,-651.695206813839604365057,-324.234351872177512632334,-250.450876092964278996078,53.0925333332589559631742,153.752057332502999997814
48.8125,1.45944245966818075821436,1.17328132372323601373409,-0.186764202655104016859156,-0.00881756676923605396678507,0.00577250164628397011146177,0.0642900946826252261967483,0.00851535489437166281945224,-0.00290053035849715005675686,-0.0971640583832012322273997,0.995220206090347780936156,0.0580100267048734227759432,0.0597132016642032414921459,9.42677900879119690102925,-0.0119056321221702281210053,0.0556594627959525051208445,0.0489645337632295118979187,8.45768099851290600099674,-0.56264950731352481039238,5.04020170221340446659042,1104.09755943591358118283,1102.33488240606789076992,1108.87328343804961150454,1116.37126254736676855828,-537.001656898189139610622,-256.049256002375898333412,-494.269511418673801017576,51.1346544276885950353062,153.753805479170068792882
48.8149999999999977262632,1.6055474398632032517753,1.08416361210746181598097,-0.0770418847227459235860181,-0.00461822136616187300245384,0.00939252747736908817632884,0.0627702933635573140369601,0.00852947573165220747359871,-0.00283848124016563728086449,-0.0970572200722523287241827,0.995231590588593784119098,0.0626034728687192565388386,0.0572562697257384400906233,9.41970462866470548135567,-0.0119282797876549759297227,0.0554114732421782107962827,0.048061038296661834356982,8.45767078258152515957136,-0.562536693394481313035271,5.04031209669350843682878,1103.05207200958761859511,1101.880120936996945602,1107.40126024261871862109,1116.45571368261062161764,-348.789643676494790724973,-111.671448391677756717399,-711.545362312562929218984,-6.10664537934696038945503,153.755279720634149498437
48.8175000000000025579538,1.64012565054236825190515,0.941387587983933404878201,0.0451945879490050633764398,0.000347505040894870078499457,0.0126537814357726360880996,0.0623338031227913952347919,0.00855481955167395127781482,-0.00278985464625412836817131,-0.096951216752404353882433,0.99524141175184865915071,0.0673491051022808151493848,0.0552532716830258230356065,9.41264728654312499145362,-0.0119279441350186189013671,0.0551764215575532498969658,0.047150054174619988878181,8.4576645554205551746918,-0.562417056561257400204568,5.04041995055263392089273,1102.35361121753021507175,1101.77652516410921634815,1105.31555662648497673217,1116.34072932047001813771,-242.821110998932823576979,44.5687527912695529153098,-1014.37192302389973974641,-123.761182469780024462125,153.756769832456029689638
48.8200000000000002842171,1.52439174056822324132554,0.719880447898198383427371,0.160339830529167060024776,0.00677223601567533174672153,0.0151890614209231784859089,0.0631117459295095356575089,0.0085981318278640066904428,-0.00274758588638891873209835,-0.096854788177057615783383,0.995248862651679555568762,0.0720404164781506539672051,0.0538013800658496132989228,9.40560504615540615702685,-0.0119095786424534642172768,0.0549486278186265483802764,0.0462253787444562164177242,8.4576618684730675568062,-0.562286299078567086695557,5.04052899397806886128137,1101.83796645459233332076,1102.10296470095340737316,1102.32940062749662502029,1115.83690777026140494854,-158.038736712804194439741,189.986610876658232882619,-1121.80131355041498864011,-257.580768842178770228202,153.758573962123136880109
48.8224999999999980104803,1.29489254061432701448098,0.508918291839154934841361,0.19635624681019159254447,0.0120719113593674015616486,0.0160823303426728229925669,0.0643408923770992791091317,0.0086691224678089422173155,-0.00270697048528422421279083,-0.0967746559698856034792414,0.995253437723884415433417,0.076517217354728064848679,0.0530557398819422043612093,9.39858732804488816725552,-0.0118774261237335494040268,0.0547205821798381966680758,0.0452788273330869961430523,8.45766182274317834810518,-0.562142712851060766254818,5.04064330780243619045677,1101.56341753396691274247,1102.7264582184916434926,1099.70655005873800291738,1115.05282547626029554522,-113.738025329972529675615,306.522400784731473777356,-996.405097146352545678383,-391.320123089353614886932,153.760089178074395022122
48.8250000000000028421709,0.953949129956528696361318,0.284809598220204185370363,0.140317435415175689739087,0.0163202453499693006522264,0.0163230724451598196989011,0.0656269870730912807665902,0.00877652074238740101397305,-0.00266635860946691071599046,-0.0967187520432862268826568,0.9952546481097884756295,0.0806860875460004012271753,0.0531578121614050824739195,9.3916156035734328355602,-0.0118351784062733934171918,0.0544844679919825880531903,0.044301503732546987368579,8.45766357573458726903937,-0.561985914840888556298637,5.04076506363680021394202,1101.26927632794217970513,1103.63557670487784889701,1097.34737514176231343299,1113.8803071548136358615,-150.353408606147638693074,395.455967707109778075392,-836.77891986979307148431,-525.622192664154113117547,153.761614897794459011493
48.8275000000000005684342,0.562820643671816722708456,0.0522605232596932423039249,-0.00377804922789604091803994,0.019061152331437191537189,0.0167173911544123698913467,0.0668879031429470277680949,0.00891673059988890188976018,-0.00263272011058766734759029,-0.0966944543202210154975162,0.995252314580075680972016,0.0846447453481430356347914,0.0540332956877495745873219,9.38472351143627392389135,-0.0117852552455369481015923,0.0542334109568469932560753,0.043286386916341200448155,8.45766767767199034722125,-0.561817128783096642052897,5.04089352497665643682012,1100.81165049093579000328,1104.70373805702820391161,1095.5226554593868968368,1112.42471451293818063277,-253.87391216300227370084,447.837971950546318566921,-537.054302284820550994482,-631.284033420325840779697,153.763147911308323045887
48.8299999999999982946974,0.181030110546221839618042,-0.192820111819473671843639,-0.253006144435896196398517,0.0196961350025960865717245,0.0173355036507278036095325,0.0679217964927758821591652,0.00908060258600585680499595,-0.00261106098265118449774924,-0.0966963590349453200323282,0.99524782285916746360499,0.0884711316587009355405513,0.0554980904661527135735,9.37795452779905502893598,-0.0117286040723960267861958,0.0539643991630681663096425,0.0422288002775175197456292,8.45767302714484792147687,-0.561641378970229254719015,5.04102608320626810467502,1099.99990676712832282647,1105.87476656462854407437,1094.66210363034065267129,1110.72388698771487725026,-463.888728910787051518128,522.176995213163763764896,-109.759612648384305089166,-771.739825619912039655901,153.764687457558608230102
48.832500000000003126388,-0.171080316838965351688984,-0.495748914274280194636191,-0.647920945642586731949564,0.0181758029940502947863212,0.017412564544761824358865,0.0681879456545894796493101,0.00925623562340409378190742,-0.00259432003831738941176943,-0.0967060277287613567764879,0.995244309992365461248198,0.0920295939171835025716106,0.0572900934410807555208223,9.37135979288133746933909,-0.0116655903530934346862269,0.0536799749875633280815634,0.041127121074998287952873,8.45767740600808970441449,-0.561470438460896503762854,5.04115871189877928770784,1098.49220684638066813932,1107.31462303309535855078,1094.97385739614469457592,1108.56601538483664626256,-642.574002440859203488799,525.946147077778846323781,335.270990555192327065015,-783.295715872154119097104,153.766538735943981919263
48.8350000000000008526513,-0.317191739499606439878221,-0.739280889906693050583897,-1.01920112160982800908471,0.015336412620339944998249,0.0163619723505431698129531,0.0670266725457838163926283,0.00942495924069358670394081,-0.00257680482125310353000436,-0.096704009604030985447487,0.995244787972839550782567,0.0952291228856145532954969,0.0590174268271270591190714,9.36499402982547302087823,-0.0115961092679839877089831,0.0533879734558913923714307,0.0399840696109259249868551,8.45767892018559663824817,-0.56131669786599303062502,5.04128600804340099017509,1096.78703675492238289735,1108.50449730001878378971,1096.33845858311747178959,1106.80740840835210292425,-751.982043547424837015569,466.899022855993166558619,724.463638077917948976392,-662.350664659527296862507,153.768081346318155055997
48.8374999999999985789145,-0.270218485498276317358091,-0.943183465103247797856056,-1.37177822065313304022993,0.0115325767063022329578237,0.0138642697186047055002422,0.0640086266494339639621103,0.00956996045590400266911413,-0.00255650260523576080759489,-0.0966747089616594029726215,0.995250077287665013692219,0.0980500570383226188742043,0.0603234310464263040474364,9.35890990468532635304655,-0.0115200213089857225051693,0.0531006345186238945532686,0.0388058293914631050047781,8.45767659849535569094314,-0.561185228970661587055702,5.04140474339783750679089,1094.73229662864696365432,1109.64911814737320128188,1098.59617558653098967625,1105.25426206154202191101,-846.179853398483828641474,443.899054482745043515024,984.121003557307972187118,-565.194673790967613058456,153.769619182200358409318
48.8400000000000034106051,-0.0665646915711798348169737,-1.09119954502038907229178,-1.65720157381722921208222,0.00790314011487882293882645,0.0103429510412946876890539,0.0594661895950842692148974,0.00968763803702700314335328,-0.00253679193950706984364563,-0.0966164897539319028618721,0.995259358597089360820576,0.100554324175295722865187,0.0611023257784029383277158,9.35315201101616011669648,-0.0114381445717475251078188,0.0528323689038905086601261,0.0376002985490525715173149,8.45767020866493623998394,-0.561075460555404803564272,5.04151187087469132563911,1092.55613748792779915675,1110.72399257243364445458,1101.25906360090652924555,1103.98143503939581933082,-847.424285721147839467449,400.999229215744378507225,1064.25562477493372171011,-422.987422617017784887139,153.771149057538110582755
48.8425000000000011368684,0.273937999364650686118239,-1.15580399809368916663743,-1.80734479007685377993653,0.0064168783082905710146715,0.00642306916591954199513559,0.0537193478756557707409769,0.00978527973983952040204493,-0.00252512668511660487435933,-0.0965366825814710366460147,0.995271013364701584436034,0.102863970707605320575873,0.0614553634775557716674044,9.34775421902926240136367,-0.0113517947752771585639975,0.0525962795359778065296119,0.0363763145046925931436199,8.45766046022573725338134,-0.560982279094567548582972,5.04160485747680819912375,1090.49517520003905701742,1111.65411429345294891391,1103.91745371040838108456,1103.1393249484558509721,-813.06938731423826993705,354.083365326463592737127,1049.68835450845267587283,-263.465301625923018491449,153.77266384430095058633
48.8449999999999988631316,0.726718315480455734345355,-1.13919539607256714575101,-1.78674483086380608831689,0.00877915370424724172959685,0.00230458517466734401010764,0.0464005789948003233291729,0.00987197147483484180319202,-0.00252490338058139907745359,-0.0964457996229274167054868,0.995283177396417473303813,0.105025318351006952122262,0.0615108666033513662441123,9.3427404534410651848475,-0.0112627332247930821845783,0.0524006241508607889523219,0.0351431259749762081590063,8.45764952424379501394469,-0.56089523228242399444099,5.0416855284811017412494,1088.49079055136030547146,1112.49440939906435232842,1106.5075053734440189146,1102.66410853126740221342,-618.023223251250215071195,243.598572266967465793641,787.992608746532596342149,-93.001148609707968262228,153.774456301605567887236
48.8475000000000036948222,1.05091710433170448801832,-1.06197321790250520656684,-1.5936585897853536852864,0.0136042164520614964479117,-0.000417093107782780150426943,0.0404632086102816521111514,0.0099546152854023805395256,-0.0025390307817252620592452,-0.0963602429253048037294249,0.995293895609076439967566,0.107081964636008136748657,0.0613630881372275588381271,9.33812464522727481153197,-0.0111731546321107867020261,0.0522467974350810729355921,0.0339093997151052525818038,8.45763998225899094052238,-0.560804885718173329323122,5.04175822023339481603443,1087.40505908378122512659,1112.87210715478840938886,1107.85741675414305973391,1102.67431920540707324108,-287.67574134634577376346,63.2900265941902020472298,342.840890032045649604697,65.6695569683625421930628,153.775923058181916758258
48.8500000000000014210855,1.2428854997093199408198,-0.94313660655201958515903,-1.23834331953881138232987,0.019390594918615240010995,-0.00249771924978792409302586,0.035561283186090808516866,0.0100317347231992180095483,-0.00257036147892454385974204,-0.0962859369099940964886741,0.995302498397534707308409,0.109092978251432770608886,0.0609635442107294978075771,9.33391272100904600961258,-0.0110838927963262945386447,0.0521290884968553108747003,0.0326827788052985596101152,8.45763324113015535488103,-0.560706271804159217531094,5.04182546627317584864159,1087.05241184462784076459,1112.81085953203546523582,1108.22170982360512425657,1102.99245631610938289668,13.4367051301191509082855,-143.170520952201655973113,-45.6369094519192373127225,175.873528523312302240811,153.777355228656517738273
48.8524999999999991473487,1.2921671093254678552853,-0.777861853166484151778093,-0.684164277559036637654799,0.0257203210719368323411427,-0.00432361177076543909403306,0.0318083205139568503394543,0.0100993408758283578080528,-0.00261170636966415008195508,-0.0962213111045176622271313,0.995309297150305472001719,0.110936057886465433419687,0.0602191967364186647726498,9.33010520249718311447396,-0.0109953344280914605546329,0.0520358726188566225734355,0.0314685091705549369045514,8.45762906930650082415468,-0.560599388318328784031053,5.0418884987050835988498,1087.47224260943175977445,1112.15625455002805210825,1107.62923220688367109688,1103.55368684802283496538,276.435733612601779896067,-336.162144295677478567086,-345.691308681585326212371,209.873277045455267852958,153.779026882755516680845
48.8550000000000039790393,1.19910750586264391870372,-0.633663039753831980327448,-0.176070698667509933921238,0.0298683585395237462256635,-0.00525933718975000932122077,0.0306647783750649098599705,0.0101537409433446433604242,-0.00265591005541124811420439,-0.096165340248260497424404,0.995314550738776726568346,0.112489378737249706707857,0.0590690648836124515552726,9.32669829784669701666644,-0.0109074352985764604778707,0.0519510033538046131496024,0.0302689372760912983606474,8.45762634103216015546423,-0.560484561245734536072405,5.04194747143796107025082,1088.4345905126915567962,1111.13004881055621808628,1106.49325328019631342613,1104.04182270133719612204,477.410175174719768165232,-491.455226856281626623968,-521.940618710601825114281,174.019905417801169278391,153.780376179035243922044
48.8575000000000017053026,1.0153290127430252276497,-0.486413653293744419059408,0.30113946028370075502778,0.0326015102296220299349372,-0.00603879692746746906534261,0.0315184264814671877275032,0.0102032138742284578941666,-0.00269796409265389818682435,-0.0961202503815259956532202,0.995318008535991394225562,0.113649469485257698098124,0.057708453814691446082108,9.32368501073881006391275,-0.0108199277684788448122832,0.051855779198580503885907,0.0290821121349355664331693,8.45762415357383190439577,-0.560360414362536252141922,5.04200416848899646282689,1089.85929348530657989613,1109.69897841574538688292,1105.01952911332932671939,1104.42378637511228589574,616.233932110905016088509,-612.036437656035559484735,-597.394806000599942308327,121.728008378951685131142,153.781675086161214949243
48.8599999999999994315658,0.801226724132863332705767,-0.330741268289439116490058,0.697081581705170094664936,0.034247577295417441778369,-0.00704313595943813902655606,0.0338720521775859664814767,0.0102717402362238439950115,-0.00273686850375447036920473,-0.0960949559499241212634502,0.995318512675534949885048,0.114358988818312662383292,0.0566623418248071442082647,9.32105761943823729609448,-0.0107327436770713810498812,0.0517304133755351613910278,0.0279014262410780047862779,8.45762242597767155416477,-0.560220491846209145414548,5.04206317943506654444263,1091.51576017324327949609,1108.06986662227882334264,1103.50627925019603026158,1104.65046274323140096385,681.555325130799815269711,-655.356201299747567645682,-568.704670929428289127827,43.2631351318611123701885,153.782928885976900801325
48.8625000000000042632564,0.601257569335241659480573,-0.153668919890527111427048,0.942057160366141843610421,0.0347421875902779800360243,-0.00808986334578456166288785,0.0376319299302128248974064,0.0103764185136108692125712,-0.00277151917016568846360847,-0.0960920416030490998071656,0.99531558415679399764997,0.114570518557200295983733,0.05635509190556343972478,9.31881447441632637662678,-0.0106451128179791010969213,0.0515549200820212966123179,0.026718404164240691645027,8.45762089612752632206139,-0.560061071739628157928337,5.0421279588936611659733,1093.26707011096232236014,1106.42219740924497273227,1102.17600575868073065067,1104.64010205077170212462,747.451723006387965142494,-670.679210400860711160931,-505.095534165562526141002,-65.5286094266676997222021,153.784124750105547718704
48.8650000000000019895197,0.425133815095259992578036,0.0925607058942592153538698,1.0230736009344809644972,0.0345218593324103928399182,-0.00895888974770795570856663,0.0428807015656827369975979,0.0105262301298445892089317,-0.00279557143726918890663802,-0.0961031437506620345168074,0.995310075519805215193969,0.114153467450310047714979,0.0570726794468124631887207,9.31696235845675069242589,-0.0105558250315763938603775,0.0513118425412585621447903,0.0255237938043477129157477,8.45762009276719339823103,-0.559886148749442313921065,5.0422008755285130376933,1095.25301878827713153441,1104.71647057027280425245,1100.98080157936692557996,1104.32281969609789484821,678.66216398981907786947,-543.688850647816934724688,-359.258347669319164197077,-166.659630550445086782929,153.785488805455941019318
48.8674999999999997157829,0.347754887830180381413925,0.324465688949666652973747,0.911861111106675781279307,0.0341000876991593634968147,-0.00943955279775136532616209,0.0470218054573292784659166,0.0107058828888846047089345,-0.00280883215074014588180651,-0.0961199183602625267797137,0.995303076585007051590992,0.113135219885673543593896,0.05867653343739394344869,9.31551738352261970987911,-0.010464102013858460685225,0.0509880162541751294491554,0.0243108015722558259974484,8.45762147881944237326479,-0.559704430393097696061488,5.04228030676897720496754,1096.66038093090833172027,1103.70375315600836074736,1100.37971402033576850954,1103.80680389802023455559,479.583694577359210597933,-290.359827317740098351351,-158.604533542584960059685,-250.431446245064876165998,153.786563610321422856941
48.8700000000000045474735,0.338132637500192512192143,0.568940940094951330685547,0.645720237145847142379296,0.0337231209828138395190322,-0.00921627687854632664243848,0.0499754011391911057149429,0.0108872204188103487848549,-0.00281218674610446894499005,-0.0961275352314264891484541,0.995296440411796434766245,0.111587197410545096998291,0.0607950400018535536128539,9.31450325595038286508043,-0.0103694731331096523518909,0.0505772710042712916878038,0.0230752593693997094803638,8.45762506561788285353032,-0.559526871279408144488343,5.0423622227883244661939,1097.65093726116515426838,1103.26467143368336110143,1100.18777891165359505976,1103.07066246487192984205,310.028518207832917141786,-46.5871334936071406218616,-1.65401303893219808749393,-353.985106915934807148005,153.787570378373544599526
48.8725000000000022737368,0.37280501956064526769552,0.839975171800103503905177,0.213529842868754565765599,0.0341640449526290981840937,-0.0071383257809540601526721,0.0515962276718011161880106,0.0110560981033826621205973,-0.00280751995380314200989602,-0.0961180788397319463278734,0.995291258322292260452002,0.10957664768211855532698,0.0633109642664093502650857,9.31394501115682693637154,-0.0102730953276927092221449,0.0500819208025239243076143,0.0218139314214039550798852,8.45762970809892955514897,-0.559359289750936183871488,5.04244296566350769239762,1098.21052352194828927168,1103.47081748854020588624,1100.37144395514110328804,1102.03687836343965500419,86.2731643121935718454552,193.685039684163427864405,124.027081240432409003915,-382.892581790049803203146,153.788694483824485814694
48.875,0.404758531822756228990556,1.01443934273871416706925,-0.182338836049401709082929,0.0358402644604170969588885,-0.00397626542038316630606198,0.0514106347985859579718948,0.0112048030413094343304969,-0.00280053818273405053310143,-0.0960954471338106158695425,0.995287533427029802446384,0.107233453867555672545109,0.0662134824025612245268491,9.31386640589880165919112,-0.0101776696794031677045789,0.0495114581852585874943706,0.0205259330930860628416923,8.45763522149248103687569,-0.55920347903587619420307,5.04251898952829957778476,1098.08230308272572983697,1104.23309663210329745198,1100.80791431785519307596,1101.15619955592342193995,-179.412198883737261212445,405.916392254226536806527,216.282429461504108303416,-329.152334931340305956837,153.789556650007682492287
48.8774999999999977262632,0.400009085782485174220824,1.1050148806882575946986,-0.545714254913826746218319,0.0384880568723504901118559,-0.000139412229305125668146759,0.0498829124253708303116106,0.0113391494909310663885549,-0.00279728477594318051049904,-0.0960719070920059980966954,0.995284508627475195119416,0.104673097921987423575274,0.0697109623043247195184335,9.31428508137629407315217,-0.0100868149872036533959418,0.0488814710584137349091982,0.0192120848225804836950648,8.4576419737406922649825,-0.559057271693767732223534,5.04258871572114752979132,1097.31346252753041881078,1105.50039944980949258024,1101.4528561024476402963,1100.39111668878445016162,-406.309197530273593201855,562.778845418900687036512,276.918274775693362244056,-269.558653144393588263483,153.790335144447908533039
48.8800000000000025579538,0.349866238958277342430137,1.11714983381774035642309,-0.835596720547618798669021,0.041103074262666829119528,0.00377482497866582153434045,0.0473292089871955035107476,0.0114718401202598910965103,-0.00279864927605396685353356,-0.0960573813661462910795663,0.995281855842013118973455,0.101906519573865816941094,0.074086678192952504229396,9.31520983507514088728385,-0.0100037119285751006925178,0.0482121028009631080735176,0.0178752965043021579127913,8.45764941866107911039308,-0.558917201246769357325661,5.04265203924694827009034,1096.05075709507332248904,1107.04699085919924073096,1102.19250569173436815618,1099.80840629020076448796,-601.164713167610784694261,640.489318957351997596561,293.713300246722440078884,-176.296456016553605650188,153.79103898899310820525
48.8825000000000002842171,0.25272770898313356990883,1.04338449823976353592059,-0.992643661475370864266665,0.0427059617099825039598926,0.00722230026025280288926034,0.0436794198478710760102928,0.0116055995133230883259445,-0.00280204522695099269083419,-0.0960501506449955438915467,0.995280811465123815828804,0.0989011678454435050333871,0.0793805438563830872977789,9.3166392070222130428192,-0.00992971760097489074270438,0.0475265907244155141886388,0.016521819837170773764834,8.45765469539603387261195,-0.558784901344767215292109,5.04270837779053682226049,1094.30763896169082727283,1108.70284604459789079556,1102.92142260368200368248,1099.50963440870123122295,-833.83279130233302112174,687.135767330016392406833,278.122686417444242579222,-64.4380664980093911253789,153.791645721973708305086
48.8849999999999980104803,0.116527224629269773870099,0.886983191233023160471305,-0.994444339328744320027909,0.0430570252612338735809239,0.0100484929839458805161945,0.038659267093063609532777,0.0117357502307969055466152,-0.00280397853235741633531886,-0.096040443903409572490304,0.995283267094565382571147,0.0956241715022658200773265,0.0854372220211386951271848,9.31855753295489286358588,-0.00986463380682502111174159,0.0468504420998763701500245,0.015160456582003312836493,8.45765452632972269952916,-0.558665401169541886439163,5.04275711866370635050316,1091.88159313856544940791,1110.48266969584619801026,1103.583119123820324603,1099.48621595771101056016,-906.518768448486412125931,571.075938931361406503129,176.546182219499939947127,35.4070531823982364016956,153.792251495459424859291
48.8875000000000028421709,0.0172133508362132640889808,0.729328789205302308040757,-0.839233901236569490578177,0.0422391741243571053332495,0.0113764205439399797986644,0.0347427170671071802732222,0.0118518535939632612546957,-0.00280974985588479646975157,-0.0960183084854548812847597,0.995289490991901781846707,0.0922195772094922816553009,0.0919534191320880572861896,9.32093144198591616600424,-0.00980751062523207116361501,0.0462100036965224988949608,0.0138018653478960365982298,8.45764802012591410118603,-0.55856028659324441498768,5.04279634606264082208327,1089.77504511944607656915,1111.55822573925615870394,1103.80415351477995500318,1099.68666967461331296363,-811.669095962946244071645,302.938398798578077730781,-8.54135736912684961907871,97.9083970142664128388788,153.792646876292764090977
48.8900000000000005684342,-0.0407735025302170261962686,0.572905708664158574983105,-0.549395217088775367209053,0.0407962216759584495040514,0.0120319536909428096566055,0.0319684206290981459686051,0.0119513865551492803190881,-0.00282098921034523459488996,-0.0959790727698428824954391,0.995299015134815223682097,0.0887523798995427659619395,0.0987114780020998672238619,9.32370736228108576426621,-0.00975808933353976282187858,0.0456307913263653899815786,0.0124563977394216481714428,8.45763677694955795516307,-0.558468591777691925059912,5.04282684227824429257225,1087.82324765874864169746,1111.99736168983986317471,1103.54041233697466850572,1099.97575794278259309067,-770.129905042240466173098,26.9739620387344736229807,-239.910759945078012833619,105.924907088643450947529,153.792920614302090598358
48.8924999999999982946974,-0.0573613648424037766981876,0.404607495928096083659398,-0.108532065263307359037626,0.0391316325066220077610879,0.0121614417310705272973204,0.0304087611131047576285003,0.0120293734789335693413648,-0.00283761496648737669701301,-0.0959229717148292332362658,0.995311169976437981610218,0.0852628976380574443716398,0.105396172938566567989227,9.32681340747308063043874,-0.00971700822680077354320805,0.045135145398840142982877,0.0111343241104963682625018,8.45762376975142338153546,-0.558388517111875648524233,5.042849491486119717365,1085.92439559423837636132,1111.69309554944970841461,1102.60459971505565590633,1100.21629421005604854145,-590.344577887133596050262,-238.416582573305191772306,-438.015256242400596420339,41.5063869801330440623133,153.793100794605948067328
48.895000000000003126388,-0.0423703696743195842855378,0.279564290840769391621734,0.279155177232515094853937,0.0384546153814947014315528,0.0122894156728017220348015,0.0306751782723110461015281,0.0120818325886646368155786,-0.00285786202933254298089172,-0.0958505666936493860852408,0.995325380068039500258692,0.0817607465543781219974306,0.111667761174949642377641,9.33015996118954937799117,-0.0096854931766242810531331,0.0447406164229414704536225,0.00984479633951985781681326,8.45761090130719317414787,-0.558317650095806250476471,5.04286485052563637765388,1084.87152476931146338757,1110.80527877697272742807,1101.35033605576154513983,1100.18328987768336446607,-286.525523389435704757489,-443.250810029258616395964,-573.043343468841726462415,-85.4331120914611688021978,153.793122884363668845253
48.8975000000000008526513,-0.0312545671196781463252456,0.154078697682954957048906,0.61654286521127543707621,0.0388889498190369969909952,0.0130694621141457800739261,0.032581391079762829499078,0.0121082222911639541401696,-0.00287927393035823870129364,-0.0957666257179768387608476,0.995340635911764692878023,0.0782382522204962682632612,0.117221747383542490572594,9.33364141638749700291555,-0.00966552020094395281102351,0.0444584777160733010670235,0.00859503308497252226094698,8.45759961199503251805254,-0.558252448387406285945644,5.04287384779940861534442,1084.49176797729046484164,1109.47684149930228159064,1099.73938299770998128224,1099.78912864959852413449,-35.9391930470664533459058,-555.278705981759458154556,-675.323282236809404821543,-222.804156518189131475083,153.793008048665512887965
48.8999999999999985789145,-0.0495944915671113206734333,0.0126793905241604307893022,0.864164754942197355092048,0.0398183571198577127003837,0.0141466566023341015073678,0.0357637576924771105613132,0.0121040364213825350769849,-0.00290337761182981289598271,-0.0956836158480086768074457,0.995355106641521603094702,0.0747696703264499606955695,0.121674239050714699805766,9.33714144889524000348047,-0.0096596971193324849408457,0.0442925512114730121626671,0.00739052845617249078158384,8.45759121625470910998956,-0.558188179820691576793479,5.04287750481349306141965,1084.69182880407629454567,1108.02888524706645512197,1097.97371964458056936564,1099.06926909509343204263,204.899014850238700091722,-540.74353110749677853164,-707.708760919878727690957,-355.514419978953810641542,153.792777673841328578419
48.9025000000000034106051,-0.123463342330593500717484,-0.158061435161237995306038,0.962740212264390105012524,0.0407507490417121850945215,0.0151278708486503772612242,0.0400330962564520304036719,0.0120674393770379712736984,-0.00292839123081153201999527,-0.095610197422448556237029,0.995367085328429213042511,0.0713638676354895334918993,0.124687549558051974374351,9.3405365351156248721054,-0.00967001587237242832273409,0.0442392200620039394154404,0.00623396921595556485762302,8.45758523400598605235245,-0.558118378023208183691395,5.04287762868480893274636,1085.51626305154218243842,1106.77312384376341469761,1096.2008391931087771809,1098.01155654970284558658,464.091055792904569443635,-430.976675913877954826603,-741.767581105734961965936,-510.784757322073971863574,153.792406773568330891067
48.9050000000000011368684,-0.280535516378157157024731,-0.389407995025995823379361,0.891273825715110712408773,0.0413104749994951669922472,0.0155968832406181631689002,0.0450957434737961904147596,0.0120100425136388435504164,-0.00295339385972254999876419,-0.09555204645452657075122,0.99537473923135366682402,0.0680221041941260762264676,0.126194490690054395010122,9.3436973632018354152251,-0.0096975918134287811267491,0.0442880103083443249500917,0.00512411288191600040875517,8.45758011312153534788649,-0.558034824870118018047549,5.04287770035939253432389,1087.01228408304200456769,1105.87400186749596286973,1094.26488173904999712249,1096.51534530848175563733,589.576469107568868821545,-191.605271572317718664635,-656.636324446987259761954,-554.931315859180244842719,153.791799222405387581603
48.9074999999999988631316,-0.456512662971226668151559,-0.582848424542889875787921,0.689711467023236046713919,0.0406636192524512316004426,0.0148486084765812459407286,0.0482523315835429178477511,0.0119469880389392775488222,-0.0029883064784344847732156,-0.095511148055688110947159,0.995377263987781035758928,0.0649410136775697699462739,0.126247297025009891369152,9.34649657642810538504818,-0.00974250931648525282657847,0.0444228857451346506590717,0.00405689115556416568519893,8.45757652271609572380839,-0.557934927663082169679853,5.04287839741561771944589,1088.46414539707734547846,1105.81509748590269737178,1092.91765757087682686688,1095.23689997040946764173,566.889539039749365656462,129.566342818613634335634,-468.188188315331558442267,-480.453832689845285131014,153.791158592627368761896
48.9100000000000036948222,-0.655211297217920707325334,-0.739222040953865455747973,0.387057241174382282711264,0.0387852256254800006884942,0.0125744797616128816536429,0.0496517726235875256346475,0.0118906217154496601090541,-0.00302943729442786951339128,-0.0954845239169467563389304,0.995377215812484728019172,0.062068277398011177659054,0.124869585775065711219511,9.34881831540532104440899,-0.00980416909837824104845261,0.0446243111409393017341429,0.00302606279410499437107496,8.45757369629479072159484,-0.557826163611221503835225,5.04287929096085019153861,1089.84673177824220147158,1106.52183358158936243854,1091.92394079747214163945,1094.11307614503130025696,534.390526395781648716365,454.147122366925543701655,-347.224185030840715171507,-425.522098817837672868336,153.790380828775312238577
48.9125000000000014210855,-0.895259816382694362246752,-0.843308777526058039875068,-0.024884293051589047307548,0.0359887290083812441676692,0.0085976765491061809404405,0.0493050329546026872007403,0.0118428398756625346405214,-0.00306405518272676383184638,-0.0954583845859362373209578,0.99537867871034313438372,0.0592006289011214187345544,0.121934104473273796642729,9.35056520853832573436648,-0.00988077769907067839094683,0.044871121005967032346895,0.00202436133566735601899134,8.45756963491515989517211,-0.557720304036846359352353,5.04287990525675855479903,1091.13609802905762080627,1108.08583309773848668556,1091.1815366457217351126,1093.10928947631919072592,381.574501183314680474723,644.475035176260007574456,-194.934735121882965813711,-297.569594076956093431363,153.789292792431695033883
48.9149999999999991473487,-1.08584955971515850770004,-0.845660412731966348864887,-0.363554414556189975371581,0.033557936017078342227915,0.00519231755628146458142469,0.0478677443260734913899057,0.0118030595301087583987032,-0.00308624570074908424061055,-0.0954318545598394768481043,0.99538342531092682818894,0.0562619435557681346615766,0.117348279238776914690234,9.35165931909675407496252,-0.00997145286796727141342966,0.0451405998761675725239328,0.00104334741533552988190792,8.4575640241885938763744,-0.557622183968163986911293,5.04287958255658441686364,1091.7546042841570397286,1109.74420875746773162973,1090.94926712186361328349,1092.62522817464787294739,137.794621453188028681325,665.403485322781989452778,-12.7965109439563118343131,-120.435782154829439605237,153.788260698032900108956
48.9175000000000039790393,-1.2585063408140504392918,-0.766612922660889428705389,-0.658506270437225427194505,0.0310145416889896947953975,0.00258055976069534532060801,0.0459170141058614922346948,0.0117786086153454476466163,-0.00310309666158458232268491,-0.0954115548954877629173055,0.995389672804455227783649,0.0533999064453162600174529,0.111264780113315780996075,9.35204252710623329392092,-0.01007586196102300268862,0.0454078603264051888777075,7.2850462953138561510158e-05,8.45755850390863450627421,-0.557527371367728896700555,5.0428784959624133321654,1091.82507113632391337887,1111.41285052435409852478,1091.11755409100192082406,1092.50711056554473543656,-58.5042672567552415330283,615.963975050184217252536,131.017562492912759353203,1.92160551337012219796918,153.787103553980159631465
48.9200000000000017053026,-1.40926891158693057271023,-0.63828297764374375411478,-0.899256300021716192816257,0.0282839716780256857087128,0.00079273777035309496343668,0.0436095785801492788480438,0.0117876942141473314146216,-0.0031247764585353009908486,-0.0954125084316318206045793,0.995393832036847059363538,0.0507957421633377231851014,0.10412139118705274198895,9.35167930123674118192412,-0.0101943439650367846660561,0.045644980736898543849378,-0.00089912569230082730990794,8.45755521967170587060991,-0.557423018434421102540455,5.04287845676416957019228,1091.46208294787311388063,1112.82402863272022841556,1091.60435493432851217221,1092.63483620221472847334,-230.359001442030006501227,450.821477839372903417825,262.949824076770653391577,84.5014966959156481607351,153.785847195738568871093
48.9224999999999994315658,-1.5196268430182013897678,-0.478533471779465424678079,-1.06208222004462049525841,0.0249190169049262333356154,-0.000144058220468980876117354,0.0406845457188023465477933,0.0118393513336103404359756,-0.00315967566323155195362471,-0.0954389255009571862986562,0.99539344279941577298132,0.0486099818251661680568176,0.0962587208600226146293366,9.35056373707825194685483,-0.0103260339107307270306579,0.0458218219429477741089229,-0.00188419317275835226412062,8.45755546783773226593439,-0.557300464239976034441781,5.04288113360465928280973,1090.67327612911481082847,1113.66695791354891298397,1092.4323032113845783897,1092.92961804902392941585,-411.599362812893105001422,200.84786546343551094651,422.970017138606692697067,125.61298026233029645482,153.784477438839928709058
48.9250000000000042632564,-1.58166418779234763114516,-0.282997501034816023590679,-1.16129516344488337153962,0.0198561652117690175256559,-0.000604993693262764753448835,0.0366853444682597659709522,0.011937337832031734430327,-0.0032071999533571089562034,-0.0954898184810944739009386,0.995387657177831730592743,0.0468398455970529814518244,0.0879755034661953982944027,9.34871770439261950969012,-0.0104692051273902447111608,0.0459079918756340396579496,-0.00289335891963938846710436,8.4575600698986743708474,-0.557156131156089418077215,5.04288783136287577235635,1089.40408613380759561551,1113.8282679600379196927,1093.71920502002262765018,1093.26290110352670126304,-493.941332176993626035255,-85.6757829432370385802642,498.911384864840670161357,87.3631103507712936107055,153.782711733786129570944
48.9275000000000019895197,-1.55986675886100178978211,-0.133963763337212993231873,-1.16802560539491562252579,0.0150268144504736907846043,-0.000658285554607983768547752,0.0333995909473785157484116,0.0120675430467177807053458,-0.0032624268150739333879673,-0.0955562778646611155064505,0.995377023020770246297673,0.0454274367206917717432191,0.0792948617996627191928383,9.34619073358995322564624,-0.0106208883102394801428714,0.0458760433105089293626122,-0.00393496037915912720561717,8.45756848202539579517634,-0.556992110319085353964397,5.04289773501558169499503,1088.20356946822857935331,1113.23857899883250865969,1094.92686013571005787526,1093.3664336007780093496,-484.563543159933544757223,-359.669845529160454589146,478.158615747796091000055,-22.695354946129278062017,153.781145937716217986235
48.9299999999999997157829,-1.45732211467915506730719,-0.0112861196232556717372608,-1.11065717359302418287825,0.0102897978457784748662629,-0.000556854169784091156125694,0.0305490688791173574390125,0.0122054901035526641023266,-0.00331359979170900865313998,-0.0956285299308925196282161,0.995363767173028657353484,0.0441989290761109487881697,0.0700874248950023731596914,9.34305356773531414660283,-0.0107774192555314587277371,0.0457045938857031305846412,-0.00501455563722135681109515,8.45757763169522291946123,-0.556814859072769285930349,5.0429093193043357246097,1086.98126841801013142685,1112.02991873239375308913,1096.10999809875943356019,1093.14942432879615807906,-522.583618177719472441822,-614.858681483569057490968,474.081464229569348844961,-181.008253348407549765398,153.779491215725727215613
48.9325000000000045474735,-1.25892237137575913052956,0.0993787320747864660885895,-0.991281817180566626745986,0.0057269950701960602515439,-0.000364826280637640465789873,0.0275788654833722599035717,0.0123259829809174055459398,-0.0033505144370695174801944,-0.0956974769434922600819249,0.995350065301371600412494,0.0430034681920374584063183,0.0602510386726241020660666,9.33939077937097117398935,-0.0109347344793076887980998,0.0453808502316972173229459,-0.00613507605063077186835496,8.45758478960449266992327,-0.556630889909325077269386,5.04292080792868535610296,1085.59065137733864503389,1110.16428559141309051483,1097.29726745685911737382,1092.46139233403550861112,-488.579484645583931978763,-699.687914368729593661556,371.784670733487359939318,-316.513246027372531443689,153.777413323989350146803
48.9350000000000022737368,-1.05582112828239660373697,0.158895245027066867038457,-0.86735851094841187602924,0.00304804585205248204995976,-0.000162530422558655686295775,0.025390083131977252833833,0.0124077288806564139250765,-0.003375519196556556623251,-0.0957502024660836920100238,0.995338263756718633068488,0.041909318360433045480562,0.0497990155970638448401644,9.33529473805640463979216,-0.0110884502530330664171743,0.0449021787895903523590846,-0.00729671472744449021302637,8.45758859006249075207506,-0.556451607409715220953217,5.04292826057027987474157,1084.5383709947809620644,1108.53147916054831512156,1097.96892145242782135028,1091.56685809865848568734,-394.551318731959838714829,-606.761735057086070810328,187.841491643564808100564,-400.863571686796490212146,153.775612663346720410118
48.9375,-0.846883075017837771980567,0.181246938120328771049117,-0.738118963756224433225839,0.00117630029912829561604404,0.000115428769335621515031848,0.0236449553186251805458884,0.012447953727011589267204,-0.00339693694509190331418114,-0.095785815418963943246311,0.995329024293680086898917,0.0410569651931285278800843,0.0391001390155168160323029,9.3308589845029477061189,-0.0112356975614106169986117,0.0442756422432633300889648,-0.00849826443961826383244329,8.45758869075462449416136,-0.556286282098327977685415,5.04292953482887273963797,1083.61789478368064010283,1107.13047691613041934033,1098.23647491507608719985,1090.45707447560334912851,-346.373275760057708794193,-484.879897393179703612986,43.4739001621833054400668,-454.225879168783876593807,153.773749633112856827211
48.9399999999999977262632,-0.655076078758458302253587,0.16882864795047755612778,-0.618121758323860293060648,-0.000202382645353748713383524,0.000497063373009263187625451,0.0224542687308088677322626,0.0124564023775713145908428,-0.00341984693146499913948833,-0.0958103842841995512191744,0.995321924820486980678425,0.0405002404806930269010046,0.0287312684121553522931247,9.32617588729187652063501,-0.0113747440110139493019137,0.0435167560502044623027551,-0.00973690164096617516431564,8.45758451502790009612909,-0.5561375637420624684637,5.04292374852580049804374,1082.80650461598224865156,1106.10707967358462155971,1098.18629095323854016897,1089.29572870281663199421,-299.686063192649669417733,-293.920129056718621995969,-76.3562983355832756160453,-442.047140400656076053565,153.771841911640450462073
48.9425000000000025579538,-0.504165986976319424606174,0.108337340396148756882511,-0.5209263142777800226213,-0.00114196585056035716625178,0.00103635426707458853760879,0.0218465231037911385147954,0.0124419028461793361450827,-0.00344529147281954920348235,-0.0958282254504091435265423,0.995316557393360334948795,0.0402166991569996926103592,0.0192089821497562034113837,9.32133458261116132348434,-0.0115042680457004310723423,0.0426477018090838377872842,-0.0110074336492676002480229,8.45757580206098857900088,-0.556004961460655144911414,5.04290885940259592246093,1082.11946446771662522224,1105.66087627084607447614,1097.85469342339797549357,1088.24683877359893813264,-273.030940471786777834495,-61.8911443795379341281659,-172.490474867166057038048,-391.34774638753685849224,153.769888877826531370374
48.9450000000000002842171,-0.387906800729028999885628,-0.0258277194183680475214615,-0.433554073077736301655705,-0.00192420769689580434605447,0.00181716400389505487039665,0.0213264788339583462317695,0.0124104392957624792837024,-0.00346755581471163733253693,-0.0958411579997844598199919,0.995312712655455511523428,0.0400621622276096170378601,0.0109342028911904830257296,9.31641714106304519305013,-0.0116233129676177066730292,0.0416950740494101412814132,-0.0123028738687079881169995,8.45756361872359185838377,-0.555888006573875603777424,5.0428837560662076455742,1081.44134991362261644099,1105.79762395168677358015,1097.32383857890226863674,1087.33898997087794668914,-220.197249477196407951851,143.083095663353645932148,-186.595998961580875175059,-247.164875081577662285781,153.767504034327288309214
48.9474999999999980104803,-0.351935952180661815180684,-0.187984164758046828902494,-0.376850877561583308406057,-0.00230554811109149335526802,0.00241657323152215169556611,0.020729225987817390813861,0.0123741155207333138749126,-0.00347889978027259840973051,-0.0958500345303095468985077,0.995310159868957100570697,0.0398445931456719998342564,0.00435532898025317236068155,9.31149492964029867891895,-0.0117315365173141904903131,0.0406874190811516295296357,-0.0136160460845280561342774,8.45754870071504782913507,-0.555783043976562196597513,5.0428487314261820628758,1081.0184782203316444793,1106.37629174916219199076,1096.92171342859091964783,1087.01101439819217375771,-130.938929706395668972618,289.775617204110858438071,-121.330451952855355557404,-20.9772922887970700855931,153.765490446898553500432
48.9500000000000028421709,-0.379779005265531044432947,-0.38960211299092628589591,-0.317774755972697664496707,-0.00259155134934988505557296,0.00252866625319766264931576,0.0198095227524799286089596,0.0123444322101102649247295,-0.00348032833281673985997839,-0.0958489241505924433051078,0.995309296143587207694736,0.0395364396203923343375841,-0.000144953841135071065382434,9.30662770303170461261288,-0.0118290750119880386931337,0.0396536277056215580305576,-0.0149397606057050449934742,8.4575319565671787103156,-0.555686191081279812209459,5.04280601452392218675413,1080.78665526509030314628,1107.24650203770806911052,1096.71718631913768149388,1087.23410350943390767497,-54.3193502178105021016563,363.93918803341449574873,-33.1845243353485201964759,185.048334370136132065454,153.763458849544861095637
48.9525000000000005684342,-0.454129256367894473811475,-0.603844281365343960032988,-0.240298558148057533889741,-0.00308988306595646194593896,0.00179636007728133876432119,0.0186524158039836941702649,0.0123264498543186658968684,-0.00347566381372126954885093,-0.0958322717507322785479573,0.995310586904955107989679,0.0391777464513152345881863,-0.00237283064432647697317158,9.30186316963363246657082,-0.0119171236495858017673255,0.0386216804274861630341675,-0.0162672225818683430231815,8.45751395498385427629273,-0.5555968135672892938004,5.04275753988279706874209,1080.74688146924245302216,1108.19598768933019528049,1096.75579080691409217252,1087.9362560700433277816,34.040438225050856146936,364.246722487782108146348,81.236280921513056796357,385.961116514441471281316,153.761418654874233880037
48.9549999999999982946974,-0.568618076838162789243825,-0.79945133756901987087673,-0.125246169820608238554271,-0.00394273245016984585226139,-1.12255177300169136332675e-05,0.0173115665422231557180055,0.0123164806176870693377179,-0.00347535191315431670616709,-0.0958010330569974838388347,0.995313932369355613971607,0.0389534738477913325405133,-0.00235975814730824198783843,9.29723752520644453056775,-0.0119985282908139558738503,0.0376177057070577469666262,-0.0175923649274432047917571,8.45749601190636290937164,-0.555517280900911125662844,5.04270438421066913292634,1080.95685745621540263528,1109.06773565014532323403,1097.1233677237448773667,1089.16390909200435999082,144.957476127654871334016,334.539011190110443294543,231.030917563630310951339,630.140773588523643411463,153.759375095288618240374
48.957500000000003126388,-0.723406702111018540257703,-0.966338889185887284227761,0.0617168755075710451230009,-0.00533629565839967637264074,-0.00297371838385025993173327,0.0158602248509305265855573,0.0123110159675192520206677,-0.00348601767277087167332117,-0.095760787418563614314948,0.995318607815773082059252,0.0389849859689506764159894,-0.000212433544252547262809472,9.29277664189205232503355,-0.0120770623463850330231439,0.0366648520988961459932121,-0.0189110456818073376095146,8.45747865298406331646675,-0.555447713060019498954034,5.04264830995476387442977,1081.47166884988109814003,1109.86868274528160327463,1097.91094539473283475672,1091.08695993798755807802,221.635101690822324371766,241.104224901586690066324,331.537139515251965349307,748.087868602423668562551,153.756927145126553568844
48.9600000000000008526513,-0.840237037914271844840641,-1.01819231703210455464159,0.247586404656148312275477,-0.00719683180329909032851843,-0.00605053237551547804656815,0.0153300787014949094905214,0.0123113905151353980604867,-0.00350566624684096493289043,-0.0957126958167354296991292,0.995324290847746429022891,0.0392320964291340279483933,0.00397138889066428121821239,9.28849833858216911153249,-0.0121561190778071339518851,0.035782271520878580761682,-0.0202215235744631453840281,8.45746221233207151612987,-0.555385102785756590293431,5.04259058651396863126593,1082.06503296467008112813,1110.27325677465387343545,1098.78105342132198529725,1092.90434843501839168312,253.031655148563942248074,103.525194496709019631453,366.108991570869079623662,729.28200406175096759398,153.754896184875406106585
48.9624999999999985789145,-0.909458397676971563861059,-0.951753480004287499838256,0.434819237155295634789098,-0.0101938902605987653793296,-0.00955164000508527261112945,0.0160179994226204436280625,0.0123177132062281032703899,-0.00352695762785409797426817,-0.0956566659108667588506947,0.995330864895942357684078,0.0395655262748945968365177,0.0100047200015538038930796,9.28441562281202870110519,-0.0122386354779064256831367,0.0349843763724600603781667,-0.0215237696045563996205541,8.45744667181766196506487,-0.555325736490118293531282,5.04253126253992522975977,1082.73682712562276719837,1110.38630871776467756717,1099.7414903525855152111,1094.73336995829299667093,292.162389663768124137277,-13.2989110524636267030019,407.509828204020550401765,761.088327000990716442175,153.752880309235564482151
48.9650000000000034106051,-0.906663796176789715808297,-0.722700576689656370987791,0.615570618154411275391169,-0.0145002757015211120039666,-0.0133442871854340516096782,0.0182028171751636089203963,0.0123302338376827854554696,-0.00354208142587332346085116,-0.0955961429425176145713294,0.995337906228643376493892,0.039855144441146725386993,0.0176554535860704818472922,9.28053969843721304755491,-0.0123272602866080580735764,0.034280249669316614768988,-0.0228192370320417052542705,8.4574322822356258200216,-0.555266256036508698556986,5.04247015472245330158785,1083.52584491298966895556,1110.20676221939152128471,1100.81860256234313055757,1096.70979007002529215242,275.92680729685054075162,-111.129366349075539233127,356.007851769481703740894,661.046548321772320377931,153.750484498068090033485
48.9675000000000011368684,-0.826812664036152056290518,-0.414417059007722687891118,0.699253912586080050850512,-0.0178760964544298767142649,-0.0157156760147725317600109,0.0209245174347385820556866,0.0123430588428697501912623,-0.0035477521199911233110158,-0.0955310375315376880678286,0.995345402202717832729206,0.0400713024419901628347951,0.0265511081617606399529752,9.27688349464724915094394,-0.0124238623298142947248834,0.0336741790892468098594925,-0.0241100834259454950558865,8.45741965290841513080977,-0.55520409745092613729156,5.04240770396603465997032,1084.11646116210772561317,1109.83066188601901558286,1101.52152961143383436138,1098.03860269990354936454,222.074464724411939187121,-184.940062708242237476952,213.472509115775636701073,445.787282115084792621929,153.748511076494736471432
48.9699999999999988631316,-0.682358461324876541809203,-0.0104754787214563077624163,0.691926390677835234654935,-0.0205023428993953878152201,-0.0172004328594897865079005,0.0241303598731744603500537,0.0123468603212387242895609,-0.00353969545226330822157434,-0.0954601994289659416814686,0.995353480567382820076716,0.0401773260672868628984311,0.036231096270510326773362,9.27346434598615942945798,-0.0125293043114739609950048,0.0331660802238092217164578,-0.0253992069861836665400912,8.45740764527886845769444,-0.555136030452788697964195,5.04234524264517247615913,1084.63621723661071882816,1109.2820619058511510957,1101.88596510792103799758,1098.938726480598688795,207.139713983300197241988,-236.558338409456098361261,75.7527253421425399437794,285.556310069422920605575,153.746565838162723593996
48.9725000000000036948222,-0.510017566094021157496741,0.440656346307399193751309,0.609857274130962800917644,-0.0223620510358662760719284,-0.0175381748799284843676194,0.0272775756813084246932277,0.0123314973183868709788458,-0.00351621913464905721039,-0.0953831660687995408487438,0.995362271211292615191724,0.0401895256903718883778609,0.046213182783843995138362,9.27030595187772910037438,-0.0126436530043110267190754,0.0327522495785162875980845,-0.0266899623588743341306984,8.45739533662710485373282,-0.555060819107941694205977,5.04228439809387918302264,1085.15215973202475652215,1108.64787019397112999286,1101.9002932381447408261,1099.4663842502513944055,229.226064166933667820558,-259.660446368074133260961,-83.3631048232774531925315,130.372931150056189153474,153.744647223994860496532
48.9750000000000014210855,-0.344640759302765942173608,0.896183537497882376499092,0.462285441209700442843911,-0.0230940569462835219860519,-0.0158528758327698519881022,0.0293877251045682810759452,0.0122914181324618610596788,-0.00347804034971857653144034,-0.095295947352035559330119,0.995372455393443544835463,0.0401623486480765790052061,0.0561040325152246527329325,9.267438782943113295687,-0.0127660020809968050015115,0.0324262975662954130995352,-0.0279859460254510937493588,8.45738173147555727382496,-0.55498220577322110447227,5.04222319462021228986259,1085.78234755744597350713,1107.98375967401011621405,1101.46914958380443749775,1099.59059113634930326953,336.071035200107928631041,-282.381102134588559238182,-280.713318629823959327041,-13.4018115985449206561952,153.742764846715374460473
48.9774999999999991473487,-0.206963606950324369160299,1.37380125649136020093977,0.263950274421194508445154,-0.0225027598576884105274765,-0.0113471615546480719682876,0.0297214018942072999429627,0.0122361601310730875452615,-0.00342709749609812052567603,-0.0952012991245207440549336,0.995383868189749221322415,0.0401470784393353902208545,0.0658000071300019334641362,9.26489809897290683693427,-0.0128952680831301135649936,0.032179134415415956704809,-0.0292911459751515959593071,8.45736692164119929771005,-0.554901854982212672240394,5.0421596376118964499824,1086.83251490802376792999,1107.2359646832994712895,1100.49672664499689744844,1099.39937519225873074902,449.320422665775595305604,-257.277912736258485892904,-411.983066442479184843251,-103.167895804737753451263,153.740553485075452044839
48.9800000000000039790393,-0.171149154735129066517985,1.6679422225270190693891,0.122292663988255487228507,-0.0212085887905928242858078,-0.00612344755463058252470399,0.0285652601793083549264196,0.0121759603790859271404967,-0.00337084157609569053798415,-0.0951089128337498090903779,0.99539556123307049162463,0.0402941509940699660319297,0.0752375666035462326020067,9.26272514837173233104295,-0.0130307350441748494296323,0.0320001419569658843156112,-0.030608577921073184396894,8.45735109911887583677981,-0.55482009209047700171169,5.0420924206853214855073,1088.02894967077600085759,1106.69737011032816553779,1099.40923425159098769655,1099.0747516573253506067,543.966327739093685522676,-192.678333359109842604084,-459.176028328821928425896,-137.21236995304280981145,153.738754537727572824224
48.9825000000000017053026,-0.226355055528362880679083,1.82147712191533273085042,0.03536370326477539238752,-0.0201369327031637596059355,-0.000425359011605181704628043,0.0272870002040293824219219,0.012114350557846369216275,-0.00331664567258748268011037,-0.0950331170306949468695734,0.995406115679030034648633,0.04076086957064804089379,0.0842541447580338470624284,9.26096801674567871032195,-0.0131718424774325947729237,0.0318780395169792965526234,-0.0319398776120519978238832,8.45733415204384009200567,-0.554735921515619012645004,5.04201983808578191315064,1089.5523465467206278845,1106.27257301650342924404,1098.20084650335161313706,1098.71331334249316569185,715.933689656700039449788,-160.381747844722099216597,-516.739352081655624715495,-145.796842205296144356907,153.737006452587820604094
48.9849999999999994315658,-0.373316827807289142171498,1.838211236793521496935,-0.00338641689974735708018594,-0.0199101643894736383966215,0.00623217274421044090115807,0.0265342215319537381990056,0.0120549269569802230267497,-0.00326702965365016206183979,-0.0949869984145430557020973,0.995414188733154459143293,0.0416099017025252509993649,0.0927106799867492975542049,9.25967950378384507814644,-0.0133176281346902222746387,0.0318010373731944934183602,-0.0332860301502983860211238,8.45731715929670180287303,-0.554648184447378067574164,5.04194285627335148092243,1091.60861811905624563224,1105.89546137110528434278,1096.8255374911850594799,1098.34576744629953282129,755.283388689781645553012,-119.002646841848275016673,-461.660389318276713765954,-116.889877099023806295008,153.734974060099602866103
48.9875000000000042632564,-0.52776866508686692824881,1.72773978020212104489417,0.00559288616653454574018101,-0.0207369715222021876177561,0.0113882723418702730411312,0.0265809123274406700065953,0.0120012552160720757654655,-0.0032277150155185781003897,-0.0949704412531850727940963,0.99541979428520266370839,0.042957606165398128095223,0.100508707666395080693178,9.25891556142735261403232,-0.0134665546046143537461948,0.0317575354554702135589928,-0.0346474380889560396035165,8.45730058657177075076561,-0.554560535910539109671902,5.04186170155219404165337,1093.32876349017146822007,1105.67755978229388347245,1095.8925445567590486462,1098.12886395699774766399,639.387733268759234306344,-73.7237422608436929749587,-297.753938877151540509658,-70.3110777979058667597201,153.7333397224073507914
48.9900000000000019895197,-0.663927439406370223373699,1.52307389689391703413435,0.0364251307064988177897291,-0.0226966548731745189348974,0.0157600278473713877047668,0.0271039422013401656852416,0.0119571131822824756885115,-0.00319669813425013400048913,-0.0949747862524453895227694,0.995423618848020219651573,0.0447723599656483506326055,0.107577876982572151476347,9.2587336503952499811021,-0.0136160630306219124219247,0.0317363121335524842048237,-0.0360243120387862686415659,8.4572838810023878153288,-0.554474701102368849880975,5.04177726027589834245646,1094.80555678540167718893,1105.52684265980087729986,1095.33676779679854007554,1097.99421205730982364912,517.35118035318680540513,-56.6150861711836270728782,-141.913270354272668782869,-47.1069796099046556037138,153.731772600553114216382
48.9924999999999997157829,-0.747702362869657188859662,1.27529870444329307410669,0.0726963768621224776245171,-0.0255614313364715302345775,0.0190837189698050378738881,0.0278394534039469870867478,0.0119292931719127276446457,-0.00316662923069460297553768,-0.0949911122836416405013082,0.995426075460796200289337,0.0469129445147220616729733,0.11393243752403464652545,9.25919010898315875124354,-0.0137630672120960875770557,0.0317260184996839555982007,-0.0374168410311463417450284,8.45726680472847469616227,-0.554389161419155174215234,5.04169125225938508094714,1095.91551939193504949799,1105.39448435143822280224,1095.1829782049883306172,1097.89332905894843861461,329.743296185883536963956,-60.7398442829579252588701,48.1619284133311396089994,-42.031963210844295986135,153.730265034292870041099
48.9950000000000045474735,-0.736431366461703373893499,1.02095896510864792006146,0.108520883298332954103316,-0.028905128236977526562379,0.0210181518724141397358451,0.0285703730518737236687699,0.011916752788339115415317,-0.00313834264187955527813934,-0.0950150360839729091200212,0.99542687605514346138591,0.04939602168541876864305,0.119494565116667339488288,9.26034072737965807675664,-0.0139052340909105402039225,0.0317156466525841812531539,-0.0388240410015397233167711,8.45725021915056451859982,-0.554301112972126808209339,5.04160354440288838162587,1096.45427326633193843008,1105.22314343838593231339,1095.5775774388653189817,1097.78405224125549466407,94.0750758483291775746693,-102.478290974606679242243,303.695774304541544097447,-57.065487962352470674432,153.728833370552848691659
48.9975000000000022737368,-0.599464179884370063078336,0.757363280466684996028448,0.15299025988358652683452,-0.032346981057661303160522,0.0221360775584054474129925,0.0291858690935377466935119,0.0119092881841721797558931,-0.00311270745747606152054043,-0.0950372682703061744113882,0.995425927652491715491578,0.0522482206779512764471818,0.124054193107092453063345,9.26223935866784486847791,-0.0140398379368043019904677,0.0316952469708198375508701,-0.0402435901667114390156677,8.45723325672636327965392,-0.554206967327376398557703,5.04151285618065969629242,1096.38589477117693604669,1104.88209289656492728682,1096.701457076511815103,1097.60800161913653028023,-136.98189672667191985056,-159.697541548084416263009,512.881082013075570102956,-69.1180757580870022138697,153.72720773529778170996
49,-0.392649032124001096111243,0.593996651459855695698309,0.197864014802428878070373,-0.0340983249932632001555355,0.0227004534363288192067021,0.0294379957462167947401799,0.0118978719399643051435334,-0.00309383176529841969967793,-0.0950534796271383514154607,0.99542275384275535898837,0.0555461706535347182756013,0.12746169917245159242114,9.26493246370358392027811,-0.0141646802179000077387405,0.0316555613390683068808507,-0.0416722818157620189527535,8.45721506150327329009997,-0.554103595128755621601613,5.04141763413789245618091,1095.76936378269920169259,1104.42465573064623640676,1098.14198284892836454674,1097.43846186246537399711,-340.048319302322909152281,-227.864882496194582017779,659.873520698338211332157,-59.1176408174843501797113,153.725932895166010894172
49.0024999999999977262632,-0.116919633114807089424581,0.495580547723119713143802,0.2590076504291177750261,-0.0345250894327302632058618,0.0234999898005216201202217,0.0294901895348306866684318,0.0118768936721791468907883,-0.00307978224941153622129519,-0.095061179996422259796951,0.995418571795770645849188,0.0592413790359884936953527,0.129648429062667325251113,9.26845616052501064530134,-0.0142773724266431444041014,0.0315890094751312897058959,-0.0431064273585245391617882,8.45719647116297146283159,-0.553996278083680904202879,5.04131717367659071271646,1094.68565317466686792613,1103.74276848408499063225,1100.00082468000050539558,1097.31241341504937736318,-546.718130348419890651712,-352.04497565441852202639,876.109168810314486108837,-23.7717432665127752500211,153.724743831876651256607
49.0050000000000025579538,0.258017688285513135948435,0.443595335255607847724235,0.353525503484191927494606,-0.0338134105679388161092014,0.0249668094806195783874614,0.02950954500368388119802,0.0118518211645370040441261,-0.00306449095106362673357481,-0.0950596371457101685376045,0.995414522690950875905003,0.0631819440526453918183236,0.130766801532542220609656,9.27283145876909564719881,-0.0143755871282827633189649,0.0314898346340042947777427,-0.0445425161891811610681557,8.45717854420770720480505,-0.55388979515112291007739,5.04121259485260697630338,1093.03577313095570389123,1102.66443085237324339687,1102.52252869298217774485,1097.31960314613274931617,-631.613949496972736596945,-431.763745930454319932323,936.810097011469224526081,42.5409121746052463208798,153.723418779158890856706
49.0075000000000002842171,0.585505502256196019850165,0.446198255908475449604822,0.442896442025382974794212,-0.0324928606145807943872406,0.0263954617977278926943541,0.029686326568900467393064,0.0118270488270200650054997,-0.00304111666959551918062998,-0.0950480607720854270281663,0.995411400804772861228287,0.067196402695619716904929,0.130966680067514051888367,9.27806587029016860412867,-0.0144572797671383892342822,0.0313553748463797216095017,-0.0459765073896798645569639,8.45716145494495918910616,-0.553786246554605177117026,5.04110409067791032100558,1091.52758342718038875319,1101.58394975443161456496,1104.68487516506024803675,1097.5251179759225124144,-593.506179173931286641164,-454.442401710188676133839,827.361296994902090773394,130.602543719788258158587,153.722400975572185188867
49.0099999999999980104803,0.909559825305469860090568,0.489728695049751916457126,0.52227367901732812960347,-0.0306209093349809197137645,0.027599969581740893542765,0.0303285074525195992578563,0.011801862350522177025347,-0.00300028721063667165244726,-0.0950189397457871925967154,0.995410421761653174677065,0.071069430142690501184255,0.13031163042264057305708,9.28415324791728835407412,-0.0145199549447333087909273,0.0311864717063931699836399,-0.047403692585835745243461,8.45714419024245422917829,-0.553686413062942417440127,5.04099105696452465252833,1090.06824223508874638355,1100.39221884382436655869,1106.65933517795292573282,1097.97261586473109673534,-550.692144021413923837827,-478.923388353842369724589,719.972071461502309830394,215.266653725010570497034,153.721474666490053095913
49.0125000000000028421709,1.21934376832221902375863,0.565304517945076967500029,0.569233713669918039990137,-0.0282126227582872174393103,0.0285134808008336189388832,0.0316055689130786410245832,0.0117756289519267524912305,-0.00293671481842834201578252,-0.0949651578568748155895207,0.995412531448525039756703,0.0746548080974579753021914,0.128880451728453693238663,9.29107040126206662478126,-0.0145615374997945072610417,0.0309863284984553052914258,-0.0488189759474174228559562,8.45712542637613751139725,-0.553591028480567404201906,5.04087312789032981896753,1088.77412270707191055408,1099.18933281266117774067,1108.28473552236960131268,1098.6014512445481159375,-454.546150328309806809557,-459.705195977895925807388,526.509477462835889127746,280.134275094762813296256,153.720625785060377666014
49.0150000000000005684342,1.4977803660347694947319,0.675291282191285313629692,0.543875863649662005805396,-0.0249949005364399311213131,0.0292537900597332548024987,0.0338891537717454990885635,0.0117415917886355518351404,-0.00285332589865606176329771,-0.094889127080188664931093,0.995417650829981792703904,0.0779629887297704771143003,0.12665471108452203141681,9.29877753124984707255862,-0.0145814580115829501433256,0.0307602167257174652359453,-0.0502165354153571302786574,8.45710449197187941194898,-0.553500849397668637230652,5.04074959999625793471978,1087.79551148344603461737,1098.09369286393371112354,1109.29188256526845179906,1099.37328724020562731312,-340.404906558606285216229,-423.697220910820476547087,271.483855376547126070363,344.117353278165069241368,153.719872453775934673104
49.0174999999999982946974,1.77568581786897428109739,0.830313290924865166076074,0.397413303701986908578192,-0.0202308517982652778799402,0.0304054460047330082916872,0.0376267710146126616033158,0.0117022035133781121540864,-0.00275773425344978543108376,-0.0948008469669654602052233,0.995424747707274848451675,0.0810705576621858770014484,0.12379214376449199086494,9.30721326047340014042675,-0.0145802282890740084186909,0.0305133376256634045176064,-0.0515911182421888506177687,8.45708192514314127663511,-0.553415928990995009684184,5.04062162367965349574206,1087.07209817428042697429,1097.07084670810900206561,1109.64215479925110230397,1100.32203801093737638439,-188.828732434052454891571,-303.572679963034943284583,-13.3580613614799279531553,327.962270076218828762649,153.719082127939884685475
49.020000000000003126388,1.9456575763136243484297,0.955068866049505138526854,0.175967126936620615884621,-0.0156427218160033361382677,0.0319989946075509013034832,0.0407215723195617357310638,0.011663372918929037005964,-0.00265988334709676369632669,-0.0947137437369018897470596,0.995432361664987275240435,0.0840887664746755303379899,0.120513308896242815615452,9.31629684026332860469211,-0.0145591294778778922863749,0.030250675894576303098793,-0.0529379075735531348656515,8.45705875646631710651491,-0.553335811112897202335148,5.04049039282659272487308,1086.85136782127528931596,1096.57582946411775992601,1109.22509225846101799107,1101.01309859058756046579,-21.4679041976868809626922,-103.722785320261806418785,-284.597281301002965392399,229.316983452391468745191,153.718520870808788458817
49.0225000000000008526513,2.03562058246419042006892,1.0354412173402818275747,-0.115045324414466326734541,-0.010586457105343685669574,0.0346837621421260955401067,0.0419366192925325689810911,0.0116346206743719749604482,-0.00256827749391431298109367,-0.0946356484817374027374015,0.995439503714395823585903,0.0870955459565227463336612,0.117095627323226231242259,9.32592933122333533901838,-0.0145192768084060827571413,0.0299765337293533343232532,-0.0542526768092147018696103,8.45703597279343810555474,-0.553259605160235756748932,5.04035591770067270545042,1086.96475865329193766229,1096.55223278150742771686,1108.21916839274535959703,1101.4686229281999203522,98.6254218092641394832754,107.199692064893682186266,-516.506412435243419167819,125.418370129841989069064,153.718064123202623250108
49.0249999999999985789145,2.03700560277190678704073,1.03210363125438719933413,-0.468516617180180061641437,-0.00401382673988465513148505,0.0391977888234796151278871,0.0398437827934785479544466,0.011630901199140579807545,-0.00248620342198144000586679,-0.0945707416049137994384921,0.99544547573710195909058,0.0900629342064429294634209,0.113899767786277833492292,9.33599493482677722511198,-0.014461201558792687385524,0.0296937103849688951995311,-0.0555319506168067827944768,8.45701319777752758000133,-0.553185419535948796898595,5.04021912685370665485607,1087.3444949303211615188,1097.11182792444174083357,1106.6425601962871496653,1101.64019044123620005848,155.150184703836856670023,297.976846134708807767311,-585.102861258447660475213,-2.9875741235158050912446,153.717641291526348368279
49.0275000000000034106051,1.94510003755728533292313,0.922013313823894953280558,-0.710434703016530222363656,0.00194218921526710295265283,0.0433265754642565212306771,0.0360716067218879235523055,0.0116537699784799476943054,-0.00241763765706557191489945,-0.0945238438132447039707884,0.995449676152959872510451,0.09300064798218585226941,0.111030139241234893088262,9.34636724167487820125189,-0.0143858053055788241703095,0.0294050492148819064830434,-0.0567716068070095447595236,8.45699100794497304889319,-0.553111999127340547843801,5.04008011168372327404086,1087.74050957681151885481,1098.04211701218173402594,1105.29365408645162460743,1101.45368505758233368397,149.290033843513839428851,449.930702054732080341637,-485.035962654526144888223,-131.752307396323772081814,153.71739668130362588272
49.0300000000000011368684,1.7662939159994355264871,0.697647075498830870898814,-0.860111236524751188170512,0.00762631644851401863105522,0.0466445220304675528533167,0.0323007534565337012244512,0.0117000086652740194897993,-0.00236503024131210935407377,-0.0944938627300236227979369,0.995452142614373092222024,0.0959012460557595591836844,0.108490299781962784564371,9.35690892533360063509917,-0.0142935775625153502904618,0.0291127101222726190898893,-0.0579673731275311965305264,8.45696849852711274309058,-0.553038476760612351945667,5.0399376720219839498327,1088.09094509953911256162,1099.3614814347165520303,1104.21738038301327833324,1100.9814289042542441166,121.62401676266347294586,571.526557410308214457473,-350.573449445483277031599,-219.722288358907206884396,153.717267240661158211879
49.0324999999999988631316,1.5380223914213262403905,0.396692821023846065031648,-0.932555898743002154027693,0.012095617898637745293855,0.0488282928210051689332794,0.029248588728580934142931,0.0117668370893117546494011,-0.00233145439059848774698835,-0.0944819648665690819955287,0.99545271507438637392795,0.0987716549251558828537156,0.106284858737375309534201,9.36747268992681547672419,-0.0141852948622517762572448,0.028817407210902652725526,-0.0591150890311996288217777,8.45694448750585792140555,-0.552963489965561216799017,5.0397896928582266440344,1088.34862966062428313307,1100.89974979923067621712,1103.54078683922580239596,1100.35507361578879681474,80.8433839467893733399251,638.742033894814767336356,-154.450975322072849849064,-265.163551685601191820751,153.717234831104264003443
49.0350000000000036948222,1.29031753398419990475077,0.0425148763468345541882698,-0.932407714798226372465706,0.0145445886475778513730051,0.0495282067515325427620176,0.0270284493592804903050464,0.0118433422336365230809196,-0.00231549869941311166343656,-0.0944875872932965515937909,0.995451523141200000921458,0.101554632078211026779968,0.104251325992379295648504,9.37790732382757141749607,-0.0140614551875540352843252,0.0285197873890712522149116,-0.0602105574196118153995627,8.45691895264407733634471,-0.552886612807676147696156,5.03963440600096390653562,1088.49516201927326619625,1102.55519160419225954683,1103.44512550640251902223,1099.65561114582556001551,54.223260386670062871417,719.081596908377377985744,85.2736997350821468444337,-300.804306409719004022918,153.717320025465141952736
49.0375000000000014210855,1.01638462891868575077581,-0.384119632465596383408268,-0.882371257918782236906452,0.0157247258356765784448328,0.0487202224359742086523539,0.0249359857621406083572069,0.011918778308582532454718,-0.00230499092332446097602938,-0.0945037773110415230126691,0.995449340464666598826682,0.103997874387423375197592,0.102204015935964731554009,9.38806027144045529553296,-0.013921401795700604278605,0.0282199935491231762574316,-0.0612507223850842011381168,8.45689319170594266950047,-0.552807855174818785215507,5.03947238143666531584586,1088.61974596255777214537,1104.49515778377440256008,1103.9671553379014312668,1098.85105208373943241895,54.9646631042423550184139,682.970390315434087824542,270.789583284768752946547,-278.822025228308859823301,153.717557401094751412529
49.0399999999999991473487,0.821556036695747504694509,-0.69771155775469362314567,-0.820685939969964306506256,0.0164491623360753375093779,0.0468023934978498423742366,0.0232825159799211443834022,0.0119857973200370622468558,-0.00229064151797718322522979,-0.0945260188065993600670112,0.995446679546109103320362,0.105903644014672893014506,0.100020542050135941014588,9.39777941840921471339243,-0.0137656120087123207823554,0.0279171973180510485379457,-0.0622341791866032681412868,8.45686825397313057806059,-0.55272734203920537154886,5.03930452963016950462816,1088.76998533479422803794,1105.97004355576632406155,1104.79907342282513127429,1098.26150101968528360885,91.2691337317470754442184,546.883820344048558581562,365.722404938918998595909,-215.766423852827415430511,153.717866090371074960785
49.0425000000000039790393,0.650174530717817389380286,-0.924062837283771587593151,-0.756723731840066804466005,0.0180056611421213694224086,0.0438765936761678215782823,0.021490187172642720436766,0.0120414629852505020157771,-0.00227130470862216141472723,-0.0945525654669908122151867,0.995443730500484513790127,0.107227364768934907424125,0.0976716435448432007682129,9.4069167106611679685102,-0.0135964656085561744897072,0.0276097135611510398345292,-0.0631616749335534022335992,8.45684437051522586159535,-0.552646354492717595263684,5.03913267202332537664233,1089.07609163121674100694,1107.22957688549604426953,1105.79576736259696190245,1097.7722199644747433922,187.021177820902096300415,501.309092234503623330966,413.685467291559064051398,-197.589452697583368490086,153.718286431297229910342
49.0450000000000017053026,0.440601103302358854119092,-1.06146633007573676366064,-0.693490981467294931306355,0.0203077562752895721120971,0.0395446836299449405727202,0.0194141226332109201324627,0.0120918466577883063073351,-0.00224485210876937055224367,-0.0945798365187253131658451,0.995440755478523953136971,0.107900538420038077935814,0.0952918682315092302470561,9.41533325351540284486873,-0.013416801655478849050751,0.0272948805695626926792752,-0.0640369161914946943836568,8.45682170151271428437667,-0.552565491719625878630495,5.03896074941869542840323,1089.70509122389921685681,1108.47658901694012456574,1106.86750075928398473479,1097.2735537561968612863,276.061789395840662564297,415.710269815159051631781,334.599444872569279141317,-176.043466984470825309472,153.718914221474790338107
49.0474999999999994315658,0.243153902983167385931651,-1.05523902084998177919317,-0.663152441835476724740772,0.0219623551178625246727005,0.0357721674794294272614614,0.0179338900556309799316779,0.0121380861562620599031215,-0.00221412072386741910767771,-0.0946093092326700801919515,0.995437586815018593533466,0.107968009790830779537352,0.0929303176333172303857921,9.42290656151553207564575,-0.0132311144362207127461728,0.026970709113514686194879,-0.0648655776336699713136014,8.45680131636809662154519,-0.552485265102170552964367,5.03879111198829754414419,1090.45640057819468893285,1109.30812823456994919979,1107.46876458695828659984,1096.8920026295531897631,336.748164999253788209899,293.342761345716098730918,155.432056721804258359043,-157.250978080502619604886,153.719534934693683680962
49.0500000000000042632564,0.0110290265116058383565445,-0.933784359308252653875115,-0.667916412157541605765232,0.0230653700979332292042567,0.0326681837890346604691416,0.0169349147285650578065308,0.0121802626975977858203581,-0.00218496806836475029878208,-0.0946411176901198053501574,0.995434196582842822920156,0.107545783593915089682014,0.0906188974728031337857459,9.42953423216299846387756,-0.013044720855701156733697,0.0266357417141120100811946,-0.0656551242228539111422947,8.45678328954710600839917,-0.552405405061407450695299,5.03862366020178065184609,1091.38883204889634725987,1109.94330282366945539252,1107.6446610428934036463,1096.48729886579394587898,387.460581188344860947836,222.837820783820149017629,-0.434122915657786323517797,-173.701159238910150861557,153.720249634778326708329
49.0525000000000019895197,-0.247615162127192117713648,-0.737019562534102168349648,-0.706324042408388419467258,0.0235451016615028270451138,0.0303692829226611567261518,0.0162676346613153388620532,0.0122187546047319833125711,-0.00216274335645951290563183,-0.0946762588369356172801616,0.995430478738623780721184,0.106752614153429820076369,0.0883912567083254829825023,9.43513785273418825738645,-0.0128631415411825308914295,0.0262889963079915162103006,-0.066414341790335743032081,8.45676748464835803531514,-0.55232547346802773891028,5.03845714219754992058142,1092.3937034841374043026,1110.42231733848961994227,1107.46659397237999655772,1096.02349683335819463537,397.613119496143212927564,153.241929793424105810118,-137.098757716682570162448,-203.785913073492139346854,153.721036393656106611161
49.0549999999999997157829,-0.523545074054563408516572,-0.481570480113332144433969,-0.77883778464838659960634,0.0230135750538591268843369,0.0289948120341600099059143,0.0153538738461163511150875,0.0122522644957407302740426,-0.00215119360849223145715214,-0.0947153900673900761564283,0.99542638657466231411064,0.105692524601261161887322,0.0862430433027606552220945,9.43966638175823646861318,-0.0126916234771604560793712,0.0259304478204366375959644,-0.0671527181515586130133855,8.45675366654862337156828,-0.552245565573085239741147,5.03829014798195018443039,1093.37689764637525513535,1110.70951247263587902125,1106.95916725431061422569,1095.46836930042741187208,403.057703955140141260927,80.5507204175270885571081,-256.936299607746605033753,-258.685117890858691680478,153.721902482230802888807
49.0575000000000045474735,-0.844702726426584504793027,-0.150142803772657124072865,-0.878919964744768966724564,0.0209525791567474924115277,0.0282880910621243486513521,0.0132886527121281808327957,0.0122841444262958982003298,-0.00214747064847211439550523,-0.094754947515179516193129,0.995422231023610937228341,0.10434853714008268665836,0.0842407281943111374555855,9.44309720503149918613417,-0.0125339147788976097708247,0.0255605359962166635290348,-0.0678805292369199925195389,8.45674193497199588875901,-0.552166078521099445985953,5.0381233871785271460908,1094.40899200391413614852,1110.82507094057746144244,1106.18191247434060642263,1094.73007124390323951957,341.328965038708702195436,5.1395429071791198794017,-276.579474912154580579227,-269.646288941838349728641,153.72302315384527560127
49.0600000000000022737368,-1.07976424931686643127193,0.117164792272002563078281,-0.945945139546058411106344,0.0181466406366060477306501,0.0284590806953264191525577,0.0107147808013219967421259,0.0123170506655780869625927,-0.00214827983690193870941476,-0.0947903241969488968843294,0.995418433779567290997647,0.102706229787514286000416,0.0824318133610404402134009,9.44543700684966580638502,-0.0123930477609614283357464,0.0251808578589811926651265,-0.0686081084059804169328345,8.45673200952692738496808,-0.552087948354775703840858,5.03795787576224274317838,1095.08354247156967176124,1110.73521018717178776569,1105.57626987974913390644,1094.12013785571753032855,222.864298135184867533098,-68.883156164992115577661,-193.427247119956007281871,-222.063983758900633347366,153.724016885447298363943
49.0625,-1.25728194220961198013242,0.34348042120314625780253,-0.96470007563844972775513,0.0145342316134219017020879,0.0293411697285341707686079,0.00752328630054509978064559,0.0123508650544040584490224,-0.0021472187099485142564026,-0.0948117305961150846904673,0.995415951827326894729708,0.100705571268249138849882,0.080799970952658228817711,9.44672196228512461857463,-0.012270548758047023635287,0.0247946452362279093351027,-0.0693454000654321056629215,8.45672212773875919822331,-0.552012558811783682344299,5.03779383270207947731478,1095.52331349458904696803,1110.48065515975281414285,1105.21477623874170603813,1093.61975132510974617617,133.477701523300737562749,-120.943021178637479806639,-83.5288103311845873122365,-166.430043618007800887426,153.725062725852154699169
49.0649999999999977262632,-1.37752306420108783235889,0.51550297965639824138151,-0.927917492819359090994169,0.0106198644894777011193909,0.0307576704220125507482919,0.00420645428901226300227867,0.0123839955192561832625353,-0.0021408486704329724760465,-0.094810143881395428366865,0.995415683014698404740273,0.0983507847960481407234568,0.0793006949788278292512445,9.44701492374558426945441,-0.0121674395659195737351421,0.0244062327664833281226642,-0.0701014284833525597173676,8.45671029473437663170898,-0.551941313839903857640934,5.03763096663693588084243,1095.75093097918556850345,1110.13049508127915032674,1105.15862582809359082603,1093.28798763762824819423,35.7504921589042083951426,-148.897913604893119554617,57.5926153964861455847313,-77.2354073498323145940958,153.726143933208021508108
49.0675000000000025579538,-1.42900869823692211468824,0.603031717579081139035679,-0.820327107759493578953425,0.00686700270937812447258342,0.0328104447428571102673978,0.00114355288479574246883474,0.0124089996573251547945516,-0.00213029314665745582793588,-0.0947832109607658346295267,0.995417948889091741548896,0.0957461400255292249816819,0.0777825554777945155082719,9.44640342580719227782993,-0.0120849088234858386553539,0.0240211294136504494023399,-0.0708835694013793538026391,8.45669613108893081232509,-0.551875458963538623180511,5.03746777508823218028056,1095.70206595538365945686,1109.73616559172796769417,1105.50273931572428409709,1093.23357428836038707232,-92.0303019728164457546882,-163.016536299672509358061,225.118317649979303496366,50.4922218284915302888294,153.727257882421838530718
49.0700000000000002842171,-1.42243541577364851491438,0.597080865834647034340321,-0.624362588559841613644608,0.00308368469784767260805092,0.0358357969038197027300541,-0.00196754907334882080116589,0.012426505822304997547767,-0.00211909091999606296122249,-0.094741529284838962854387,0.995421723552211590302363,0.0930283849398298723354372,0.0762463257140072736550707,9.44499363484046128291993,-0.0120243300055606298221145,0.0236433545623535787405523,-0.0716979265906973056710072,8.45668112449039988121058,-0.551814230945646855275299,5.03730351509294038692133,1095.29077946932125087187,1109.31541239978037083347,1106.28421741634406316734,1093.54044874677083498682,-213.440346399978295721667,-133.032392522257424616328,316.891558237663844010967,174.112536989991099289909,153.728619694123011640841
49.0724999999999980104803,-1.36877609592409599237328,0.502533932540207395334164,-0.429445254749133864535793,0.000419864261320887662259221,0.0383479014759683725643846,-0.00353668516998350071500745,0.0124377667828327494181639,-0.00211083711764796858045834,-0.0946974779816489309336447,0.995425806041328131712476,0.0903328845744979791465568,0.0747008475225649504203318,9.44290789750610670694186,-0.011986554533977337999584,0.0232761245130309359085974,-0.0725487623955502758388292,8.45666688681446743203196,-0.551756320586245352366461,5.03713736100812514706604,1094.63486422338473857963,1109.07100362911728552717,1107.08719710691116233647,1094.10413697330955073994,-326.174642621723705815384,-70.113151431142398450902,303.975019566659284464549,279.677556699600870615541,153.729766617859041843985
49.0750000000000028421709,-1.26732109785095437004543,0.337360165301199221854489,-0.239896327162536282529004,-0.00232445716138845494269649,0.0398105638658084598491271,-0.00316907357301365270180193,0.0124419005326423491586407,-0.00210838642446643667952011,-0.0946586632990390752784293,0.995429480995032034407188,0.0877807500064917561877209,0.0731111068844417094636512,9.44028052723665211942716,-0.0119714352684656324260493,0.0229219425292629709611791,-0.0734382838164719109474987,8.4566544023396907903134,-0.551701002277154461950204,5.03696806196180801862283,1093.65990625621179788141,1108.96484664262447950023,1107.80409251417813720764,1094.93883653026955471432,-488.117332717115857576573,-23.5584969060134881146951,240.603790100080601632726,411.056842713668402211624,153.730916333118102556909
49.0775000000000005684342,-1.08142092544266055220703,0.100639230527891893052228,-0.0532145995671192695297691,-0.00624546623332324774002799,0.0397938364635482197395611,-0.000951378710236788229480387,0.0124425971252828601598672,-0.00210801325609975007471797,-0.0946274503367367653128284,0.995432489069552617344527,0.0853545764021289010692328,0.0715163376509702630734466,9.4372519615995003050557,-0.0119766222874908775941627,0.0225814155117875989264853,-0.0743671166008405132297199,8.4566434478841898680912,-0.551647627506599680380361,5.03679586810530377505302,1092.19427755979791072605,1108.95321114458715783258,1108.29021605741218081675,1096.15942118687894435425,-565.178396741216715781775,0.437099526607596156058122,87.1982423945039073487351,469.071428490150594825536,153.732288874249064747346
