t,ang acc x,ang acc y,ang acc z,ang vel x,ang vel y,ang vel z,quat x,quat y,quat z,quat w,acc x,acc y,acc z,vel x,vel y,vel z,pos x,pos y,pos z,mot 1,mot 2,mot 3,mot 4,dmot 1,dmot 2,dmot 3,dmot 4,vbat
0.0025000000000000000520417,-3.35513035690049221670961,1.06968467818218804232799,0.474198836355264163877621,-0.0295532076977223744085332,-0.0463523932794182857985987,-0.00269561189700477481234753,0.0022000645679991406161724,0.000397427163178316563731107,-0.835123526606708854735928,-0.550057223220032143196079,-0.32383873426827780583892,0.0903582792758591546444791,10.9105119745990197799301,0.0556394516509926620462245,0.00692320049964554283528084,0.830869927799121388289905,6.36723195114040407815992,1.95771384838589290744437,0.15475103994207656255,1210.35007576431212328316,1202.29229547500585795206,1229.18491481360661055078,1170.82131488559252829873,-2368.75982093697530217469,-446.214695933576876996085,-1984.29283244877296965569,317.407558389095356687903,156.16271322541649624327
0.00500000000000000010408341,-3.52250662207404330317218,0.244508101383233089620717,0.194762010255614098630517,-0.038035937657518698040704,-0.0433025611116577488490798,-0.0020040646974640082683683,0.00216881530047046463399729,0.000518513758902655629880185,-0.835112877542097065131088,-0.55007372324250414230562,-0.310900568933361931556192,0.0809051518111903872343404,10.9263211358029046493812,0.0551553877751238472160189,0.00699317604659228497093748,0.833565691973904288047947,6.36715482005458621728167,1.95784281841128438017563,0.156842663009825827868937,1204.42817621196968502773,1201.17675873517191575957,1224.22418273248467812664,1171.61483378156526669045,-2476.62240167237587229465,-426.216676375952431499172,-1978.49910313093482727709,371.21791585277611602578,156.164481027329117068803
0.00749999999999999972244424,-3.51816758270792817597794,-0.682814935103812192807027,-0.0289358489936714785573102,-0.0474646519644134901039223,-0.0431138966411300020298292,-0.00317484487445084725271149,0.00212803415334785785140159,0.000642149766653534554913807,-0.835101032308625979005967,-0.5500921094733133287491,-0.29770447272913619363166,0.0715107335088155660063336,10.9421150585724049619785,0.0546888940612254639828116,0.00706594011683626867931229,0.836270021414921238545048,6.36707774495804113001896,1.957971406445897066817,0.158935686135381837313929,1197.96696375595024619543,1200.16121209312609607878,1219.29241929795193755126,1172.67740446485640859464,-2836.01957488326661405154,-454.858402770423708716407,-2062.98932765457720961422,549.354585581750143319368,156.166101714924820953456
0.0100000000000000002081668,-3.2644272028558942722043,-1.83338363696368178423768,-0.162292244487441950084872,-0.0587983081477807673076441,-0.0471508028386287136868305,-0.00634715159603037922669833,0.0020759480666263556772333,0.000774048222511209489844763,-0.835086643182272658769705,-0.550114453600893171802966,-0.284112041987047037050473,0.062092755726404068317148,10.957873126443480771286,0.054249208711983722130956,0.00713365206380021325133223,0.838989511440292767829874,6.36700147870716737230623,1.95809839983451672296155,0.161031966860222974791128,1190.24807833755335195747,1198.90246672131979721598,1213.90923609421179207857,1174.36160670947401740705,-2736.64772044130540962215,-486.429359403336889045022,-1827.53660717080447284388,682.799093266703380322724,156.167886133927936498367
0.0125000000000000006938894,-2.82571027661775397987753,-2.76228877214826296082606,-0.135741400758573466100998,-0.0678129683425360701987117,-0.0538335058058981852369129,-0.00978152648156348572539009,0.00200747762986213783981126,0.00091731828611408942637101,-0.835069722422584703735993,-0.550140774617535410762059,-0.269950674510944454986827,0.0526634350652619917521058,10.9735578072168404872855,0.0538487114716483181164897,0.00719407106132662933772881,0.84173130587742028829723,6.36692624815219421208212,1.95822326826868553517613,0.163132945507451526667708,1184.28372515374371687358,1197.72906529610941106512,1210.1547362620979129133,1176.09139993118992606469,-2209.84570346367991078296,-505.815763336386282844614,-1310.57472348879878154548,738.623341691663995334238,156.169245923987489277351
0.0149999999999999994448885,-2.15216267136817984706454,-3.6013173004346041849999,0.0178728530778446137450288,-0.0756715692679421070288015,-0.0630461788792813088155853,-0.0123970838268900804268746,0.00192071033625822455877252,0.00106947221496932502390886,-0.835051260421508456666118,-0.550169591132631308205703,-0.255172428458246836058265,0.0433083733850004107268639,10.989108317651611557153,0.0534909929213679066761777,0.00724887374459650193903038,0.844503388868490967311686,6.36685095631884756528507,1.95834615968138248121022,0.165238294563224891176034,1179.19884982023495467729,1196.37338790463786608598,1207.35636247676779930771,1178.05472341793233681528,-1985.26140879334843702964,-635.3902159053631066854,-1006.07793184617526094371,876.740202336986726550094,156.170480616684784536119
0.0175000000000000016653345,-1.11228458803107943531074,-4.46582096763950975315538,0.272905325915072494158409,-0.082588323276050826238226,-0.0757120301042801535640336,-0.0120391793267049136695324,0.00181862419342940489358496,0.00122486588387629756827235,-0.83503337435953284284551,-0.550197677879526225730444,-0.23986068696987231096962,0.0341229098024924543119951,11.0044399343241003919047,0.0531704781729397044087726,0.00729864780498898618049664,0.84731420974385018851649,6.36677419108968134509041,1.95846711426524167087848,0.167346916198053641267052,1174.35741810977697241469,1194.55211421658259496326,1205.12434660286703547172,1180.47510094287486026587,-1556.50050049198375745618,-690.009430195141135300219,-653.774052611424735914625,861.489584490300217112235,156.171824766433161357782
0.0200000000000000004163336,-0.108653613073404972655389,-5.05695119568127982034866,0.471076068726232366490336,-0.0853541661377976018654223,-0.0869346335146229942658636,-0.00851309840323688331309437,0.00170347424908428527606796,0.001378508791112789720959,-0.835018845217947447423512,-0.550220773016541597755236,-0.224084793715656926949009,0.0252105188798651472237289,11.01944746049789181086,0.0528837657880980582802977,0.0073429799976093730606852,0.850171459787778971417538,6.36669642003656655049326,1.95858478431097182692611,0.169458755523106047169435,1171.41634731777503475314,1192.92334075366215984104,1204.0874922137106750597,1182.36217134038383846928,-962.087441199401382618817,-659.602549115834676740633,-293.580841956100073275593,682.948442437191602039093,156.172834914446440279789
0.0224999999999999991673327,0.945288305486287283585511,-5.50831653345191618598164,0.589070311280614267168687,-0.084495818894613355931611,-0.0989941188958010087617367,-0.00392416376698170171755109,0.00157442404802217244229323,0.00152437490319398314363164,-0.835010237363810192690039,-0.550234909709379382825034,-0.207879398175155938321979,0.0167422381596772779088766,11.0340064955104644184303,0.0526313133823425732815693,0.0073855274742200245977064,0.853081369231198927138848,6.36661745896680653089561,1.95869677023971178186912,0.171575738688370615925294,1169.54698090377996777534,1191.25410147100342328486,1203.65644239308653595799,1183.88984315506081657077,-604.502198312911673383496,-730.901826847502775308385,-117.817157315948833229413,546.330850698814060706354,156.173735646469708626682
0.0250000000000000013877788,2.1466185247702096461353,-5.87517805910481882847307,0.624558871701710649482209,-0.0791938983345745750597189,-0.11508093900935519038331,-1.55296102056079595929439e-05,0.00142899435259108984266896,0.00165811011004649597015692,-0.83500662329564356856082,-0.550241356648640933535432,-0.191239792795044633022528,0.00888685708199758034320226,11.0479752514144191621881,0.0524175235749502685389523,0.00742987005247789170092609,0.85604829914535707224843,6.36653648902181767965658,1.95880210169392698915658,0.173700692491706498721271,1168.39383632621047581779,1189.26883161942464539607,1203.49840642713093075145,1185.09382559387790934124,-266.321780665521089304093,-721.131688099012421844236,-42.8877432466833781177229,317.846815661232483307685,156.17469458395601122902
0.0275000000000000001387779,3.00956311518087238354724,-6.0200771843178166875532,0.591788655293169374438378,-0.0711974865944514090365658,-0.129817553729297707754142,0.00158136110090340790274022,0.0012676953702015646054807,0.0017795611577179548321026,-0.83500689075657652526985,-0.550241562453540611343783,-0.17417736303563130517702,0.00170928949634654991918126,11.061195904182239857505,0.0522461425873195425828577,0.00747137343837586242328852,0.859074949068989734968227,6.36645339365772766626606,1.95890233029296512157202,0.175834870679792476533265,1168.2153720004523620446,1187.6484430305083606072,1203.44200367685311903188,1185.47907723336697927152,59.8317232128465832374786,-642.775245585608331566618,-44.8115865386171421391737,20.6880370853923629681503,156.175394778105811610658
0.029999999999999998889777,3.64982539210913525806745,-5.98294157253283742647909,0.541535403981120877503486,-0.0601337970335408394939591,-0.145097442494569683901773,0.00211403421752592336757548,0.00109179443483146888967117,0.00189636808721051815934677,-0.835008915193823031408726,-0.550238388622173779651803,-0.156635204095604302354516,-0.00487199358905526791474472,11.073499005499705560851,0.0521263781974455331358342,0.00749472891436844031870512,0.862162123729770302205111,6.36636796110804503712188,1.95899979136459778672474,0.177977803178017313090464,1168.69299494227470859187,1186.05495539149660544354,1203.27434849443784514733,1185.1972657793048711028,276.180646780721815503057,-637.464402642672098409093,-100.259478157795442143652,-216.694175097518353823034,156.175994767494529469332
0.032500000000000001110223,4.07672022122547605960108,-5.79273831623429913406653,0.508675247814525888223613,-0.047874783583654767493698,-0.159990614535446912247707,0.00221385831784798575022633,0.000903734138826659699240962,0.00201068242399316367621798,-0.835010870790629189386323,-0.550234154808982744988555,-0.138657692599876120054248,-0.0108470321837923558416783,11.0847058125240351955654,0.052059575928690163260093,0.00749280373708837918456105,0.865309566669740903854802,6.36628084992488307847225,1.9590962158608924426062,0.180128985936656160760094,1169.59627523435597140633,1184.46112101729499954672,1202.9407062860641417501,1184.3956063578793873603,436.062987697095707062545,-644.985538119362331599405,-178.308884177886113775457,-432.11831318585569761126,156.176512946849044283226
0.0350000000000000033306691,4.25762252640214988730349,-5.42882688661306644917204,0.520398708059609305109916,-0.0360216104971524675448791,-0.174044810696979662667516,0.00209675058155023904399306,0.000704786520979564933171713,0.00211673786732368470614452,-0.835012197496997732315549,-0.550229186752549281891334,-0.12037714032003295205886,-0.0160433986268583642087471,11.094634583206357092422,0.0520402284650913482533241,0.00747273279576460107420655,0.868515960420782828776964,6.366192872747531872335,1.9591929219460009203857,0.182288177410135476819164,1170.8733098807601891167,1182.83002770089979094337,1202.3828040735484137258,1183.03667421337559062522,616.400021457866728269437,-735.992979275670563765743,-294.599385535411954606388,-709.319525875526210256794,156.176933348353429664712
0.0374999999999999986122212,4.25153221044047668897292,-4.82002856791948541825832,0.591775205213012633898018,-0.0236716902597675152297718,-0.189570961248850144986733,0.00212862183839440275920363,0.000497269766450270924926236,0.00221082541418523258192064,-0.835012689713219624643159,-0.550223183692304940173301,-0.101932865176261433504123,-0.0203421626562694038420354,11.1031062051502011911452,0.0520623639239830432456912,0.00743988070279880727569966,0.871778734098530683205297,6.36610526401905385540658,1.95929112679054928669586,0.184455358324111334811235,1172.67827534164530334237,1180.78115612091664843319,1201.46770935838708282972,1180.84900872850175801432,689.258601316169347228424,-772.810349262408976755978,-371.487978497043684456003,-884.599344109483809006633,156.177325051021284707531
0.0400000000000000008326673,4.11903068880548506314199,-4.20018924343635191576141,0.684514534497036586380148,-0.0151274063288879840466494,-0.200645482121511592454866,0.00283272068403386334881078,0.000288103108622701005892691,0.00229829439077000943769669,-0.835012330368128719015886,-0.550215478613384822992316,-0.0834508384407326025966611,-0.0238556658385615794060186,11.1099483689930096375065,0.0521213816097569476726292,0.00738413900158171702947651,0.875094073881151013338808,6.36601947339513341006523,1.95939160937479028845587,0.186629898793147314117746,1174.31960288734103414754,1178.96597595458774776489,1200.52536418106319615617,1178.61367749282817385392,671.302026073407773765211,-753.814539912854570502532,-405.678322774701541675313,-967.823229388522122462746,156.177557050951861583599
0.0425000000000000030531133,3.91251115914018576802391,-3.50831971014509491624267,0.776945108780049853436367,-0.00771554338507636060934258,-0.20921853999305695115396,0.00472421616748939631608151,7.95423651426087270936358e-05,0.00238606975543727197613952,-0.835011651170647906106126,-0.550204615276923769684458,-0.0649624598874375958068583,-0.0266795879096993621137912,11.1150021722808709512265,0.0522207939305947901886817,0.00729923713224700423246594,0.87845628102884854015997,6.36593595224934549747786,1.95949473964321607688532,0.188811260317006845976806,1176.03478547201234505337,1177.01208342135237217008,1199.43931774451357341604,1176.00989258155914285453,764.689365094455183680111,-892.075549177298398717539,-497.580646659617059412994,-1210.34171944033982981637,156.177689781029101823151
0.0449999999999999983346655,3.60875335173373956720866,-2.64345877845697430075234,0.840318895009233735038379,0.00137688038918956385386894,-0.21712351942822863404281,0.00840326617707987978678208,-0.000133160350746846801442066,0.00247997313491760953615972,-0.835010258969785423843746,-0.550190723481720045384691,-0.0463927120276611121285626,-0.0288178652676579633018505,11.1181269751620579455675,0.0523735317481859238841757,0.00718888849970296308494744,0.881857485034943544555119,6.36585559636863607124724,1.95960063269184314727056,0.191000358133379122271833,1178.14304971281330836064,1174.50559820870125804504,1198.03746094776511199598,1172.56196889562647811545,780.474105525991376453021,-939.499049573396860068897,-519.462060452633750173845,-1295.23856555624729480769,156.177731964490590144123
0.0475000000000000005551115,3.30551919560156681754393,-1.92021515210564364117829,0.828130672196443762267393,0.00962491439443859987667995,-0.222162146099945445598678,0.0121769930220454545427566,-0.000356345874062621479575613,0.00258429622412768541031558,-0.835006870609121820692167,-0.550175645185049355667672,-0.0276650915149208101451173,-0.0302427020491213421893306,11.1192037968977768258583,0.0525940339292602920817643,0.00706181998483593718896056,0.885288012986881533983308,6.36577872001763989118217,1.95970865464266208455513,0.193199033620420290713326,1179.93715599964230023033,1172.31458817348539014347,1196.84200744225040580204,1169.5336997537779097911,726.462623886390474581276,-880.353006270433183999558,-473.329969802352536589751,-1210.3461910565317793953,156.177667567939039372504
0.0500000000000000027755576,2.93397003636076680876954,-1.21525253012715284128831,0.742720735744122229071706,0.0178933277206820354199301,-0.225500240043889355057161,0.0156452824454638393658623,-0.000592915980849730711588208,0.0027035236364828861381493,-0.835001341182387668560239,-0.550160083137154587440421,-0.0087737658430144631338532,-0.0309889243139608167032506,11.1181389451371845922267,0.0528927860571763649999433,0.00692345924253244537904806,0.888736802601439723758858,6.36570532339487726858351,1.95981813125191228763811,0.195408854323499331373526,1181.77536283224526414415,1170.103833177349088146,1195.67081109875334732351,1166.51023794034381353413,741.910787081588182445557,-869.098811073854903952451,-461.991558945101360222907,-1186.80916150815460241574,156.177497527869434179593
0.0524999999999999980571097,2.49805306582057662367902,-0.535885864089807761878603,0.613678136998839995897015,0.0253242487018629502948386,-0.22726891379024505290829,0.0180105330724067008718592,-0.000837979754335093827109782,0.0028364695619107109861301,-0.834995990887110073330746,-0.550141904559883210268367,0.0100644597574120163441247,-0.0310987927586594825601907,11.1148686775592810960234,0.053264125407442311499473,0.00677956219642280102921639,0.892192347424895171315029,6.36563623634735442635701,1.95992748656623949621292,0.197630688214889410625474,1183.64670993505023943726,1167.96909411811611789744,1194.5320496475249001378,1163.59965394623714018962,749.337234228778811484517,-811.354167666059311159188,-453.778622293657690534019,-1124.01165435276243442786,156.177238228271676234726
0.0550000000000000002775558,1.98837070624146616815153,0.105442126359776164323812,0.47012987219640389735531,0.0312572424474592616694402,-0.227404064980218478808638,0.018709911894670160081855,-0.00109008829700573349995307,0.00298041997924186705809513,-0.834994192209424945794183,-0.550118657645774500331015,0.028671291571514032070489,-0.0305611344494482045641703,11.1093633025588829355002,0.0537066314777985762130008,0.00664085301264057039499766,0.895641882909942066426368,6.36557335146458136421188,1.96003442231378954829779,0.199865316314459168234308,1185.52204900338915649627,1166.04706233901879386394,1193.40191798728506000771,1160.89017966858000363573,805.16393395487216366746,-770.089648561724288811092,-511.539512306171218369855,-1151.05304107309984829044,156.176869385707760784499
0.0575000000000000024980018,1.31116617404861535156613,0.828290136905236340503222,0.330091193536633797922519,0.0364458977177207626985123,-0.226224193786640714876057,0.0181899579931067284510604,-0.0013491656014833390900276,0.00312746746708808141465563,-0.835001422196983478229981,-0.550086415004021112018506,0.0468258109135909345033255,-0.0292670609562979827655838,11.1016290215020543286073,0.0542160276974981078512705,0.00652580951011525085825316,0.899072337538506349829959,6.36551799538787399512785,1.96013741104472560827787,0.202113135536380161827452,1187.6725296048246036662,1164.11864587530749304278,1191.97435208599404177221,1157.8443887408716364007,747.853077798163553779887,-631.990434115323637342954,-547.092404639897949891747,-1100.15949143921761788079,156.176297788960198431596
0.059999999999999997779554,0.713752011908973194032058,1.39076156660839855838674,0.262100651974772946850578,0.0391973266477786477790524,-0.224022010172218094536944,0.0172642233309893283754732,-0.00161630561773669009784093,0.00327429413482880227875826,-0.835020592375067094437213,-0.550047144136685095539008,0.0643840289206828730872445,-0.0271910750494942371480178,11.0917066795778485044366,0.0547935842516093993270765,0.00644608966944773889573561,0.902470540192724213213182,6.36546824857369841765831,1.96023584243323667486436,0.204373303828640162649322,1189.26131439237997255987,1162.88711016844217738253,1190.66645596408557139512,1155.38938221138391782006,555.787086805094304509112,-411.201200883170031374902,-551.35403328395136668405,-992.923587789573957707034,156.175712348103559179435
0.0625,0.113257614740916404127979,1.90621321459652337537705,0.245173252957325726875126,0.0405837265403523883566805,-0.220171045425348349544592,0.0163189906173598110739054,-0.0018869906638811352432572,0.00341862583119125320110787,-0.83505316100985804705914,-0.550004125099218477146223,0.081113022020935551803511,-0.0244040035406017374874921,11.0796715401531429279203,0.055431582164011339308729,0.00640398293248190930010422,0.905824683866993662917366,6.36542074295636872705018,1.96033017351873795064421,0.206644974069928655246997,1190.45146503885007405188,1162.06263987089164402278,1189.21758191957428607566,1152.8797708019237688859,381.681583637691460353381,-278.677646712457999456092,-651.215285660190943417547,-1142.0106429044144533691,156.175011824044702279934
0.065000000000000002220446,-0.566574503290409592359822,2.45838808957436549817999,0.250786346153574757344984,0.0408947465651660624352814,-0.213881248161010339980947,0.0157419593758671948202643,-0.00215466571389571429767651,0.00356344867972712385506551,-0.835093894784989076995885,-0.549959967689934492440784,0.0968134960078520512283262,-0.0211028230814006984017439,11.0656308056878973644643,0.0561220240081466287263012,0.00638931548390586981356343,0.909124319254258406175495,6.36537194582604470838305,1.96042283432270170173695,0.208928100549266942964621,1191.16972231056843156694,1161.49372193487988624838,1187.41037953578461383586,1149.67932899686184100574,110.71947217892547143947,-153.479529124478943913346,-643.783559720258722336439,-1207.78896637238972289197,156.174036162364927804447
0.0675000000000000044408921,-1.05761876691228873248463,2.85367818558893349134564,0.234321939054859235129769,0.0394006526323044115045491,-0.207460779197475936319606,0.016432806054338930379366,-0.00241281263541251803084187,0.00371041559009708220295831,-0.835138329736622497811993,-0.549915084421924493796041,0.111281496398638268807701,-0.0174590454565324570967988,11.0497218169668496301483,0.0568528355454292547155326,0.00639100192814083013781445,0.912360940676214315914194,6.36531837111289444663953,1.96051554126343385853204,0.211219947908909189138171,1191.00506239974470190646,1161.29524222526924859267,1185.99866412097298962181,1146.8408259700618145871,-252.010840981983847086667,-44.7901161765002626680143,-496.91938034334225449129,-1149.67537124543832760537,156.173109228510355706021
0.0700000000000000066613381,-1.41069955643785949206404,3.17166281479858280789585,0.136907517652782528827515,0.0352631848672597808524998,-0.199707311698753997575295,0.0185843366658749037378939,-0.00265888747925057886134503,0.0038534298314939390353584,-0.835183443507115041981592,-0.549869890358062884949675,0.124307771641653935779104,-0.0134490548363066161896562,11.0321091765618035651642,0.0576073878385798127110817,0.00641151763089841883469511,0.915528189375218959256131,6.36525806380300895881419,1.96061009738776381716718,0.213518594094308011843708,1189.90966810565851119463,1161.26977135399738472188,1184.92578263406790028966,1143.93095214063464482024,-699.546483697760322684189,2.42745519058189973549133,-340.361698824518214223644,-1245.40105993646875504055,156.172062585038815996086
0.0724999999999999950039964,-1.61388710546829972081184,3.45941127654732438756469,-0.122730166252109168523177,0.0282369315998190310856852,-0.189137330041572210292955,0.0214506369049348548372347,-0.00288745570562437114253695,0.00398286771116344775339746,-0.835230537013646467947581,-0.549819782290341452224425,0.135606697277209281571331,-0.00901473183376357012352997,11.0129803822590268680415,0.0583587153467506614124005,0.00645387266777890447611021,0.918622315798323985092111,6.36519028103038220223198,1.96070772326925601980463,0.21582303012172554534942,1187.50732998125590711425,1161.30737950122215806914,1184.29685562685040167707,1140.61382067037948218058,-1039.58385434166507366172,8.17192126573901767017105,-96.6979559404991988458278,-1141.10024302122133121884,156.170666623337979217467
0.0749999999999999972244424,-1.57867085329910938895637,3.62791015945643069429138,-0.465219508438188267263058,0.0220303164164913876932328,-0.180022365288321356535661,0.0230437810739619886035712,-0.0030907910879191852378256,0.00408851048031788101566608,-0.835279705508765402122151,-0.549763148412184321500717,0.144867797157319538881026,-0.00410708199734073631237408,10.9925406141966526263332,0.0590738187532722294759147,0.00651962221427275848140148,0.921641740592373137630489,6.36511515798796434495443,1.96080879479683978239279,0.218132587880667139224045,1184.71174883395019605814,1161.31063096032607973029,1184.44229285436540521914,1138.22545092552854839596,-1229.23364264088263553276,-21.0461010664857717245013,196.683649945634726918797,-825.929357328640662672115,156.169385604301794501225
0.0774999999999999994448885,-1.34498708985932036164002,3.7438733623296447383666,-0.908530960823000333093091,0.0165988126152051412853794,-0.171363172305905142600579,0.0231427102343966621667004,-0.003263743599614315604035,0.00416451163373179108345701,-0.835329051101540098756004,-0.549702443724825795534628,0.151907758415778554317299,0.00128300208567318219099462,10.9710057028113290300553,0.0597269656164357495842232,0.00660710681155877912335006,0.924585912987059943546342,6.36503448066997457033267,1.96091341784532868786073,0.220447481432602010453792,1181.36116176805148825224,1161.2021489958897291217,1185.28027387657857616432,1136.48417388373627545661,-1378.24528661753788583155,-70.4297140767266114380618,425.187172540745052629063,-561.999277049607826484134,156.167981260330975601391
0.0800000000000000016653345,-0.984513264631872164756032,3.83626569978512899083967,-1.38731261938866512473112,0.0124347185592463497366689,-0.163100749262070049416806,0.0215661985834496305880492,-0.00340730244796152168321179,0.00421015608687828109951701,-0.83537635587445091545078,-0.549641136517575290554305,0.156744655026563567412623,0.00715345815388229028242151,10.9485960565540807465368,0.0603069738198942634221922,0.00671414070804637105188695,0.92745446955291388491105,6.36495063333407262717856,1.96102197264765409912002,0.222767884805927296465455,1177.82052240086250094464,1160.95848238994244638889,1186.56822871706913247181,1135.4154545402805069898,-1391.88288540872122212022,-133.25875661407724237506,569.622386553055093827425,-253.341780972959668361,156.166473896868609472222
0.0825000000000000038857806,-0.541555966884811335049221,3.9176450715523847279087,-1.82900915271242148207875,0.0106629670919365752979058,-0.154868533099236344030558,0.0173179649066021040804131,-0.00352385318366455488683919,0.00422734010738738587992236,-0.835419332488271271230929,-0.549583134046458532395718,0.159479038779160503525034,0.0134789146043910804118049,10.9255337739706011035423,0.0608081991639687138850867,0.0068373561883753189785673,0.930247507129625894606306,6.36486536654090517828308,1.96113428189713623339685,0.225093526587911929581765,1174.4017473410078764573,1160.53585521281934234139,1188.12838580934385390719,1135.21746497887147597794,-1395.57777086993041848473,-219.760764398415432196998,666.00591357941937076248,100.415631314081025493579,156.164841522989377153863
0.0850000000000000061062266,-0.016498431582753783630757,4.00739810346614344638283,-2.20803627681589365039372,0.0116393732261377697012605,-0.144351819808932774202859,0.00883666928474853910491227,-0.0036179072015320831896823,0.00422179736510370443719475,-0.835453826923559517148021,-0.54953531171116776210539,0.160319821358370029340534,0.0201960953047415035788159,10.9020385212269754759973,0.0612335196664907446817416,0.00697144065800236155394654,0.932965126868260941073174,6.36477972509472333939584,1.96124929496064992484605,0.227424951724336382730129,1170.84263354651284316787,1159.85967856795036823314,1189.89825828496623216779,1135.9175326968509125436,-1172.16060169093793774664,-262.158844218765580080799,574.183436322027318965411,383.955018042251708720869,156.162737353699753839464
0.0875000000000000083266727,0.352045631945474390978035,4.06720228455191890049036,-2.33760828712208867941058,0.0142498181981170982807194,-0.1349073044103676621841,-4.54205310430363766449613e-05,-0.00369711663244484504964316,0.00419909433215798297972521,-0.835476729334407419713671,-0.549502979495986032532073,0.159551233060008956776699,0.027285531194705437557646,10.878324975628553161755,0.0615923920510532130201398,0.00711571416617258825643155,0.935607302167283938487685,6.36469432302029769488172,1.96136552049211054793432,0.229762934864001788781707,1168.54094433255318108422,1159.22506099172551330412,1190.99930299095399277576,1137.13724006908273622685,-758.930195559106891778356,-244.710519800992642558413,310.504418931123495895008,569.592677517767810968508,156.160862503877723383994
0.0899999999999999966693309,0.604635998214621772639532,4.09437978662012014297034,-2.24955791645393876621029,0.0173787631043003480690867,-0.124861504380388149693104,-0.00834812204602717461421335,-0.00377069150926072306148629,0.00416389471278656633085324,-0.83548457757979788240732,-0.54949194177577520559197,0.157491479996394734275356,0.0347632749183893960398528,10.8546004920398253545955,0.0618978110975465373178039,0.00727385095906743842086861,0.938173987443744916703281,6.36460959317730345929931,1.96148154758607362602163,0.232108162325487643595778,1167.04798256871731609863,1158.63612596894540729409,1191.45078037962184680509,1138.76549608443974648253,-476.877477678091054258402,-217.683726019913990512578,16.8241515984846365938665,745.724642874257824587403,156.15886189150677409998
0.092499999999999998889777,0.766504520862153371218994,4.07099812345767197996338,-1.93006550722784253615316,0.0207839543846802601856361,-0.11256891514753344929467,-0.0157882305345788398476259,-0.00384777298719324095319094,0.00412429061655076017317567,-0.835475657213254785382617,-0.549505233580110163948973,0.154510913089412726950655,0.0425791116721692119995168,10.8310621754767044677692,0.0621682760242864007604879,0.00744486632092606487320907,0.940665090473173481910862,6.36452585641873813671054,1.96159720172007978611362,0.234460514310890183464764,1166.1565569441627303604,1158.13664236162594534107,1191.08342374894641579886,1140.86586328345401852857,-201.326262935572060541745,-128.458051926690927757591,-288.986248101082026096265,752.652527183817483091843,156.156316761636674073088
0.095000000000000001110223,0.800567985005346316462749,3.9973809197562815143101,-1.54131543376538981959811,0.0230253774754539501656847,-0.102526564322591842715049,-0.0197132240884714989015425,-0.00393707663838939285472218,0.00409269964825237971689509,-0.835450187627896245778913,-0.549542813099795135478587,0.151031951933813579636023,0.0505941672435587935785506,10.8078947486102254771367,0.0624280563148839479081786,0.00762109363858609785424836,0.943080569642744559466507,6.36444282044997322600466,1.96171317460679506261556,0.236819306384824124211974,1166.04135125403945494327,1157.99383570931195208686,1190.00584913911643525353,1142.52875872035883730859,39.7669739909815334044652,17.0522919258928453700719,-572.512598373804848961299,612.880820189229211791826,156.154076717621165926175
0.0975000000000000033306691,0.762953359877494685648003,3.86653450904146467337341,-1.09924049283717395475435,0.0245959265633993208466368,-0.0929318468924080071102978,-0.0217320065170549872601846,-0.0040433316340795222298965,0.00407938108089660623339912,-0.835409944910114332650153,-0.549602209048168033334036,0.147383711636477315876093,0.0586543812459513896895302,10.7852705046800849686406,0.0626947361736935188103459,0.00779459856279127692724185,0.945421292725083239893991,6.36436013166065439605745,1.96182941439290070562151,0.239184586966272538788303,1166.35539181411763820506,1158.22190382125540963898,1188.22086075707738928031,1143.9302673844001674297,180.078599750049590966228,196.63948595107268602078,-905.353362386357844115992,540.564699829792061791522,156.151715111910021960284
0.100000000000000005551115,0.67385719651203868085787,3.64913527797806569452632,-0.578468172519151169197471,0.0257663246881303792390483,-0.0819769011767326610806705,-0.0226050527973717940710685,-0.00416786960584891903736082,0.00409034889466453315670647,-0.835360067394861349754365,-0.549675796148272333141449,0.143785462681086106950801,0.0666326860251397062873124,10.7633469794971485811175,0.0629778490095460469211375,0.00796060893842647984697258,0.947689185648422860452911,6.36427858205920138345846,1.96194495728349349583652,0.241557554658085565923997,1166.94174425278970375075,1158.97703313906731636962,1185.47908232718464205391,1145.23158221950779989129,214.259039603848378874318,358.818279602155257634877,-1065.03409744482178211911,416.443418220569185450586,156.148743812288245180753
0.102500000000000007771561,0.583927317328679529317981,3.42476388082511817856357,-0.187933093499578790508409,0.0263505868116298558323507,-0.0735124199066790051659837,-0.0224419997440293665647015,-0.0043051586932559438719581,0.00412452084710128279165797,-0.835307106659502252021809,-0.549753821668884312678927,0.140248293326174694461983,0.074438282055559981675863,10.7422656550272854758532,0.0632700837565891016645026,0.00811873362298434764205979,0.949887988238647507088785,6.36420042817364350895559,1.96205917020820064244901,0.243938262731442451203279,1167.42668701213688109419,1160.01599521926618763246,1182.89569026985327582224,1146.01248447550301534648,167.613991657436002924442,495.790839685242644918617,-1046.71768033722605650837,263.506152581658682265697,156.146156079119947435174
0.104999999999999996114219,0.488602284836217815033876,3.16552513515226285889526,0.135496086327496240153678,0.0271247985149382919711769,-0.06585919593639696922871,-0.0217808309603473825022402,-0.00444641088871180513442116,0.00417401550940930954336494,-0.835257184414321507404111,-0.549827198719051168929184,0.136641655207406009786553,0.0820531852303463676845396,10.7221483015652623294045,0.0635527782249579453743848,0.00827641238369665292740063,0.952023122891347273188956,6.36412620980478216381471,1.96217249541106375509969,0.246325000741873328946596,1167.77981421107688220218,1161.45598733749352504674,1180.24549392549852200318,1146.54911298241609074466,115.34476364104214951567,633.034856301902777886426,-1040.42710269809708734101,188.187101652647811533825,156.143456440515649319423
0.107499999999999998334665,0.38761779700207582566307,2.88389765551792143227772,0.398510912251512749993054,0.0283140257050423470308598,-0.0587641183949794213003948,-0.020859289693911695073858,-0.00458515164898878717358865,0.00423081319597343359639741,-0.835214291159264043962196,-0.549890017284414001075277,0.132869140212337949469301,0.0894782976654092537804885,10.7030925643716550155204,0.0638112339361275593407896,0.00844412537408218387413594,0.954100878432199150935844,6.36405541272083663528747,1.96228494473509695872337,0.248716178092094925000666,1168.00341083034209077596,1163.18116950077569526911,1177.69355475636280061735,1146.95341998376625269884,67.5302472775910587188264,738.187402173843338459847,-971.379615505565197963733,146.772377941397138556567,156.140667347252815488901
0.110000000000000000555112,0.275577090435135285684254,2.58077838366886780363529,0.590497981681800898634549,0.0296349263436345433664343,-0.0524122690971604854315302,-0.019595475269822693054067,-0.00471405123013018522576401,0.00428738909685034887825372,-0.835179850815524149609814,-0.549940240727780027540916,0.128816119150858721109643,0.096685453537287233127806,10.6851713213635974852878,0.0640299954084916495000712,0.00863068408531828500096506,0.956128722164114708270688,6.36398824471886381815011,1.96239563266302985411471,0.251110851850054439537985,1168.11746544746483777999,1165.14692434836274514964,1175.38859584797069146589,1147.28297487212307714799,43.2003383343726099496962,880.446926723470028264273,-939.301670218809817924921,147.42349509201616797327,156.137774687996738975926
0.112500000000000002775558,0.129910897266152597362421,2.19672340601295701389972,0.74430746570329253675169,0.0306242492233271546009377,-0.0456063157452656145474101,-0.0175349937835670918739872,-0.00483007071087602265352379,0.00433729322615263035434197,-0.835150858200173651368914,-0.549982494249455555745953,0.124445668292172656466121,0.103669531555462601790651,10.6684302125087526746938,0.0642012535171160719782435,0.00884764544869362686008163,0.958114480477322283391572,6.36392321905923363800639,1.96250530761416963621002,0.253508471054167017211256,1168.21941252201395400334,1167.58340413439304938947,1172.99704640526874754869,1147.69053745922633424925,41.6572616551547625363128,869.459773082461765625339,-811.026582269868640651111,163.687527904448728577336,156.134189602670176100219
0.115000000000000004996004,0.00650319459868189519297088,1.86195454599246912330557,0.813855106453902465979411,0.0307669751214899485358689,-0.040441962430635955416669,-0.0153216062407807943751559,-0.00493396785671664211275766,0.00437336650103657513521949,-0.835125281673692598793934,-0.550019889217376656276315,0.119768102413260080219004,0.110475100712399854074874,10.652887473095908887899,0.064322123761316810086619,0.00911017787732840318704053,0.960066192724538858271899,6.36385831484338293506653,1.96261526554705967306802,0.255908781399717621951595,1168.32575175574061177031,1169.49422321377505795681,1171.33346293662134485203,1148.10141251164532150142,49.9701045507208192475446,694.625440622348264696484,-600.9500100325107041499,190.962648801860098046745,156.131111586760766840598
0.11750000000000000721645,-0.107687570019281531052968,1.51673106751595199170879,0.832600483693265558393648,0.0303798360814369512727939,-0.036038883436660201775581,-0.0127926750842554757398029,-0.00502408166641979490180114,0.00439092222977283900414713,-0.835103755253851498530082,-0.550051488076294670115374,0.114767565494900969369496,0.117069588148081632494879,10.6385359708849289717136,0.0643880456983628446376855,0.00942484314035698343692271,0.961992317666044316482044,6.36379303975184651420705,1.96272576548686950026479,0.258311794519487825105841,1168.46926304476755831274,1171.05653133750479355513,1169.99229635510619118577,1148.64535070323563559214,65.7510339229703646424241,567.71021564250179380906,-526.257900341807840050024,281.004356677749967730051,156.127945280701680985658
0.119999999999999995559108,-0.223893661868584337160115,1.10331576385267915441091,0.817653240728657970670668,0.0294873040579024803253816,-0.0322081490792756539032204,-0.00975731402575609300942272,-0.005101321040022668146241,0.00439200943276707445050988,-0.835087184414595062875719,-0.550075864642909695412243,0.109540132719842933650689,0.12333050337222387082825,10.6253431246237788343478,0.0644053203996713674595043,0.0097883596378793083503389,0.963900576909302531092294,6.36372662634237151735306,1.96283608911891183090859,0.260717866565492728536668,1168.65450692535546295403,1172.33277429198756180995,1168.70217343491231076769,1149.50643429503406878212,64.4522521759428315135665,356.495943046866841541487,-430.092953566009668975312,357.170264041406653632293,156.124050470762000486502
0.122499999999999997779554,-0.300180485734466817593358,0.772358274264515087814686,0.797394560130029517175387,0.0284874682541859346185387,-0.0302563061084692823399234,-0.00758963483675577366138754,-0.00516834110219984398104653,0.00438248254976949733197067,-0.835074570847196162581838,-0.550094441090526742321742,0.104244080274765546501037,0.12909215790122713363175,10.6132534699223750607189,0.0643867926412876323549739,0.0101918576633134253667246,0.965797921651754487371022,6.36365788263340004249358,1.96294470945061805267073,0.263127314602806583465622,1168.79152430564727183082,1172.83901105273912435223,1167.84183158727614681993,1150.43120202344266544969,49.7802757780845723800667,97.3102777102211859983072,-313.892278452612742967176,418.908601731936471423978,156.120730649676403345438
0.125,-0.357465330989544138873271,0.468739427761616367362763,0.803491113875461460125393,0.0273058790076752058717524,-0.0292854230062135380274757,-0.00639909952857855776620077,-0.00522376766301611318576992,0.00436609777197563726780505,-0.835064477465365162522914,-0.550109365667812211242449,0.0989297584148367548095848,0.134186075484793193579591,10.6021929017997109667704,0.0643363540789621962678879,0.0106241309269507182982961,0.967691289974416335439855,6.36358600294506526751093,1.96305031908203631019205,0.265539417852972692291047,1168.90340830424588602909,1172.81932568053866816626,1167.13271204264924563176,1151.60097730369375312875,52.8430098147054607693462,-90.7575351166086932153121,-294.081314852746515953186,572.843460816602146223886,156.117340367509655152389
0.127500000000000002220446,-0.415196417357788005730868,0.143209257494758712692118,0.875825938394515612905877,0.0256897850240244904340692,-0.0288199648747255107728016,-0.00615274393604979281252598,-0.00526508406450140395427262,0.00434421439101460599846449,-0.835056017904205805102436,-0.550121987825919367409711,0.0935894285286013732916288,0.13848285280034977606789,10.5920708875472993071298,0.064253138678905294400856,0.0110753685395789218393059,0.969587003679411640888475,6.3635113943327512586734,1.96315280147189774595518,0.267953807771959318095867,1169.05573935472079938336,1172.38522337715608045983,1166.37142501301241281908,1153.29541932752567845455,71.632441036172110671032,-187.973254256439588516514,-273.341706130076772751636,665.044568656775823001226,156.113198097686961318686
0.130000000000000004440892,-0.467931551969406722690792,-0.0961180640485578968723601,0.997730959826413132951473,0.02434920943309311705538,-0.0287744676792808622145525,-0.00625314069851758570078859,-0.00528995786434148605043015,0.00432172483981516607209894,-0.835050144774522329349509,-0.550130841138983694982301,0.0882521326003569417384398,0.141805216871995737326628,10.582784175882160582205,0.0641398393585023429697145,0.0115291504960713803162875,0.971489954740361927321146,6.36343440501497603634107,1.96325266838784395773132,0.270370373150351561708504,1169.26157050942674686667,1171.87945940925646937103,1165.76600351199886063114,1154.92620014697763508593,114.626464414413831605088,-184.333498611749575957219,-237.773185362311579638117,683.546913977669987616537,156.109689747213820965044
0.132500000000000006661338,-0.547978898038282147275879,-0.30577323725300653567416,1.1581227271343053075725,0.0232790424099916098965579,-0.0289491600035411550395636,-0.00512456032556955071166627,-0.0053020596743082078206033,0.00430698925207246858387622,-0.8350475260556642354004,-0.550134809857894979678861,0.0830864243762202275833673,0.143999523047033450851018,10.5742197584581845148932,0.0640118677949104430968674,0.0119695628839398791887216,0.97340255434626343777893,6.36335582967309232316211,1.96335123877118689073029,0.272790085978931340360276,1169.62887167679286903876,1171.46355588409733172739,1165.18255908620085392613,1156.7131538974140312348,181.024787069600108679879,-124.048809064879492325417,-222.511262167745172746436,723.153343330886173134786,156.106128442727538185864
0.135000000000000008881784,-0.668768041730301465719322,-0.491788124788554270594432,1.30707790512360610968301,0.0225006752320102421105474,-0.0293261763474990770628192,-0.00191386932992725230205655,-0.00530522783045309781480015,0.00430494038914182742400216,-0.835049289307210007571314,-0.550132111467136808435896,0.0782186577545127548205528,0.144990966632480344777889,10.5662606567803294410623,0.0638805212271715966432239,0.0123862874346207171849521,0.975325480708468584012394,6.36327532303608212060908,1.96344973890531648841318,0.275214589330028513991522,1170.16669444477474826272,1171.25921536393207134097,1164.65344720116013377265,1158.54196686363206936221,255.530807523109388057492,-16.7605200666002787102116,-183.509583105114700174454,712.332182641102235720609,156.102527083306796384932
0.13750000000000001110223,-0.854414809015377807455138,-0.643668196914338186509497,1.38136720347020980348418,0.0218587953889331013113129,-0.030096116095741164142563,0.00357515394809066692355382,-0.00529803476420681249137168,0.00431488510234100466900209,-0.835055815706463588909969,-0.550122191879793165369961,0.0736129332206682113204366,0.144759950073102022782834,10.5587915835769283745549,0.0637417206920108531109648,0.0127728050638180375825348,0.977258306303842694262585,6.36319325231381860419333,1.96354858278712796071375,0.277645438219705387172809,1170.90652571440841711592,1171.37975328376433026278,1164.26501117067527957261,1160.27481481061954582401,359.364706416135618383123,117.57861334122016216952,-121.191007575362050374679,695.827299741903857466241,156.098881667434170594788
0.140000000000000013322676,-1.15385990829622642195318,-0.767727085334188874554684,1.33298263843527120542376,0.0205836852975632804418904,-0.031753320788338826319297,0.0105618064142849101688659,-0.00528650567974973343426948,0.00433209360893419773846924,-0.835064767625139037221516,-0.5501085793336254470276,0.0693148701767331010259454,0.143461910666486336385361,10.5517002245159101647687,0.0635984516161343382822935,0.0131380199344002177030966,0.979197981430855790563328,6.36310936804480853368204,1.96364771363473611387462,0.28008394069288350403113,1171.96351797685542805993,1171.8471084306381726492,1164.04749216328332295234,1162.02110336234159149171,400.17014577720112811221,199.961843024402526225458,-33.7896673549039121553506,553.145335371072633279255,156.094461200148600710236
0.142500000000000015543122,-1.4508218914306982849638,-0.802384277776107324164911,1.1748945964675769904062,0.0184685530521162093176013,-0.0339191949489578495335884,0.0152053808903708179839365,-0.00527943189924098225246363,0.00435104531157313664802011,-0.835074926541569784177454,-0.550093082685531031827963,0.0654091682233346183306111,0.141314899500635388074343,10.5448830782643074854832,0.0634570612768701192152321,0.0134953014071685674368783,0.981139552277605964114571,6.36302302920453488610519,1.96374686824635213966417,0.282530976649838561076677,1172.90737644329442446178,1172.37956249888634374656,1164.09606283390075986972,1163.04054148747491126414,368.320250790522436545871,202.602802345792071037067,58.440895744570568126619,290.98136939242203879985,156.090742432385326310396
0.144999999999999990007993,-1.75838246769283079729007,-0.741409907961610659121732,0.92609165757770850468944,0.0147069243253960986461681,-0.0368686753767238015178087,0.0179797544235924117161929,-0.0052833960351402328367576,0.00437579485019314300825455,-0.835083876508022626694583,-0.550079268766313411731517,0.0620519477216165959987393,0.138358690667820305453262,10.5382512435077178025722,0.0633304669892344046511212,0.013840720881294121813454,0.983076762986928476273363,6.36293421042316698077457,1.96384710052291744375452,0.284986245833821927320173,1173.80511923080803171615,1172.8601224423671283148,1164.33969664200617444294,1163.4760102093036948645,357.734912228444784432213,157.445359539861613029643,126.371696922388437656082,54.2431229133401586750551,156.086990769359942987649
0.147499999999999992228439,-2.08411583892133700501859,-0.544296809864877384477211,0.579582262261222003196792,0.00818360172830214470385268,-0.0406001458555106595205153,0.0194919556756581666134842,-0.0053005650370049955596996,0.00440867096324092447301446,-0.835091626150109012094447,-0.550067080066743985256039,0.059302444470238357965286,0.134627506728350943010497,10.5317323666799715908837,0.0632228327968887976462398,0.0141684996214520766283362,0.985003410125416367648654,6.36284286848289326599115,1.96394820274297843276656,0.287449443974211904517801,1174.69605100443664014165,1173.16678929658564811689,1164.72792131851269914478,1163.31175710204161077854,277.954719329136196392938,48.5681280373227792779289,135.480151945057400553196,-152.356657901509464636547,156.082454283380400283932
0.149999999999999994448885,-2.28430362282725862854704,-0.285836773003759148092939,0.290551310846648591645902,0.00154218372977554980807202,-0.0428989920309099104223094,0.0198583947227803821189429,-0.0053274199407247367285545,0.00444871081064371776819799,-0.835100140302063254083009,-0.550053572912961863394798,0.0570823555991394060438182,0.130161470582305593968186,10.5252722418379605073824,0.0631260181021408295354291,0.0144724404910820184100295,0.986914069771574586908969,6.36275019686996223811093,1.96404932482490801604058,0.289920462256716582327698,1175.19489282745371383498,1173.10296308255374242435,1165.01709740173146201414,1162.71422691979614683078,132.483245849789341264113,-96.5375641498666539064288,87.6006994888938805843281,-282.680109328384560285485,156.078647403635500268138
0.152499999999999996669331,-2.38812005151349504572522,0.0357784399237979222618833,0.0378642986510895063201332,-0.0054685303660612864101731,-0.0435939401338825485709982,0.0196559357282267144206855,-0.0053600470314751841663381,0.004498272421641582100027,-0.835110305708612332686869,-0.550037419401484761749543,0.055343949894956744051111,0.124949757997792842978413,10.5188348672993186028179,0.063035495319048562290476,0.0147414639688021285868214,0.988803614739874214834003,6.36265684346295756768086,1.96415085194350202968394,0.292397861119238267058051,1175.3584672336855874164,1172.68410147583631442103,1165.16592481595716890297,1161.89835655539968684025,-15.2493048592077542480183,-251.000282457698403959512,28.2399278142292793347679,-333.837803280993909993413,156.074815391902916417166
0.154999999999999998889777,-2.40559077160204104472996,0.436839924270207180523329,-0.194343703871218853596048,-0.0134434704832663270285265,-0.0424427223284705584793741,0.0187913883058669212156033,-0.00539405250593715836215924,0.00455836925376854138619587,-0.835126066142514500434402,-0.550012666332125643720019,0.0540150278389957688718326,0.119009789455551517889376,10.5124018371696212881261,0.0629455736814198973938517,0.0149663388149758169037851,0.990667788570316343310651,6.36256346527822991276935,1.96425279922334872217959,0.294880861813823003103607,1175.11864630315767499269,1171.84796167026524926769,1165.15829704080260853516,1161.04503790339117585972,-158.633603092311972204698,-340.2870102798712537151,-20.7719368761445188908965,-241.317014581545436158194,156.070190217898783657802
0.157500000000000001110223,-2.35060011834476645375958,0.741237155687776261281385,-0.315203629325447209907907,-0.0192552803269706793165561,-0.0400080779079876117099168,0.0176127054300883635618025,-0.00542350416130135942055501,0.0046250326197476441039691,-0.835149304456751173653117,-0.549976547703987739268428,0.0529354501154284534658601,0.112436365306916488671085,10.5059713815616539989151,0.0628435079196814211366373,0.0151455319162622850659439,0.992503694728530838631286,6.36247139381112347678027,1.96435350008639542096489,0.297368748421357742550697,1174.56529921822402684484,1170.98266642443695673137,1165.0620651315764462197,1160.69177148249195852259,-279.647801505097731933347,-348.244534989680403214152,-24.2123214775346937699396,-26.457712718911327698379,156.066315011421352210164
0.160000000000000003330669,-2.25563416231969160463677,0.976528364575735774444354,-0.353782609742199105617999,-0.0239982472233386395776833,-0.0365572065577569674243996,0.0161733840585343048579237,-0.00544350142441632055961831,0.00469382519493067272564613,-0.835179656177541529515906,-0.549929707050584637428869,0.0519537457853818246400479,0.105349672131107019446006,10.4995567190696874604328,0.062718579401771834547219,0.0152804449829137944244506,0.994309373998211842859973,6.36238110309721349722167,1.96445051614644849991009,0.299861391788443176764645,1173.72040729563218519615,1170.10673899531684583053,1165.03723543341493495973,1160.91274933979661909689,-366.964548505347579521185,-328.29993626814911067413,33.5097499294078886578063,195.026177345198277635063,156.062419491145277561372
0.162500000000000005551115,-2.14839137575983540884295,1.14109668364691474451433,-0.326523690701414626147425,-0.0279635457733643962019432,-0.0327007351593485984242449,0.0146882064502986547926966,-0.00545581937263489927247839,0.00476510306713112587878589,-0.835210909715126348373815,-0.549881549954124304591119,0.0510852845140503802889853,0.0978656302953702789126922,10.4931833346818432772807,0.0625767290740855824937583,0.0153734162848592464251096,0.99608293743683851140247,6.36229137611304995658656,1.96454362614165578548864,0.302358544303617693405073,1172.73047647569728724193,1169.34116674309620975691,1165.22961388122348580509,1161.66690236921795076341,-403.519470686751105859003,-260.259429711868278900511,164.106479586143763071959,424.487317487909933788615,156.058507938148380844723
0.165000000000000007771561,-2.03610950905381571374164,1.22476208976771339109746,-0.2326185602848668820819,-0.0315187040223830414187312,-0.0290173069477720271813759,0.013306010549242299270678,-0.00546466625617463529207551,0.00483496145204423324187593,-0.835237242903532850490933,-0.549840900485304984179891,0.0503346566054366784115359,0.0902037833620841777992894,10.4868869527182280165789,0.0624235831987903846962418,0.0154368528619556640013588,0.997823510485844278328216,6.3622018972430049998934,1.96463363055536421875047,0.304860721123273059607328,1171.70280994219842796156,1168.80544184675750329916,1165.85776783134565448563,1163.03518592723617075535,-429.182968246231723696837,-176.870973382574277366075,401.463682382381762181467,722.849829489268131510471,156.054577799239694968492
0.167500000000000009992007,-1.88147619806496901873061,1.25800330944741833860689,-0.0726571307513177860881726,-0.0362540409031577443021988,-0.0253050259162788983291481,0.0125559904878959627261281,-0.00547154591148637289149681,0.0048984172259501183865904,-0.835256266557790505444814,-0.549811408157454217793259,0.0496429179757071487033571,0.0825703230416335032249009,10.4807120012862302615986,0.0622591492772413684919641,0.0154817956873159728176104,0.999531753847367587795247,6.36211265256798341738431,1.96472182853652310718928,0.307366114626040742852098,1170.58456163446612663392,1168.45681187618333751743,1167.2369322931353963213,1165.28115151666429483157,-374.376169967490227463713,-88.3510948910497120323271,604.621073091947778266331,904.654301650997808792454,156.049841053969117865563
0.170000000000000012212453,-1.71055868447577741342513,1.25581845199998554107879,0.0714282972385721220964783,-0.0410719166793507492463355,-0.0227069263471029181289396,0.0132713521967178574301194,-0.00547471654938352057795381,0.00495129814685529683060405,-0.835268565622234060441542,-0.5497922336486750216622,0.0488997976447797938481798,0.0751170111422568009817979,10.4747089235307804244712,0.0620786537588858960967642,0.0155142947442131057256276,1.00120979956119615650323,6.36202394586320618685704,1.96480860958340697308699,0.309874016216536374290769,1169.83092909236097511894,1168.36368637230225431267,1168.88087319680539621913,1167.55845743549116377835,-254.161485841859530410147,-18.4937781227290365393401,723.089315245078296356951,968.325193320469225000124,156.045877605315979508305
0.172500000000000014432899,-1.46386580507793762073732,1.25130829314692015863386,0.196584035087607356118156,-0.0465652283930611393669707,-0.0201869223117650403720447,0.0148975943274533787624714,-0.0054721013558424076717035,0.00499325736837284185620778,-0.83527424182108078731801,-0.549783244118569491831749,0.0480291673926590140242254,0.0679201522300384441521715,10.4689310116120708471499,0.061880336761728105265945,0.0155342003551099637481681,1.00286057814500595419815,6.36193632273158460321838,1.96489445259775852292705,0.312384320670394621810573,1169.31375420525682784501,1168.36434298556969224592,1170.85237886936079121369,1170.12277748326664550405,-171.536832006677144590867,-8.32197669224114378039303,869.039682279252815533255,1156.2689493639925331081,156.041899176562338880103
0.175000000000000016653345,-1.06660995096023203387858,1.2673223544160037157269,0.311156057086703907721414,-0.052504239228388885352139,-0.017248119507986568732516,0.0166418608812887031112027,-0.00546488874925850527664029,0.00502768064538833010096441,-0.835273717067059662255701,-0.549783758443817549554922,0.0470519198998691420832152,0.0610223428316272464844161,10.4634314556670524609672,0.061671357149201175285036,0.0155389931135476860868394,1.00448713364170028050637,6.36184944729453505374295,1.96497985317152101814031,0.314897082646027337560213,1168.97324493232758868544,1168.32207648884104855824,1173.22607160820166427584,1173.33980218231113212823,-82.7336194526655361869416,-42.3770895893996737413545,809.781405976677092439786,1169.87601078135958232451,156.03711064055138990625
0.177499999999999991118216,-0.667094914797339288980993,1.30896085319773125554832,0.381955411853730553151109,-0.0557599370248852629905478,-0.0150211861463415956990941,0.0175332145476939371686598,-0.00545832349261753894259508,0.00505995846338447383822023,-0.835266167440239293284776,-0.549794932208571229814709,0.0460806842785458359301742,0.0544703487566620125903682,10.4582613435416860170335,0.0614671470365793920498376,0.0155277502843403428234303,1.00609234670637293085349,6.36176196515512071272269,1.96506544521593640162394,0.317412107068719417934943,1168.90008610799350208254,1168.15245753762269487197,1174.90128589924415791756,1175.97215753717341613083,3.66115747820005577040092,-111.395165438580605155039,544.626562364467417864944,1002.07658344061667321512,156.033110843718333171637
0.179999999999999993338662,-0.241242108397219462423422,1.38090778647031986459126,0.44075730648019462165621,-0.0567480280032472694795587,-0.0126306021864813801391936,0.0179102500582650724092471,-0.00545233303808969737430656,0.00509677609187045993488496,-0.835251470344229196562935,-0.54981689803396760485299,0.0451494542585424152303375,0.0482187782011529383896509,10.4534691795121492674525,0.0612750987510761110921287,0.0154915465032141822648848,1.00767982552684642882923,6.36167418786144711617681,1.96515135893382586473876,0.319929551192158601047311,1168.99155071971858887991,1167.76510066164814816148,1175.94920442002398885961,1178.35018509951419218851,52.1935185282472460244207,-194.030694988123116218048,288.756781274832690087351,882.070704487249827252526,156.029105199621909605412
0.182499999999999995559108,0.165311747849489987238769,1.46825309949352988958537,0.496930821317935034198143,-0.0560714709282115683630643,-0.00964687097385838465690711,0.0181748143236064967076526,-0.00544112947297835641141672,0.00514063470607616611329771,-0.835233559732375341333466,-0.549843720139246761036134,0.044145502843244407986667,0.0422207861145916449330251,10.4490998977191864582892,0.0610880908318594054162709,0.0154215464786704829769359,1.00925391287743937418497,6.36158726144826136561505,1.96523735616968431294538,0.322449859852575737573233,1169.16105370063473856135,1167.18230406268207843823,1176.34506980561832278909,1180.38251105960966924613,68.781281018664174098376,-270.822076672220418913639,0.679404757238443735012368,706.980124654500514225219,156.025098105122651759302
0.184999999999999997779554,0.505300202991544211705843,1.55318833508996378967026,0.547813007909095817105083,-0.0537771169695165779378598,-0.00610590724208552333013289,0.0187228740254270289988803,-0.00541987363957910275175101,0.00519133803382610184429247,-0.835218081840025328155264,-0.549866883417381768772714,0.0429440321215046744152133,0.0364778180957294889674714,10.4451936668128890772778,0.0608972389177491399414599,0.0153143139308975790441325,1.01081861531026473421946,6.36150131377876526528325,1.96532316804815687660835,0.324973454685207219228005,1169.33545712481191003462,1166.41099027828704493004,1175.95260144381018108106,1181.88508572278669817024,51.8571616669305086588793,-354.609569402009242367058,-318.985514252335349283385,528.833323894377372198505,156.021094008903560279578
0.1875,0.803396091592505579015437,1.62104467552303588284701,0.584927028936058523989061,-0.0500045151677064036999099,-0.00173409013774166917941366,0.0198500202337507647420978,-0.00538480706329689043365683,0.00524715081351360013856011,-0.835210265268514495673458,-0.549878517296301216887855,0.0414250055061319427673894,0.0310202227560365598191261,10.4417857875292483527119,0.0606933004205002860076412,0.0151703335361583653562167,1.01237740658053998465959,6.3614166095368984699121,1.96540893448523590336663,0.327500802418508762947624,1169.42033950896939131781,1165.40925621567203052109,1174.75014223435664462158,1183.02667767908155838086,-9.21503446024870775943327,-350.76935177385138331374,-517.586937416262571787229,317.819846900647178244981,156.016299296190538825613
0.190000000000000002220446,0.957520520866330215881135,1.62477503313313142996321,0.574920421757046273825154,-0.0464824669880374782837684,0.00203342066972421247825209,0.0212386025770520577016232,-0.00533482303273082048011844,0.00530788313376270946136737,-0.835210792887018382835151,-0.549877609464114236459409,0.0395372585650880237206906,0.025870854225534343356907,10.4389066025143026905653,0.0604725365509145990072781,0.0149912052336257685392074,1.01393286107781399607575,6.36133298727610441147817,1.96549471874129477733106,0.330032485753992632648846,1169.28938195251066645142,1164.65714351941778659238,1173.36466675672886594839,1183.47418495728993548255,-115.561155883051370096837,-245.533607039214757605805,-569.611402916143106267555,104.583057857507711219114,156.01231721455098977458
0.192500000000000004440892,1.0357086354461924049275,1.54250647575914712206213,0.493953605407961016116047,-0.0431057656917348472336293,0.00621691937163146475520126,0.0231802454456543592653528,-0.00526748021418082818662088,0.00536485962534991728256628,-0.835221308803192896696999,-0.549861768945586248946711,0.0371152388892330986625012,0.0211748580166326756668571,10.4365828741183026551198,0.0602191274978986015864457,0.0147909895250989999182512,1.01548757207496143095682,6.36125106398703099586101,1.96557968388985049301709,0.332569662370791829797412,1168.84253372955413396994,1164.18158818047595559619,1171.90208521977592681651,1183.54959296836909743433,-286.420632431327021549805,-107.491797821876289731335,-589.880287873938300435839,-1.57666232921655913301606,156.008355057915110819522
0.195000000000000006661338,1.09254523683058080152364,1.31168631950239955585857,0.288991695586883368118691,-0.0401030400416619373094029,0.0116893052253970938791916,0.0260176020373563410270634,-0.00518630413883331732594062,0.00541186071147719757745698,-0.835239221193437741952437,-0.549834946765066057139393,0.0341328789540661856061199,0.0170922872480786490478888,10.434837203970401375841,0.0599294026359594098063432,0.0145867206343188813427725,1.01704299372901108000633,6.36116798231449553924222,1.96566539810355100925676,0.335111509587009859245654,1167.8572787903540302068,1164.11968453030840464635,1170.41526531735917160404,1183.46630164564385268022,-439.198412339237222568045,78.7141809494186617257583,-459.016222304080258709291,-18.9696576037021991112397,156.00363025996597343692
0.197500000000000008881784,1.15283599757922416984002,0.996366278551241157934726,0.0242742146794355795336173,-0.0386712509034644394412261,0.016000117388882541952233,0.0283255357110978080170671,-0.00510095076751342774157294,0.00544237488056745124381797,-0.835263596798553442646096,-0.549798517139329478986554,0.0306754993734848699360462,0.0138489774612114424634512,10.4336889462953159579683,0.0596096008664940349430772,0.0144021445551159692211041,1.01859971251901626487779,6.36108161080842915424682,1.96575281104807175758253,0.337657139245962301110637,1166.64654166785794586758,1164.57515908522304926009,1169.60700410825552353344,1183.45474468035058634996,-555.054066996671735978452,289.655498886395150748285,-203.00992690554249975321,49.9238270279874569723688,155.999722637234043531862
0.20000000000000001110223,1.26800917786507505446991,0.56029014349462347155395,-0.31508843025045940589024,-0.0374423021127980454325623,0.0190577116515403197083423,0.0293865584344954015871831,-0.00502091116641885642363219,0.00545570981991587780624009,-0.835291329971269536081024,-0.549757100035021539774505,0.0269004928072992463561341,0.0115577812083432762690904,10.4331546297274009305056,0.0592722043300513007357821,0.0142512425290813836420423,1.02015800254654709355862,6.36099285242628642578211,1.96584085663954799549913,0.340206516262521518889628,1165.08200845537066925317,1165.56796202474038182118,1169.40021568283145825262,1183.71592078078379017825,-741.794763649840433572535,542.969720716018400707981,59.8071397427247077871471,211.069333485556654750326,155.995851643812244446963
0.202500000000000013322676,1.4873840803279683164817,-0.0657747680578038423915288,-0.74740697293817615065592,-0.0349683816108838502190181,0.0205937306443860039528726,0.027852336162930584062547,-0.00495412017526244627396714,0.00545531567307127804311584,-0.835319841175608868155678,-0.549714496138884456399865,0.0229937870425764023796233,0.0102327251747728852071528,10.4332485977201905313905,0.058932285091897476658751,0.014139249018137310665022,1.02171804036727409403795,6.36090290694960458495189,1.96592907537961325559195,0.342759411534687474798488,1162.93756784960874028911,1167.29000768880314353737,1169.90603980696914732107,1184.51009134777837061847,-802.963701779707889727433,698.04696952387473629642,306.019640917201911634038,381.967837615729536082654,155.991255496582596151711
0.205000000000000015543122,1.73059893359064531637159,-0.632827611109414656098693,-1.07397640932110660649812,-0.0318428443671403618719928,0.0199112608015983121034775,0.0243919573277183825144032,-0.00490644773902113636582234,0.00544720782228430826926724,-0.83534691544838746146695,-0.54967395214116510082647,0.0191425880055092652309856,0.00981117107210903796610246,10.4339836277565023436864,0.0586051309790671798305439,0.0140649758828048990211279,1.02327997623226463197454,6.36081309502717751058753,1.96601717660957819866496,0.345315110238181788293588,1161.06718994647212639393,1169.05819687235975834483,1170.93031388741746923188,1185.62575996886243956396,-731.357061881771414846298,747.36139056831166271877,516.591480195847452705493,537.589740260272719751811,155.987471126013105049424
0.207500000000000017763568,2.01215476682711358336064,-1.19270741166151328371825,-1.31181285698614935597561,-0.0276323450793206151776538,0.0171562068771528852817454,0.0199678480671408170588066,-0.00488080322267605420938352,0.00543626411185202731979338,-0.835369273176214344189816,-0.549640373982285601606179,0.0154768674316474903751573,0.0102083518354256393145807,10.4353716571149064407109,0.0583005646891944645515693,0.0140264494993879995643482,1.02484408551692807165523,6.36072509117848650106453,1.96610356765918825594497,0.347874575907889005410567,1159.28078254019987980428,1171.02681464164470526157,1172.48899720794838685833,1187.19804004907973649097,-680.020151725469531811541,799.936787065875364532985,692.278274452477035083575,692.643166112569360848283,155.983739969793617774485
0.209999999999999992228439,2.30101207277929242778214,-1.70847111431305731521491,-1.45369110770952403299816,-0.0224878886678842454527327,0.0127168451169410532536341,0.0153087232454386309998817,-0.00487964991778611772987873,0.00542702565445453595505132,-0.835385956375434002296743,-0.549615148600436254078261,0.0121217041503376456168528,0.0113335304676868246775978,10.437424014737972655098,0.0580282067144806748548724,0.0140216747515225156894836,1.02641036462569967824265,6.36063943920964725009526,1.9661868023742954392219,0.350438323974537002669649,1157.66708918784479465103,1173.05788080768911640916,1174.39170525967983849114,1189.08897579942527045205,-589.900382971703038492706,804.9293967148552155777,815.291777935230243201659,809.88665182126544550556,155.980056998397600409589
0.212499999999999994448885,2.56731322636225911537622,-2.13684051250500894880702,-1.47503330152470146785504,-0.0163171554429551099452134,0.00664634004969200109513849,0.0106850239440465510920575,-0.00490313948162574876621367,0.00542592286682654946494697,-0.835397612910945386310857,-0.549597226256366311325507,0.00918982083424957352235651,0.0130305852758808952962521,10.4401514777991337723506,0.0577963907469493110014014,0.0140427052645026185367927,1.02797866050433639451001,6.36055698100256261540153,1.96626715512458116741357,0.35300634768600352986212,1156.33128062534137825423,1175.05146162521896258113,1176.56545609762451931601,1191.24747330818604496017,-520.211976297650380729465,843.021693345189419233066,977.442802218091856047977,973.193003567665982700419,155.976436704590867066145
0.214999999999999996669331,2.82449433157649298919978,-2.53033385314098913099201,-1.37889459519248402941116,-0.0079891342109287381834104,-0.00153088437226551045237943,0.00599492811285672923260481,-0.0049508238992065113637242,0.00543949952871645471541573,-0.835405970340427184162024,-0.549583922987058270948069,0.00679071950832275950116212,0.01512961621638165415904,10.443564387771907320257,0.057612590910082854545049,0.0140804728265390248498345,1.02954861156075749839545,6.36047858059090565063798,1.96634586791179311049405,0.355579163122625885318229,1155.06602930635654047364,1177.27298927441506748437,1179.27891927077030231885,1193.95494081726360491302,-412.366126872802510661131,771.256546927769932153751,979.212507453393300238531,980.050376718872030323837,155.972170310400542803109
0.217499999999999998889777,2.96635277410090258953801,-2.76239558080358760250306,-1.22150402297954707719896,-0.000355958324502362883495765,-0.00848880328819299166676071,0.00322350678296216787074857,-0.00501988062044628983310313,0.00547135864417535536935455,-0.835412540690463334414062,-0.549572934219974884584303,0.00496440711113025137657395,0.0174809293654825392838603,10.4476724918393273355832,0.0574764031089072952029895,0.0141279061949296132205678,1.03112007686777662485156,6.36040378128877748054038,1.96642393976267260136126,0.35815755336323545909849,1154.26944999097736399563,1178.9077443598578156525,1181.46151863489149036468,1196.14772519178040965926,-272.099156761441690832726,597.693962006132437636552,814.592193540192283762735,825.18905611132072408509,155.968683675111805086999
0.220000000000000001110223,3.01906064466637857890419,-2.91630893519855272089103,-1.01374929625480336703447,0.00767734729040945793054895,-0.0150496819400680933304093,0.00141436574381242040343576,-0.00510614292347328323218303,0.0055169987415763319799078,-0.835417472225843060762429,-0.549564117956728104275044,0.00363967944430416620593682,0.0200583995373254247995831,10.4524844620179990783981,0.0573750545608699494271043,0.0141897750965741323292413,1.03269341847559070757256,6.36033223928996171991912,1.96650181872323970289074,0.360742020330583279541514,1153.70553352254933088261,1180.26145908444573251472,1183.35188023847126714827,1198.08088609782021194405,-195.717110229452202929679,526.433180263802114495775,714.703519661269865537179,754.483304682207062796806,155.965272470368944368602
0.222500000000000003330669,2.98021303374333035307586,-3.039914042614329403591,-0.728356396087209367884441,0.016829463721859273112047,-0.0225125729552384523657338,-0.000390097385031631146545122,-0.00520964445076334270456897,0.00556835000926004901333766,-0.835419137271871337091511,-0.549560027760169544919222,0.00278245375449866216843731,0.0229459239965698127972082,10.458006627367199214973,0.0572978972268536682066475,0.0142808510953571794060979,1.03426898140964818040288,6.36026182621576907649796,1.96658062140577527543428,0.363332254883520666677299,1153.29086443983010212833,1181.53991026117682849872,1185.03503623319784310297,1199.92014171519144838385,-101.725613679218355400735,412.66856380157116745977,486.356911999291241954779,578.72946501161038668215,155.961270636420522350818
0.225000000000000005551115,2.87296036618449379673734,-3.1053234493747630118321,-0.466529660921463362743822,0.0238088262541188006027326,-0.0288695568518567424742827,-0.00189512955974043169338206,-0.00533329291174224843358198,0.00561177371755100778266678,-0.835417864300667112331666,-0.54956027088064007823931,0.00234902250440796947494881,0.0263603398127907062598041,10.4642416932896047399026,0.0572321424888673352393553,0.0144269437337369091367556,1.03584760398916175816453,6.36018929855100534354051,1.96666117400290496597393,0.365927424044151572424255,1153.19690545415323867928,1182.32480190345359005732,1185.78366479846772563178,1200.97453342287826671964,30.9357182512030419729854,260.831461193992936387076,134.213196224845773940615,316.978686684342108037526,155.958015092346414576241
0.227500000000000007771561,2.70390156057306452197508,-3.13191334810283983358659,-0.18254888426680732083085,0.0304138037051096092600044,-0.0358277406369557696597106,-0.00329025339937651616073477,-0.00547488301012850550608668,0.00563598631352350571549481,-0.835414215400975823655472,-0.549564125130582947775792,0.00223653618765352890651599,0.0304228093751130190813825,10.4711869009960985010821,0.0571582835674668623959782,0.0146424362179848957521422,1.03743140068294592559539,6.36011216665498224642761,1.96674290797462170132803,0.368526956802249450184661,1153.4455430310861174803,1182.84406756714679431752,1185.70610221432207254111,1201.50503514861316034512,211.763633780856054045216,174.648997344956882216138,-234.567998651618637495631,116.90733822065330116402,155.954845156490648605541
0.230000000000000009992007,2.44772980833712860970763,-3.10399330783862037463905,0.173356534609160617410595,0.0378539261448930797193668,-0.0449529132938051509404964,-0.0043143750032970315522185,-0.00562645742128657817826554,0.0056342427768567770671182,-0.8354107067363680805272,-0.549567908564298601703513,0.00229538118283998185398254,0.0351149628096389387899023,10.4788325906698442935294,0.0570520673151705196013417,0.0149257163040890233896008,1.03902384898048394390457,6.36002970379107956944154,1.966825295766324810387,0.371130215514854810976431,1154.25572362305751994427,1183.19804689017837517895,1184.61082480520963144954,1201.55907011398153372284,396.68728971787425052753,90.3817542298837963699043,-552.225575746705999335973,-70.9896662459413505530392,155.951143685635997826466
0.232500000000000012212453,2.20332589214817575751226,-3.01773271173469259665012,0.464337948386901622210843,0.0434131950501947735943098,-0.052893596985316565506352,-0.00390825626895140339212009,-0.00578178459649498436428994,0.00560462951588634392119381,-0.835410400369646533036416,-0.549567046088423549754509,0.00246143625964204831868543,0.0403600297820346370913924,10.4871609076744842781181,0.0568982970047645988942442,0.0152679622221792623409931,1.04062894795632754352255,6.35994125211136118736022,1.96690808588006005308557,0.373736137657890654661941,1155.42897947967549043824,1183.2959763382962137257,1182.94497433558854027069,1201.15008681738345330814,580.854319017680040815321,3.5279755846204321478865,-774.743937903485175411333,-249.313756396759117706097,155.948146841098520098967
0.235000000000000014432899,1.94337914878018680475691,-2.85720038148813326728259,0.718065109622815667123064,0.0485037413813759893388422,-0.0607311787628371860248144,-0.00155515964690575896403613,-0.00593312602704222386701405,0.00554529129363675460373528,-0.835416323329010723774957,-0.549557034915554187826103,0.00264213011037911504885756,0.0460689882550799761906646,10.4961447168309511823736,0.0566803258265484027900172,0.0156585396258649839351662,1.04225162983168928576561,6.35984782733541997856719,1.9669900949058605199582,0.37634395023667666091427,1157.15999521814592299052,1183.21568676810147735523,1180.73710511569220216188,1200.31250133199773699744,780.517616098131156832096,-59.5057643891322598506122,-922.089166251043138800014,-398.364161371818795487343,155.945243606080680365267
0.237500000000000016653345,1.68383129742185810862054,-2.63755250900541371450458,0.920263593772113086544095,0.053199013961019392393581,-0.0680070944908036656428862,0.00182748254477482188935789,-0.00607388681626829050191896,0.00546393658566147674693347,-0.835428497535282921226951,-0.549537827318845262247748,0.00286945487285655137510432,0.052002810481045630419672,10.5057467290037234164402,0.0563958291278250228861779,0.0160726782405531953834554,1.04389686787286084523885,6.35975193993847920381768,1.96707038026388758567009,0.378954186455264185884317,1159.33156756016614963301,1182.99844751635055217776,1178.33452850433332059765,1199.1582660105243576254,952.978812522182920474734,-120.557533631063620305213,-942.140415121416367583151,-524.848565620143517662655,155.94241975459678428706
0.239999999999999991118216,1.44478820978355715354269,-2.36119365780425383150032,1.05286635582401144617393,0.0571263789841557831361563,-0.0740416343098448809234569,0.00509632177571133545418425,-0.00620307647379495560174822,0.00537306603771278354364505,-0.835445314675738126553028,-0.549511747622446589112144,0.00332061486103669978309227,0.0579061741053388950861702,10.515919095405664052123,0.0560594936750333991404283,0.0164851132308425178674138,1.04556910054351903660574,6.35965580963944976389257,1.96714767575321358705764,0.381567468065809767274743,1161.92488928075681542396,1182.61289909994616209588,1176.0264030400851424929,1197.68825850389703191468,1188.72813545463577611372,-212.956321598268090156125,-923.597417123032528252224,-696.899562593720133918396,155.939693574140534337857
0.242499999999999993338662,1.21296351255204148955613,-1.98994239595932098652042,1.14410965304048328761155,0.0606561215807439185754291,-0.0798949791628697780776491,0.00826324207422689596680421,-0.00632284760639685756988815,0.00528704053328364880631751,-0.835466628155332236005393,-0.549478849165949467803216,0.0042388394716166497011578,0.0635294515112156260583376,10.5266033244240038158068,0.0556955794404066784064611,0.0168721313430547359413225,1.04727239995743115485993,6.35956060222595631614695,1.96722127150270287287981,0.384183117179731303814094,1165.27520823743930122873,1181.93366590835921670077,1173.71654141871817955689,1195.6737681975557734404,1220.35276829114877727989,-287.892397437781028202153,-740.68378328120093101461,-761.606863454971289684181,155.936537370993221429671
0.244999999999999995559108,1.08867655883129610394633,-1.6648896662531065260282,1.17903562804975847733147,0.0622976147529955212589492,-0.0840912426799015344514032,0.0105815738731034822417421,-0.00644280964340162350806329,0.00521551474614057562761982,-0.835492904985344675417025,-0.549438212641126577651107,0.00593105316050668296412596,0.0687919542241987036490514,10.5377300593123912619831,0.0553376305695557346719937,0.0172283231128253291886132,1.04900998768842179664773,6.35946790157139663079988,1.96729141922006345311047,0.386801700006852045010675,1168.0266531222125649947,1181.173437112757255818,1172.32298412367913442722,1193.88022418662217205565,1032.34483018982155044796,-340.456185605625876178237,-443.568850804694704947906,-721.840268563027393611264,155.934004744849772805537
0.247499999999999997779554,1.05230554661988628950553,-1.33978963431464581645969,1.18583477069199272335709,0.0627303573895689470241166,-0.0875850582475256322911861,0.0128969230803861970718893,-0.006568486523028172971439,0.00516522176391853281990363,-0.835523577015384488753114,-0.549390570278694867489833,0.00858321564309057552510929,0.0736150279302030113859345,10.5492201030796479699347,0.0550098069830444735828223,0.017550460393681289322787,1.05078521179804584839701,6.35937948509916051165192,1.96735768833493906981857,0.389423580487033738073421,1170.43693238838841352845,1180.2313849803310858988,1171.49869716469470404263,1192.06456685474063306174,925.868026509396372603078,-436.309806600638296458783,-262.639496039400683002896,-790.208197499486459491891,155.931575202259494972168
0.25,1.09539671261767068699555,-0.965751201865773456489705,1.16833019667115722839412,0.0632588579105949067038495,-0.0907515047326324375553952,0.0160022221986025267592701,-0.00669995795606392972182386,0.0051378857814177716564763,-0.835558246304826557349088,-0.549336509501414549383469,0.0122102541121986325756144,0.077941785735386112654588,10.5609857479569324567592,0.0547215475292623168557249,0.0178390946396338560819839,1.05260153883396601059985,6.35929639382502287503485,1.96742092192414141926804,0.392048503457346542155904,1172.65599325475955083675,1178.99188807975406234618,1171.00978664348212987534,1189.92918319912473634758,679.740638867223765373637,-448.249086713257895553397,-133.093445928125106547668,-770.505808801225839488325,155.928781871405817582854
0.252500000000000002220446,1.16288228459909537271244,-0.678085103210255835115561,1.1321313750717998392048,0.0651478959876984897725549,-0.0925733009444677928945211,0.0190022999118008469043861,-0.00683672059719851038517291,0.00513311064725019503690584,-0.835597675591584820864455,-0.549274883080603015805821,0.0167741999862794435860458,0.0817417760043508134781831,10.5729324714039911725649,0.0544788665177680722639941,0.0180984445401748648973861,1.05446169367272646333333,6.35921890217018503932422,1.96748283291377368264818,0.39467592733007150762603,1173.83563558272453519749,1177.99013954676479443151,1170.83322993505407794146,1188.21203781073450045369,335.81917334149665066434,-361.013017925915505657031,-67.945128492101446227025,-667.869421888280498933455,155.926558921143964653311
0.255000000000000004440892,1.19030807253426007541464,-0.425795394349239575415567,1.0733624349062353964257,0.069260065447380309011649,-0.093647258251894530123316,0.021962170620214688243621,-0.00697851104108331617842387,0.00514528168101828411312715,-0.835638992700777238908927,-0.549210117724498347868689,0.0221618710854149109090727,0.0850738395478437270380567,10.5849609563789766042419,0.0542814048109577715339746,0.018342985481265911690274,1.0563674017916246938853,6.35914615761426560425207,1.96754349808139039623711,0.397307304904979674553545,1174.33508912146703551116,1177.1868229901244831126,1170.67006100102162235999,1186.58983608968333101075,100.845495586872772264542,-275.037125583957958951942,-103.864494460321935775937,-678.890548961998661070538,155.92444955633442305043
0.257500000000000006661338,1.09796214520998791641659,-0.172108031179264570065257,0.982554870567702964834211,0.0754784192726879049617494,-0.0941850415828017484276558,0.0248733525325989003607052,-0.0071257035194540732300772,0.00516376980539040922324467,-0.835678911818623193497046,-0.549147310594281456985755,0.028195486141413081404572,0.0880889319272008253225437,10.5969695825284837553681,0.0541232100837639520940492,0.0185964238005156302924181,1.05831913855838832816403,6.35907645367101892475148,1.96760256127185861885209,0.399944829218011665972199,1174.33986306065889948513,1176.61495391884500349988,1170.31390746275246783625,1184.81758506592450430617,-52.4412066897184061531334,-129.880964665153328496672,-164.791385450052842998048,-607.083279249763450025057,155.922056618359931690065
0.260000000000000008881784,0.885511492230013352866536,-0.0043181137746096344073865,0.896327129439483338835259,0.080271330528005432891625,-0.0940903913258487462067947,0.0267452858665146869787677,-0.00727547787848120078996184,0.00518067459140785814553087,-0.835713740036916896691821,-0.549092197143078997179089,0.034656505900300296763028,0.0908498273712496640097669,10.6088579299400258548758,0.0539946702008956280760543,0.0188730945542282396720779,1.06031636440606047422364,6.35900816209597152806055,1.96766003460092719912211,0.402589176967939610385372,1174.0728830880184432317,1176.53741816679871590168,1169.84610407377135743445,1183.55441969343451091845,-100.23024974288992439142,55.6883384946103845436483,-210.47667146240181068606,-444.360691418568933386268,155.920183808812026882151
0.26250000000000001110223,0.535955360409399172993972,0.119721928339468833280002,0.803316437499376756470326,0.0833278191318126415509937,-0.0935909768259553659364158,0.0283433815597753310799867,-0.00742016519102670166901925,0.00518889098165126183559437,-0.835741170619336282143763,-0.54904846096233417274135,0.041236380287317131454472,0.093347679231598049143237,10.6205297381808421164351,0.0538772256711820968222426,0.0191788296141824389506869,1.0623579965314631223805,6.35894027390250382580916,1.96771552528601656462115,0.405240412628659174565371,1173.83871181194444943685,1176.89339561131805567129,1169.26152410544045778806,1182.59578160883165764972,-42.5409891068283840809272,208.401924855342969067351,-232.489405612250067179048,-325.219341337333105457219,155.918445283575294979528
0.265000000000000013322676,0.099852649779057015000383,0.2127195013754186458943,0.702846230353823209213715,0.0846122076810540274527384,-0.0928430083679738643587243,0.0298577816791253843053955,-0.00755454783267671316909775,0.00518806560715927983507001,-0.835758746933552343350016,-0.549019916759663106908818,0.047738126489230217619486,0.0954827359523381519190721,10.6318947152538729739035,0.0537630000566703195041818,0.0195089896191305775530189,1.06444172565306027777865,6.3588717686381803773088,1.96776910823552575457995,0.407898091036905330319939,1173.86017814248430113366,1177.57942779107543174177,1168.6836570457101061038,1181.92832298674784397008,113.680186815281459189464,340.91554040855925222786,-197.778843408104705758888,-197.665023439276239969331,155.916825227478966553463
0.267500000000000015543122,-0.393567536981669297002639,0.279891420374316191033159,0.585806276788709112679499,0.0839569422579504176518128,-0.0920310496683896944736247,0.0313720851840845263436286,-0.00768050644260555824549552,0.00518375037290846624876695,-0.835767387137068440416954,-0.549005086619013482618357,0.0541538701598830718442201,0.0971360780178566890485925,10.6428694536815644511307,0.0536623759193247951149175,0.0198548268822885988493798,1.06656378415799135694897,6.35880153593458263827642,1.96782191888644408805931,0.410562224866058478323083,1174.40711274602085723018,1178.59797331336085335352,1168.27262988839993340662,1181.60745649163527559722,392.976618725878893201298,506.799509474376009166008,-102.315823062190162318075,-75.8738728778097737404096,155.915357340412811026908
0.270000000000000017763568,-0.990205327120380007777101,0.35095732800605322632137,0.413872551339871275200011,0.0812930305211616993643631,-0.0912805797719635214626521,0.0333053415770223348868484,-0.00780116673539430448280907,0.00518045412391945035712748,-0.835769741884295092049229,-0.548999851681822192972504,0.0604834344370099447063538,0.0982267314887563663949877,10.6533792866603569393646,0.0535855155232487501137939,0.0202094705150805339921583,1.0687199812234313700543,6.35872856144048359539056,1.96787491108647905058149,0.413232314730923866452628,1175.82506123611369730497,1180.11342533844731406134,1168.17207793039915486588,1181.54895362235879474611,647.378105957977254547586,591.98986202409230372723,51.4086833380133185755767,15.6275472770630443619666,155.913783193640028912341
0.272500000000000019984014,-1.45208872042989400874546,0.417613315601622625550249,0.238221574048043976956635,0.0776825833981781704862257,-0.090865560121792018910547,0.0349285707021029095953324,-0.00791647569201635661895189,0.00518157610743650264006899,-0.835768048144051811654265,-0.549000781859276254515123,0.0666575784640022483973354,0.0986633174491183262411198,10.6633602661296382763112,0.0535344557507710927524158,0.0205634809019052539058592,1.07090631981018069573963,6.3586524123924998974644,1.96792872544833730152902,0.415907501615598751421032,1177.64400327581074634509,1181.55792262348131771432,1168.52967330509000021266,1181.68559422802059089008,833.894538791354648310516,598.947769960704476943647,249.397229261648817555397,72.1150949037564004129308,155.912634741166300500481
0.27500000000000002220446,-1.84186871722766820624884,0.505049844947922266236162,0.0320327160560001308886591,0.0729086079634794492765337,-0.0905154173203814721437865,0.0360629865679454736371312,-0.00802628690966683891461209,0.00518962176872751583533994,-0.835762211195269055785673,-0.549008008237276023955076,0.0725978975805699755508016,0.0983784680004411715703583,10.6727595573442144427645,0.0535090489043937508895077,0.0209086691350810552347816,1.07311866288625723520056,6.35857396195733493016178,1.9679835633877147405002,0.418587615400928925168955,1179.99453393007047452556,1183.10816418825083928823,1169.41906407670740009053,1181.90952909687757710344,1098.78392686136885458836,678.65158034805915576726,513.601601029722132807365,103.564511119338845901439,155.911663114719061695723
0.277500000000000024424907,-2.20150716155592629519333,0.635892721946434869018105,-0.229805824013410625594744,0.0665675660164946059182967,-0.0898422990308549024307538,0.036164639115916920319993,-0.00812628648332750815053149,0.00520419122522132460151312,-0.835754526016120768971973,-0.549018111493529303857031,0.0781242197801518822863898,0.0973195930339097459160769,10.6815366418965425054921,0.053498000700999734369212,0.0212364052348097132050242,1.07535316597063412835666,6.35849450913838332155592,1.96803922920909424298941,0.421272883626273519919181,1183.1379229101175951655,1184.95118052522161633533,1171.09768131023861315043,1182.20341678361728554592,1152.33753454567590779334,644.171858005483386477863,706.235427325099635709194,111.266560844296591881175,155.910708347330171363865
0.280000000000000026645353,-2.40185064512624135701913,0.756915941366438249637838,-0.436697534869130599144427,0.0610919334872994726493012,-0.0887799797287537745260622,0.0350901049843355128388112,-0.00821222186777989873740502,0.00522449113819651971002411,-0.835750379981308522125971,-0.549022967632397884685247,0.0830617214090387939728899,0.0954551803507055068864773,10.6896626129704586105618,0.0534897459835241909087422,0.0215380831040573247903147,1.07760566992103523631386,6.35841495232871523057838,1.96809495772622700116017,0.423964376688682642591033,1185.75622160279885974887,1186.32902347827825906279,1172.95024121333290167968,1182.46586190109906056023,980.148563680903862405103,478.033443568073892038228,811.716308399353920322028,120.265306922783452137082,155.910092504776855548698
0.282500000000000028865799,-2.49183025656760648303134,0.867377116907630307807153,-0.603887311191364295481776,0.0552357579393372086218328,-0.0868769601807802271942194,0.0331935394830679825206587,-0.00828501808599913652786384,0.00525329054837979109865431,-0.835753586898997147258683,-0.549016737264617860070359,0.0873798729953263186853718,0.0927651035061423934191538,10.6971184767256186631812,0.0534862127685719196401593,0.0218047621215213989487314,1.07987104914338982730726,6.35833520805394414310285,1.96814958910009485393289,0.42666275052282093271927,1188.038665728522119025,1187.34134774306198778504,1175.15626285223538616265,1182.80474331823120337503,859.437502014861024690617,321.213500783460119691881,1015.33898310922177188331,189.192715988110478519957,155.909666509139071877144
0.285000000000000031086245,-2.4639914059826564241007,0.95455135784221267769567,-0.735956408504803594183841,0.0477445504550261246023979,-0.0834908952834538531373454,0.0305497689672294334140012,-0.00834699074241492672276976,0.00529270681849078154790345,-0.835765682546224741855667,-0.548997035002180555629536,0.0910771526125929431483286,0.0892725086813403179153426,10.7038947428858453037037,0.053491059949128706707544,0.0220303641808833397530698,1.08214388255367710556243,6.35825616549726113646557,1.96820206786307161372918,0.429369717085646362964013,1190.05340911287316885137,1187.93509098219556108234,1178.02693612887901508657,1183.41182548103961380548,583.594699213471699295042,101.576840838333652072834,1059.47866588762644823873,270.276922461016283705248,155.90937686708065257335
0.287500000000000033306691,-2.32385890220191138055839,0.969422579126150929518246,-0.780964385875450251006669,0.0414165072099806422234458,-0.080038761938160687958721,0.0281904056966280520957202,-0.00840078401613858147256586,0.00533821358881391653389281,-0.835782624430674192517188,-0.548970016478757760758356,0.0940925145559189796129473,0.0851391267499681525521282,10.7099903612888525117341,0.0535002064063216792311195,0.0222217938111528776068404,1.08441902493395025963707,6.35817733865356160549709,1.96825200019354906721958,0.432085844811685715338712,1190.95663922458948036365,1187.84923194725365647173,1180.45365618167352295131,1184.15612793053628593043,183.153595192654449874681,-142.037383547996427068938,944.424112055604041415791,352.244892225920864348154,155.909320561460191356673
0.289999999999999980015986,-2.06549703158376596334733,0.915626520569016610906488,-0.758631129656399894045649,0.0352994287304534554161606,-0.0767540130496278533156485,0.0257563277802533574512012,-0.00845248807983208644278861,0.00538504063655735349530618,-0.835800153214845575888603,-0.548942115185714785141613,0.0964386878590727802951221,0.080587719610597866037871,10.7154101337496161505669,0.0535152291679540995095188,0.0223903247350829177897413,1.08669158497625240045181,6.35809734057158770781371,1.96829992747262005892139,0.43481145561273865096652,1190.96917708883643172157,1187.22490406445558619453,1182.74905668915698697674,1185.17304994216920022154,-135.274676748350913157992,-309.152839738957027293509,879.362745741909634489275,443.678124736293284513522,155.909455773978322667972
0.292499999999999982236432,-1.72054770663393052920753,0.812244022898380380048877,-0.687760748425949586248862,0.0298594545428830134004006,-0.0739961778267797520847182,0.0234702670198402296719564,-0.00850680041100056009983899,0.00543051746611125825403565,-0.835817261659751786773143,-0.548914813652346178507457,0.0981445637276824045525103,0.0758022634292879748940663,10.7201632613990920361857,0.053537512394504792323513,0.0225411920263846807244157,1.0889579779935989467532,6.3580147213737481237672,1.96834652481232330600847,0.437545787025301946560063,1190.28026584084773276118,1186.30346774855888725142,1184.85046991038302621746,1186.37451855421772961563,-412.319131756521187526232,-388.267895906801300043298,788.893163999409125608508,502.451000256268798693782,155.909748692253543822517
0.294999999999999984456878,-1.29830672833139226796106,0.671017859434736796409027,-0.575800077809090149472127,0.0260402438449215331561781,-0.0720039602201053979824152,0.0217306898617939982243374,-0.00856465125908735178117404,0.00546940703995022359934497,-0.835833861183581161569123,-0.548888278174471055947947,0.0991576350257250827002764,0.0709817646281137859531896,10.7242613070691952259494,0.0535580954754512825188861,0.0226798747194620134437493,1.09121680262080467116448,6.35792839940927212438737,1.96839207464713705775239,0.440286491182908745756208,1188.90758143005382407864,1185.28356458492157798901,1186.69352250915403601539,1187.68530494345054648875,-698.095582173072557452542,-402.716960300585583354405,765.69626031532538945612,565.090805399631335603772,155.910229636634767302894
0.297499999999999986677324,-0.747565082743248621177656,0.494499560944859917199778,-0.423734887591312170407321,0.0234827810775271698939815,-0.0705704103083081846214952,0.0204455770924566043733606,-0.00862862911504362617431951,0.00549729682586957545814554,-0.835850325120993220551213,-0.548861938318251474377973,0.0994810609868396478194796,0.066341029253221273087604,10.7277140446430863107707,0.0535716247621959712477135,0.0228129196133362438514425,1.09346842139015221206932,6.35783831490854556278691,1.96843732035308027761289,0.443031181291270725886022,1186.78978792998236713174,1184.28988294705595762935,1188.67895121195965657535,1189.19997258121588856739,-801.01901122029562429816,-288.26558205987538485715,710.837980177984036345151,519.61562175165408916655,155.911020350445966187181
0.29999999999999998889777,-0.284455007986288366250704,0.368577939236465201844339,-0.304787967704352180664529,0.0225754057325478381390571,-0.070050183064136337107719,0.019976149977420497305669,-0.00870124860839362537778818,0.00551117515931429970132971,-0.835867576613863016987693,-0.548834375199539148404426,0.0991490942746770520521693,0.0620769393470545424729146,10.7305270551955072022565,0.0535741277052627987154132,0.0229452899848543029337478,1.09571507074947938065179,6.35774518205690952754594,1.96848325860749007176764,0.44577757569382026048288,1184.90248637395234254654,1183.84223667462219964364,1190.24771241004395960772,1190.28338305220881920832,-720.08977542350226030976,-83.4582474801208462622526,634.37343435257332657784,371.729129076129197528644,155.911853756988875829848
0.302499999999999991118216,0.150069422561022541851017,0.290822242572842670771394,-0.216219617020269566642909,0.0225505284136633225855473,-0.069985279956908036380625,0.0199720103218313516091342,-0.00878475314971663250041001,0.00550925901078807688654448,-0.835885286854688658308987,-0.548806069538660512563411,0.0982205355290020343250745,0.0583655718190647029852691,10.7326994924378240625629,0.0535626139236184128922247,0.0230811131733109700658879,1.09796045859308311065661,6.35765002842114235193094,1.96853115536950684649753,0.448524094310278786945645,1183.18933905286485241959,1183.87259170965535304276,1191.85081838372252605041,1191.05861822659653626033,-662.192705101915066734364,103.045166182528106446625,725.938928159711622356554,251.266683281255382098607,155.912863209806516806566
0.304999999999999993338662,0.605181520226960478758826,0.270568825272739621468077,-0.160132979967669952792164,0.023767746807902494221576,-0.0701255492109700562242125,0.0203080123609522232575042,-0.00888163336036627837355439,0.005492838545990947653197,-0.835902032290806173975284,-0.548779135265836437440612,0.0968085253908720078097616,0.0553311286872835081385169,10.73422227850700139129,0.0535386815443369759592862,0.0232211134892038387200763,1.10020895234528648387595,6.35755366424004098035994,1.96858139481852534302675,0.451270628495228809384798,1181.5915228484427643707,1184.35746250553484060219,1193.87740705084252113011,1191.53971646861509725568,-489.548774779131690593204,217.011370421277916875624,751.216304716671629648772,94.2694803388802995414153,155.914271102629356846592
0.307499999999999995559108,0.906214356878756288615762,0.316792955475335702431039,-0.156857554354125988682611,0.0259369770221886501715414,-0.0701978457543218498093651,0.0207257852953747420676756,-0.00899206725157772335244033,0.00546459637985742281013346,-0.835915704235788314946376,-0.548756753191236512634532,0.0950130238083507355772994,0.0530416099309498553782127,10.735078082890051831555,0.0535022844152573326392819,0.0233625900660477392456471,1.10246506425763390879524,6.35745741246253714962222,1.96863300803883212175549,0.454018124675478473850632,1180.74159517896919169289,1184.9576485617617436219,1195.60689990730588760925,1191.52996562829093818436,-236.83928877185260830629,228.975898717044202612669,666.880144344440282111464,-88.957100328070652039969,155.915602336172497643929
0.309999999999999997779554,1.10278876510496104401682,0.41831989624324306120684,-0.18793014529143062252281,0.029131061849408633468439,-0.0699400295690884021837519,0.0210715203996318239942909,-0.00911764942746665259243333,0.0054288599615079820293051,-0.835924600348377233594022,-0.548741445746211753409227,0.0929884731665554520319006,0.0515439776053105841446822,10.7352409646510942309305,0.0534593348386197611543658,0.0235032069903924542564333,1.10473223616115401313209,6.3573634445818081317725,1.96868416164147230773551,0.456768841112673185111959,1180.40732640458350033441,1185.50234199912006261002,1197.21180777256472538284,1191.09493096697474356915,-57.8431888234262672199293,173.271143452075051527572,585.030960522453256089648,-235.892927539361863864542,155.917089972307394418749
0.3125,1.20232729443995345341989,0.54931067620642315407764,-0.22966759637839420649108,0.0329887507750054390087691,-0.0691827338699597532700736,0.0211281398070399806243813,-0.00925419585409367057016183,0.0053896365373755361627417,-0.83592788733093148501041,-0.548734508539538756721754,0.0907889162034873631323961,0.0508106851242227722242895,10.7346791496017957001641,0.0534061572193142569675572,0.0236356203375044995884657,1.10701315677730161013415,6.35727367655588704309366,1.96873387163306712288602,0.459524575866642026600317,1180.4523792348520601081,1185.82400427902211959008,1198.53205470991815673187,1190.35050099059412787028,89.6575039983416957056761,45.6514838450857070029087,415.421530341381753714813,-351.171628909105209004338,155.918701269462900427243
0.315000000000000002220446,1.18648075008662456930608,0.688523092247061097026517,-0.252935086596958513815991,0.0370010942938922005041036,-0.0675685547379121786981671,0.020435637239000901954622,-0.00939451010324372434712181,0.00535145733697241048065774,-0.835925190778526117085789,-0.548736585433803103484252,0.0884249544727006009381398,0.0507536237227893330392625,10.733356444966162257515,0.0533352982125648855671329,0.0237489087053212345745923,1.10930916690038694483178,6.3571885297226620181732,1.96878223001760477295363,0.462286280679981231855891,1180.85561392457520923926,1185.7305994183454913582,1199.28891542427163585671,1189.33907282242921610305,231.728625847881431809583,-151.292940691791812923839,164.564865008151031133821,-470.277351415279156299221,155.920453955095780429474
0.317500000000000004440892,1.05805653673102595391242,0.82817045235475306164119,-0.215861351157319386606659,0.040632221386056328882308,-0.0644819207637040980873877,0.0182736522464235981444425,-0.00952986469984199759120091,0.00531836611635988065066583,-0.835916315326638792448932,-0.548748081098605733352258,0.0858759669039556583491901,0.0512568862600842820032021,10.7312346458552898553762,0.0532366391491339713271103,0.0238317776596883926232273,1.11162005385917472821689,6.35710707603299507439942,1.9688291221588076762572,0.465054140712855168526829,1181.6110223640914682619,1185.06753957556315981492,1199.35487903495891259809,1187.99911423351773009927,303.156358212254133377428,-327.007751190057831536251,-122.801165309510793122172,-483.947928978659092535963,155.922710095540764996258
0.320000000000000006661338,0.887770795534015610961376,0.901094556300301552376197,-0.108510902530414621303123,0.0421732897928043873325699,-0.0611441926001190447226286,0.0156652972019809197390394,-0.00965645430539868385166891,0.00529342084348519495429208,-0.83590073554469246364107,-0.548769829927319596762914,0.0831978095972173009586825,0.0522595800132231308454678,10.7282753830041137632634,0.0531084111379694009946739,0.0238809976213722394144945,1.11394336913363156682522,6.35702798685702674674758,1.96887490974001111432301,0.467829393522583070197385,1182.37139571563648132724,1184.09556066239520077943,1198.67490959772408132267,1186.91933317753591836663,313.024412167805792250874,-446.061824546086029386061,-407.163872213959280088602,-393.87913880695998614101,155.924709550814696967791
0.322500000000000008881784,0.681028735221341663397254,0.921497386969793330635525,0.0760168180657266046029719,0.0426719998406936834589587,-0.0578308859344490583387355,0.0137552026830396190160144,-0.00977499729122660761249097,0.00527847398135920103934282,-0.835879624038651014572565,-0.54880001564562119753532,0.0805110554780475301539511,0.0537539166386197669877944,10.7244431484312947588933,0.0529561991017163113948385,0.0239007946604332388584879,1.11627466169766864645396,6.35695135317162929311507,1.96891962309533985475696,0.470614445731115826898616,1183.17614442493049864424,1182.83723045283272767847,1197.31905967388911449234,1186.02971853948292846326,347.979550694116994691285,-566.152004999457403755514,-710.895184565878707871889,-322.757421623191191883961,155.926822734457118713181
0.32500000000000001110223,0.402076826382169794094068,0.901974376628771334907242,0.341457586008815427991436,0.0432277361359519121664086,-0.0548113039613576658037886,0.0138322387247771204366042,-0.00988882172263222218588918,0.00527402066349750512502803,-0.835856168844777980275751,-0.548833722146824021237421,0.0779631088063559296585936,0.0557649270953606904233091,10.719708265613151709772,0.0527891122039292406964428,0.0239006105815067794451156,1.11860812908030338164167,6.3568763917370523230943,1.9689631167838090863853,0.473409626205707478874274,1184.11129346910706772178,1181.26480063739791148691,1195.1204336748946843727,1185.30554606941996098612,327.75933767670693441687,-542.885450784342083352385,-865.480588546232979751949,-200.92150355667382655156,155.929477648481963569793
0.327500000000000013322676,0.13659066052058876916675,0.8715580822449237041738,0.550178431538917322995985,0.044308832639178924450718,-0.0531038219025545751850181,0.0158984673109965231330154,-0.00999733291702760776265002,0.00527662909687346640824623,-0.835833998592175664299475,-0.548865471357835366106315,0.0755794970716516523179251,0.0583196496489297028231746,10.7140502178088645734988,0.052604150094019662409206,0.0238920406781029590059795,1.12093801230053902173722,6.35680248049937546284127,1.96900511427702040734289,0.476213433240437855609173,1184.81494111331403473741,1180.12280319891101498797,1192.99165673115794561454,1185.02511102169955847785,255.920287800654250531807,-376.304141425225338934979,-873.077725462598323247221,-52.2727882006619850585594,155.93177997386294464377
0.330000000000000015543122,-0.17552249170650632836832,0.852622466324263861281452,0.692642484889653298196777,0.0459285130521463955122208,-0.0518276662837267587669032,0.0194830793443630037597991,-0.0100976418187612819454824,0.00528310341269638480965476,-0.835815902521522269275067,-0.548891106102534109822955,0.0733411753390929704865542,0.0613924181044211564328705,10.7074586716370188099745,0.0523940688636607004857737,0.0238831705802134836025274,1.12325885520756263424857,6.35672951536210639744695,1.96904625058668170112242,0.479023873140527023384294,1185.39089490811034011131,1179.38327993027178308694,1190.75504504758168877743,1185.04418212841665081214,216.619192869666022716046,-204.426918983517509786907,-972.533067013818254054058,48.1683594835430568537049,155.934164822547757012217
0.332500000000000017763568,-0.596295882379265562711623,0.861040334935264217719464,0.757838858257198433321378,0.0469440570402149329187758,-0.0504697950802461756114603,0.0239111997326793626617025,-0.0101841150402750147546671,0.00529053012545154487111798,-0.835805232076330506529871,-0.548905662104081093488617,0.0711764170915513971760191,0.0649006423451525538137474,10.6999346519991469506294,0.0521466297495229991199039,0.0238776694917803219975205,1.12556582417340922397386,6.35665741758114144488445,1.96908755754541475724295,0.481838830158220821076043,1185.89803707766236584575,1179.10066860399342658638,1188.1289913960888497968,1185.26595281911727397528,153.713891565621310064671,-5.38813440894045481144303,-933.945166949978670345445,81.9401713661135744359854,155.937110849001300039163
0.335000000000000019984014,-0.955376142279355300424015,0.895138968886797115054321,0.731387339554806614749793,0.0457891137895470867746894,-0.0491912332735997062660438,0.0262735782871570504315439,-0.010254850349208319629235,0.00530072611125783407087786,-0.835803395742937049739396,-0.548907017709921674075702,0.0691282607645471169899309,0.0687033590334697602530767,10.6914900029721504637337,0.0518621437340231958290637,0.0238746667652037503071227,1.12785387383593471710697,6.35658664936323081207092,1.96912972123749785424707,0.484657476866183045682845,1186.15946436593844737217,1179.35633925822708079068,1186.08531921283179144666,1185.45388298524721903959,73.6025009581225475585597,175.350198374917312094112,-771.243539408032347637345,33.3597299471420853933523,155.939628841514377199928
0.33750000000000002220446,-1.26692044367248879410681,0.944328016441516870926876,0.65121591956444624393896,0.0423927464838736237084937,-0.0473446053809623845776144,0.0271478008121936349728021,-0.0103114552719212448222974,0.00531546947739629065121658,-0.835812774199586328016665,-0.548891507407367251758501,0.0672937619595257718874137,0.0726873621077900183840015,10.6821478461373633450648,0.0515476589258489839573407,0.0238768757317799687478477,1.13011764920043211724021,6.35651874661686910883418,1.96917172846013777132157,0.487481325126736031450037,1186.26604958245297893882,1179.9774195958680138574,1184.27277369904868464801,1185.43275146885298454436,21.1795939822877521407918,274.74183989570497033128,-678.155869184819835027156,-68.5261791337779300192778,155.942204736929113551014
0.340000000000000024424907,-1.49628914495288189989708,0.988689692218475690843604,0.548775979523062784615206,0.0376296577932236156471824,-0.0447984404135273669989026,0.0276449468813659837707064,-0.0103589537455731680454241,0.00533585964518852595706022,-0.835833058455621058513429,-0.54885950238750369489793,0.0658138349559306418123938,0.0767801601253672028057906,10.6719422355977897609591,0.0512158380914751742984947,0.0238919581782416519388779,1.13235135364883743314124,6.35645487695047606280241,1.96921265197826156345684,0.490312019796666831439325,1186.26536233584988622169,1180.7300484577056067792,1182.69453986690768942935,1185.11125208957832910528,-19.7074575449278022176713,288.340369293518676840904,-568.623503833986887912033,-213.004949229798313581341,155.944823919435833659008
0.342500000000000026645353,-1.59152579258142390372655,1.00563192106291543481689,0.433781605498151145994257,0.0317850993057738687164182,-0.0414744125290717607912327,0.0283471835226666336871038,-0.0104012617337759013386167,0.00535627438591581780946704,-0.835865332757237622374191,-0.548809334910187018863326,0.0647214783379647662364675,0.0810090734249983290826691,10.6609180274237864693987,0.050869141483904291300977,0.0239374044957528543664527,1.13454941710004453270244,6.35639559256945396725769,1.96925235922398567112168,0.493151023077166295038865,1186.16751229472833983891,1181.41912144233560866269,1181.42965617987874793471,1184.36772672270399198169,-58.0251482141192767016946,241.911143173547088736086,-483.743293477936731505906,-408.840826131926974085218,155.94749058751898473929
0.345000000000000028865799,-1.54181054274467244091795,0.978867278753806635549495,0.286525799558791260945867,0.0245877846281680918771873,-0.0373978587221912295301962,0.0295049077957744917966032,-0.0104445292014324203622166,0.00536723429860012316711115,-0.835907590721885362938792,-0.548744036502934351418048,0.0640346195106358123672052,0.0854920824755131258942953,10.6491287575882900284796,0.0505090880675132594679333,0.0240394782123758768421773,1.13670636830558380303557,6.3563383828320816348878,1.96929056446663097723615,0.495998624036168789253054,1185.9752365947792895895,1181.93960417357334335975,1180.27582339951800349809,1183.06704795891869252955,-79.722890875700542778759,120.367603425211086687341,-368.812763939194724116533,-512.680418563013063248945,155.950740667825414220715
0.347500000000000031086245,-1.38820896790922176933236,0.920091115789993252427337,0.157359785851207134577123,0.0194012496449925686547999,-0.0346406838006875147928376,0.0305132164481298345792837,-0.0104889169140162073767808,0.00536472805349635234462013,-0.835954450632609757931846,-0.548671836066154106070769,0.0637184283152192887378362,0.0901795885692366627761629,10.6366361911897122638493,0.0501320514538307893115388,0.0242049180547032789789785,1.13881802829172995572549,6.35628001849760693175995,1.96932695196819018690348,0.498853547519139350896467,1185.76889784034983676975,1182.02095945946166466456,1179.58559236018277260882,1181.80432462988892439171,-91.3663549656120324016229,-41.5245052433419559179129,-234.787408646479690332853,-490.965072371499900327763,155.953488173499181357329
0.350000000000000033306691,-1.18005292043817089364666,0.839554120185484253902075,0.0276699934346976497701043,0.0161379668751881165389417,-0.0326907794534473383762929,0.0308605185521299216211411,-0.0105348820240686400634411,0.00535194480748124676999788,-0.835998433672663465721087,-0.548604079914695286213089,0.0638172953178949842190093,0.0949023275951388911586548,10.6235074593925595820565,0.0497434229420890758333051,0.0244251385163855860849225,1.14088117911214181887658,6.35621756824407935226873,1.9693620712676600525981,0.501714695164597546117591,1185.51840481995122900116,1181.73198164735663340252,1179.10188635628560405166,1180.61222259706119075418,-121.589936082047060494915,-186.323947492293967798105,-188.301193152712698974938,-454.7887076214057060497,155.956273927123618250334
0.352499999999999980015986,-0.958478993983737481698881,0.740248592877409405943467,-0.1153195560689010967792,0.0149450952835500465443186,-0.0307534794097506017362953,0.0301243449454396024222991,-0.0105819568239038375168093,0.00533247919258869433611903,-0.836035570353224621875654,-0.548546782840042768114586,0.0643542693987475683536914,0.0994834288853152504117361,10.6098129578327053934572,0.0493474309518851517175619,0.0246872232083909307065461,1.14289404591992016513302,6.35614972836323932625646,1.9693962823979793697049,0.504581039839078870912203,1185.16094815993960764899,1181.08933972200020434684,1178.64408639441921877733,1179.53038109178191916726,-140.788489978741921504479,-253.300842959609184390501,-164.398625913465224357424,-316.733787483011440144764,155.959658776815842884389
0.354999999999999982236432,-0.854403709030055913409285,0.668840770449754984383617,-0.217021316611538672702864,0.015403860298471544476584,-0.0292048330615997837889086,0.0290625121666357594252261,-0.0106272415457252921572318,0.00530972661473653583658061,-0.836064471882934978630431,-0.548502080703317296261901,0.0652975260805373214356706,0.103734684991362083317235,10.5956240868642570518432,0.0489437278175028425697413,0.0249739952118289212923408,1.14485656239401856204552,6.35607590868392513527851,1.96942941093983758804598,0.507452145382762398462262,1184.81446237005752664118,1180.46547743255860041245,1178.27989322671828631428,1179.02855365964614975383,-146.524472235250726726008,-227.057851359131547042125,-156.823686606548875488443,-119.312610941642461170886,155.962512943774385121287
0.357499999999999984456878,-0.866746113329650902379342,0.621980153400930380058753,-0.30235464050855265227824,0.015800303676540693176289,-0.0276886121179587552099122,0.0281569540339768747960747,-0.0106713895456083639190492,0.0052888942187233958791559,-0.836086141316944697621238,-0.548468381786452630066719,0.0666901266890017468957907,0.107492751073471795586478,10.5810096979036103448379,0.048541735933026339266938,0.0252685147676523433335483,1.14676968589509220564082,6.35599634153749981635428,1.96945999876807187334293,0.510327597670427901555001,1184.42832579876335330482,1179.95405046520454561687,1177.85996796138647368934,1178.93381803707370636403,-173.726059950922575580989,-162.740012268113645177436,-202.110344788024860918085,19.9918269218414756949187,155.965400232097863408853
0.359999999999999986677324,-1.00093961005777387640592,0.607280198197467369070068,-0.397768895868009453309355,0.0149381272123230973009056,-0.0260379347925009940745156,0.0273717524308237647456821,-0.0107171548954427403588241,0.00527580125956380110996413,-0.836103371314317778129066,-0.548441325068061757974647,0.0686099439770814778505326,0.110624397901634322072262,10.5660339662350661882328,0.0481566538668424595770468,0.0255555129141116985080906,1.14863550678374171098994,6.3559136049303530668908,1.96948677534935923105763,0.513205798503090226958534,1183.94583207030291305273,1179.65177737121803147602,1177.26934150277816115704,1179.12851279425535722112,-176.974461594727301871899,-47.8927846529131358011,-224.324699055159527461001,87.5279732991202052971857,155.968901610499472099036
0.36249999999999998889777,-1.17344155935252003608582,0.638627362323845537694922,-0.480820453219086341167809,0.0126796064522281034386841,-0.024935686000421907609903,0.0267218369225296591140673,-0.0107659663266493899058673,0.0052747957235186639091129,-0.83611669411052558231745,-0.548420038346009275365134,0.0710841205122763747370485,0.1130228649621279612969,10.5507550726603014368266,0.0477999362561410470751078,0.0258223240576855826711178,1.15045743791001897626813,6.3558315564483214288316,1.96950977222473833094796,0.516085178552750933889115,1183.54345349078971594281,1179.7145865419399797247,1176.73834446611067505728,1179.37145790356930774578,-163.404149427060332300243,80.1529549414225783721122,-201.496766537547784992057,70.6949578233433726381918,155.971848868063347026691
0.364999999999999991118216,-1.34768200108633484646248,0.722238049079424349052658,-0.573894654905365952934915,0.00898089525253606239807436,-0.0238851561079041832535985,0.0257408004924849463657122,-0.0108096529583665834639561,0.00528881176706471559795242,-0.836125970056506018224241,-0.548404872830080325485369,0.0739448660982198607838356,0.114510824672737071550088,10.5352257255678072311866,0.0474632499781904998448212,0.0260484527842178362200265,1.15224067084860171128469,6.3557524813936572272155,1.96952920814697973739271,0.518963547089592136529745,1183.12881132316761068068,1180.05254214592514472315,1176.26185767009042137943,1179.48198758337207436853,-176.21258395170099220195,156.511666134428963914615,-161.271659551220949424533,-3.56418638566537682166313,155.974825527518873968802
0.367499999999999993338662,-1.47923074180187086312799,0.848652516121120803482825,-0.675749849064344210169963,0.00449611910983144756615015,-0.0226215999406404570659657,0.0244410509927832503285217,-0.0108416782881866624599354,0.0053183625131580768846673,-0.83613197031955377447332,-0.5483947853683877049491,0.0770180092158812001912338,0.114987428210718473087226,10.5194903796451715294324,0.0471384276627074758070357,0.0262213955559381373117134,1.15399027927127062476131,6.35567656542725423207685,1.96954529260546751245897,0.521840672427751450790367,1182.66239057103121012915,1180.49714487261212525482,1175.93198616835456959961,1179.35363697164098084613,-213.885513077638989898333,162.304411726972688256865,-69.7941623179758039441367,-126.049143742056799055717,155.977825796267552505014
0.369999999999999995559108,-1.51971844587525573011533,1.01723173516481057987448,-0.785166691505849390075866,-0.000688267903956312474857138,-0.0209977281720866611192111,0.0228885983064256726127184,-0.0108647888326230124267369,0.00536118643599533054033834,-0.836136349494861930153888,-0.548387230208553511090486,0.0802545752958454539083277,0.114520524107333626639971,10.5035836760364755804176,0.0468313214875428138195268,0.0263468058710029026658894,1.15570959112112525701832,6.35560324705650181442707,1.96955907224054960202864,0.524718792634088271320536,1182.05938375777941473643,1180.86406420456000887498,1175.91288685850054207549,1178.85174186466178980481,-311.956276381806389963458,93.4031933359619017664954,91.4521702264663929327071,-307.931268571701082237269,155.980853699876405471514
0.372499999999999997779554,-1.43925721122354555170375,1.24439459393329054925914,-0.917558030388402778854129,-0.00707399674392648024345842,-0.0183252474186439764936019,0.0208765639801298495681348,-0.0108806239497452449799253,0.0054128152513204024973148,-0.836140848214141585437176,-0.54837957996284425465916,0.0835555577304487734346949,0.113214036081309102343972,10.4875336430962384781651,0.046542040984179605667137,0.0264341395468499287813025,1.15740064718879076544056,6.35553134576873457461943,1.96957144603306888441807,0.5276001494706887839925,1181.10260918912217675825,1180.96416083929193518998,1176.3892470194869019906,1177.81398062878247401386,-391.150440258570256446546,-41.9182257860029139351354,266.98247642120782074926,-438.338446941724726002576,155.98451816487801124822
0.375,-1.2712997869217337321146,1.4293956572628943035852,-1.01926923256002477380378,-0.0115200630781786359652097,-0.0151875312832333783652494,0.0189586568175422291726573,-0.0108862181106735966124033,0.00546807999958875273760484,-0.836146219220486708323392,-0.548370817573708535519472,0.0867300911495817311580581,0.111139311393160800101043,10.4713641676948512326817,0.0462597110149468998541167,0.0264891909816340129224521,1.15906422456958857480913,6.35546083649867554754564,1.96958236926619867368515,0.530486638270482813162232,1180.1036315564865617489,1180.65447307562999412767,1177.2477992406065823161,1176.66004962995316418528,-428.532107628552296318958,-206.139839268052867282677,431.23174773891111044577,-488.559844648306807357585,155.987597066077483987101
0.377500000000000002220446,-1.03140843583358066126721,1.57605271355362464014149,-1.09455559571330574009096,-0.0141874205228751833207657,-0.0109609799861353912620032,0.0165230920853996557373655,-0.0108814741878889877091385,0.00552096055035756431289551,-0.836150833981949226370034,-0.548363512949614384517361,0.0896271513024258781321407,0.108422064125176006998963,10.4550951049103346690572,0.0459764718812976438955253,0.0265238420799724962384492,1.16069902809176994651352,6.35539028404628680846145,1.96959301466769698407688,0.533379638659619570439929,1178.95994865097941328713,1179.93346164295167000091,1178.54540575818145953235,1175.37118140554093770334,-507.927012720437687676167,-384.904505278882083985081,640.089685690690544106474,-548.428012943395060574403,155.990701412444138895808
0.380000000000000004440892,-0.710209357754508441296082,1.67481812138851915428006,-1.12920507887373067212877,-0.0155940532601053869626861,-0.00516747512132944598894913,0.0128901858441501909052773,-0.0108683123152891174950652,0.00556402061471143131315964,-0.83615383706951751374703,-0.548359036259352894404628,0.0921170800259988459268712,0.105241189058210574125418,10.4387441985580426973002,0.0456854351580161799351032,0.0265556295895640684379124,1.16230204063190423191543,6.35531951265389150051988,1.96960455623375252365292,0.536280249596569724701567,1177.56399649288437103678,1178.72995054923558200244,1180.44824766906003787881,1173.91790956523618660867,-493.072083806191130861407,-467.99761760739744431703,721.389076680042535372195,-481.722937736730727920076,155.994455311984495438082
