t,ang acc x,ang acc y,ang acc z,ang vel x,ang vel y,ang vel z,quat x,quat y,quat z,quat w,acc x,acc y,acc z,vel x,vel y,vel z,pos x,pos y,pos z,mot 1,mot 2,mot 3,mot 4,dmot 1,dmot 2,dmot 3,dmot 4,vbat
2.24500000000000010658141,-0.0522067529726609469431509,-0.28735979696643759728758,-0.810634687787931573765832,0.0141327598003526122560913,0.0349376956623870318918712,-0.00176516789893745745278208,-0.00116530801574008706714136,0.00139689863654989237379267,-0.0454582921743831511185441,0.998964335506870693137671,-0.159499441951626796942776,0.0637126100419443119893259,9.85776186634669926434071,-0.00739007396015159152141694,-0.0090962630059751251737632,0.00539920934644957072057192,7.32500114117953238235259,5.51516636138040716730302,1.12810534295347153488365,1107.56100964909205686126,1106.95899931688677497732,1105.76343245229122658202,1092.90009515661517980334,104.126748259434350529773,229.67276311779221487086,-491.388023008732034213608,-34.4123246810802854156464,163.760453568301244331451
2.24750000000000005329071,-0.333515662460562023472477,-0.277067286617940000681415,-0.753679087329191199629008,0.0114090497143597511403579,0.0344906621903925333927354,-0.00571519355410717976723189,-0.00116936020220869915133,0.00148568793154717129073594,-0.0454702586484027546087638,0.998963682245128770098574,-0.160162169909300960979337,0.0636089896492465223243329,9.85662463234654673271962,-0.00747856782209978861869493,-0.00903554458229222437481987,0.00552132023507797328049085,7.3249709461480954075796,5.51514325828158025188941,1.12812133579859308341042,1107.94462790364832471823,1107.59840747074895261903,1104.51453462813356054539,1092.85844188123155618086,177.746307182000379043529,245.756833831961330361082,-411.991671103723660962714,-2.20165205801099705951174,163.761632505848126584169
2.25,-0.509408619634943105047853,-0.268240502449256734696093,-0.626184168204773405896901,0.00896509043519153232815189,0.0335539631764533163860165,-0.00814828080450410476009981,-0.00117079053457041235355995,0.00156044884704843907219374,-0.0454870838406900498962493,0.998962828159292159924121,-0.160591689504064244475856,0.0635470481448405927205059,9.85529421136977745732111,-0.00754853924816235172245982,-0.00896744807874733443342485,0.00563989365802612489797507,7.32494111355581711819696,5.51512175820763328459861,1.12813585773548563651048,1108.44974118500203985604,1108.18778348604655548115,1103.70347409677265204664,1092.88908689632512505341,239.246647051054964094874,256.602070395461851148866,-276.222779810365409502992,14.4167997792922850663899,163.762656675000101813566
2.25249999999999994670929,-0.640275149703859125516203,-0.25980953031369358185998,-0.440265906028449172104899,0.00727234216658030445390448,0.0324463727854567909880679,-0.00954321324139515390905242,-0.00117156778788825126358386,0.00161707751069575908671461,-0.0455083359852722288407811,0.998961795699481513999274,-0.16075216287603705245246,0.0634687946087949261819716,9.85377165388672793255864,-0.0076011377267559470868874,-0.00889288403539337073133719,0.00575521901512938797995655,7.32491292055351905787575,5.51510164868356866918475,1.12814903595569737682069,1109.14086113890357410128,1108.88141782272623458994,1103.13342072908176305646,1092.93052588012801606965,340.590966153702538576908,338.673332878541202717315,-212.573870228657114012094,7.79570362424254437172522,163.763720916589875287173
2.25499999999999989341859,-0.781960405369070854497693,-0.258807503587845322279293,-0.187838790833648738853867,0.00618949276427610724227169,0.0314093993219721895338026,-0.0101235482571016780634077,-0.00117134349735848147626427,0.00165642379057012105285362,-0.0455321342545878873786513,0.998960668813475227700849,-0.160702180190852861318973,0.0633594013650613518962018,9.85205803244753575143022,-0.00763885097763463902231784,-0.00881287553108118376643532,0.00586749049311353128993707,7.32488670218585724569493,5.51508251102053126402325,1.12816130745852327699197,1110.15269601577051616914,1109.88115015043922539917,1102.64060474562938907184,1092.92806541444633694482,390.784035554096760733955,397.425267813704806485475,-169.367891527966975218078,-15.7432995117236433912922,163.765040260778903302707
2.25749999999999984012788,-0.910430498180735070512526,-0.277015905713340393479172,0.0199934251636712349842195,0.00544964734647466076539191,0.030881745463525220318779,-0.009775213725172600398583,-0.00116912181472804150433875,0.00167990652786082872265083,-0.045552283933398961257577,0.998959728693296411528024,-0.160504743991825016280472,0.0632194575565569183428494,9.85015510435992069915301,-0.0076652349019788101544548,-0.00872836040793298698070579,0.00597663106381762961050175,7.32486254039117579139884,5.51506336561880683433401,1.12817319667447391040582,1111.09478131667401612503,1110.86854416179471627402,1102.28658127144194622815,1092.85180938256939953135,375.341034302639059205831,422.091972821516435487865,-154.565777783126151234683,-47.4324943465457877778135,163.7661717369777818476
2.26000000000000023092639,-1.05983083094930075063189,-0.329836702794882086209327,0.200269736129021935777672,0.00410620994278344374900369,0.0306096045501544691824769,-0.00878179468606470579883361,-0.00116733916241828312651552,0.00168838141754598398264209,-0.0455644545997629310529753,0.998959168788676410422056,-0.160199787849388097793479,0.0629858577531131336169068,9.84806563187218486632446,-0.00768446804225032635560222,-0.00864027180061799696120239,0.00608210430321747853865677,7.32484047600918231069045,5.515043068562103911745,1.12818546970775912541285,1112.02940118728383822599,1111.99161001454694996937,1101.86777585671370616183,1092.69090294271359198319,349.462566994747305670899,460.060333047536801132082,-190.415766726151446164295,-75.1079332014746086088053,163.767332384286277147112
2.26250000000000017763568,-1.21957754877797142079032,-0.419215489012017439307556,0.347070602242035175510892,0.00193660122907031700262293,0.0303816703291833363487218,-0.00745216955174011781021237,-0.00116656681946250171885704,0.00168383625771572308094104,-0.0455679299749720337353587,0.99895901808089460072182,-0.159841164359521670235154,0.0626350806576822516369418,9.84579329918239132268809,-0.00770100196776114364477506,-0.00854958449628177678814023,0.00618294317841614187586385,7.32482087118607605447096,5.51502170907376676467493,1.12819915043651386454826,1112.84209415164787060348,1113.16884582703255546221,1101.33450243781112476427,1092.47626971656200112193,263.626336070552667933953,460.211480212920662324905,-242.624104800466454889829,-90.1969906273298960286411,163.768513984606215672102
2.26500000000000012434498,-1.37153761902558635199512,-0.55379162620040112141595,0.451333471940561281599003,-0.00135785381850204154609296,0.0299285037966834921441261,-0.00600317887617309378645025,-0.00116916759387945649872886,0.00167097779733413787268959,-0.0455620218249594838288985,0.998959297617512231859394,-0.159523881906372427819107,0.0621107599260499257387558,9.84334264985796281166586,-0.00771926341503137783406352,-0.00845745220661004055984211,0.00627776751272964700367751,7.32480420171829038622491,5.5150001933011028043552,1.1282152455672622703986,1113.34753286763657342817,1114.29266741561150411144,1100.65465533271139975113,1092.23991798957695209538,113.869216199739341277564,443.010775488174090241955,-318.378470502564084654296,-93.6844505763039734347331,163.7697166878456869199
2.26750000000000007105427,-1.51625997853195770836976,-0.755530730881603940218838,0.535628119899125176850418,-0.00624573913838717513502541,0.0287163685020844564044218,-0.0044146592526207876008848,-0.00117514866233630796941989,0.00165348073713840492716953,-0.045549593009697519896406,0.99895987062772240161479,-0.159314090472690239597142,0.061408729266327566342909,9.84071960062155426385289,-0.00774313805785785229385265,-0.0083652896834125866493137,0.0063651594113131116162152,7.3247894058562970087678,5.51497957348654477272021,1.12823365790136143083089,1113.41144023264655515959,1115.38389970447337873338,1099.74261008529833816283,1092.00784746368049127341,-85.4378574431866582017392,326.827060316561698982696,-331.1122246380434717139,-63.8474079407401404750999,163.771178628671634669445
2.27000000000000001776357,-1.59043953954278038942505,-0.939500728633782755672144,0.582361154731696917252748,-0.0103707378230382118999842,0.0268753460920234561737363,-0.00337529979105882392206861,-0.00118446210369046881286104,0.00162938474972558976737458,-0.0455330662446670336729326,0.998960629775883512948553,-0.159157030819696510004491,0.0605365598609814425934417,9.83793195119327457121017,-0.00777562871856705972728463,-0.00827469599703506072940762,0.00644400422736934701262168,7.32477488055656955623363,5.51495977079941912535332,1.1282531099678181352175,1112.92034358042064923211,1115.92680271719427764765,1098.99909420952121763548,1091.92068094987325821421,-315.832528386551871335541,108.681622759288572410696,-267.809465756641884581768,1.37700587529255447094556,163.772408099879413612143
2.27249999999999996447286,-1.60732940737829910204937,-1.11299891118537574996594,0.615925425369947987519481,-0.0139397030366288122993357,0.0240093041798944556441953,-0.00246861265300570573502648,-0.00119993137836426721869187,0.00159728253627563999625383,-0.0455155065324534396919987,0.998961435333940661607244,-0.158997205379772937883232,0.0594504843983457501033207,9.8349883272311586779324,-0.00781874698396633344144036,-0.00818741296030963891516841,0.00651355778416050617413147,7.3247595847600246443676,5.51494090024719962883637,1.12827224588401908711432,1111.83227759071382934053,1115.92730781826981001359,1098.40356275651515716163,1092.01473249305695389921,-603.541759735311757140153,-151.058967538577718414672,-202.145355907536895756493,94.217825478246780335212,163.7736436570318971917
2.27499999999999991118216,-1.55243421211675514115313,-1.28057395066950108208914,0.645317371306368681160848,-0.0176080961948358247215474,0.0195118732822525363379551,-0.00125647337765398374453962,-0.00122511525261824807953026,0.00156151073411735230589414,-0.0455004710160310729682998,0.998962115995790322919845,-0.158883599061822144982159,0.0580927062676321326328832,9.83189716967477345122006,-0.00787361626679996054467559,-0.00810519855310797184000382,0.00657343239172423349225838,7.32474262010060161998126,5.51492316991131037440255,1.12829054672791051494585,1109.90263478174415467947,1115.17150787950140511384,1097.9883674299835547572,1092.39177007726448209723,-790.526403586016840563389,-410.51963994901564092288,-90.3318616740781266116755,183.424221715817395761405,163.775126585167015491606
2.27749999999999985789145,-1.43048533937280275551984,-1.37472917037076425295083,0.656657096509891347047017,-0.0206615677004661282833986,0.0152528750037271062373057,-9.55740383944282651624766e-05,-0.00126035500854612919456599,0.00152875671484899145445568,-0.0454905541538212360164195,0.998962546625504321795574,-0.158907922558210235042253,0.05647192448312825241441,9.82866687312345277405257,-0.00794062692851173375363505,-0.00802965147307849007318747,0.00662361677450725404303622,7.32472411235730813672262,5.51490573893011859496482,1.12830846591914668586298,1107.87964557278382926597,1113.87470961852477557841,1097.9519034481447761209,1092.93185360163602126704,-861.398014071652255552181,-648.581534258984788721136,54.3577724185942940948735,253.217195034613922643985,163.776357384576840559021
2.28000000000000024868996,-1.20260693340228241865475,-1.42452262381902827748092,0.641985019461086880987466,-0.0242165678012795405893431,0.0112314969124615877255069,0.0013661897718996900748939,-0.00129929446058859123826201,0.00150506006497636772405169,-0.0454861232340212293112636,0.998962714071580659691563,-0.159150378870375475148791,0.0547338257150607951362353,9.82530598130613874729988,-0.00801964244357355159065204,-0.00796208511290759889111879,0.00666446847787318004396884,7.32470417653634253696282,5.51488860790150692281486,1.12832658165610877354368,1105.59564471138560293184,1111.92860020820626232307,1098.26015629207654455968,1093.65785605243763711769,-927.917541019206623786886,-865.327947238880142322159,177.06338299639068623037,305.064932233542435824347,163.777576533174965334183
2.28250000000000019539925,-0.865469826165844557941398,-1.45117268182273551069272,0.593210970854581076672218,-0.0281519670977162968228402,0.00798699508532626882562067,0.00319841751818998598633215,-0.00133279246483118804164625,0.00148972242813438533054482,-0.0454846795735091777301839,0.998962747982972132376744,-0.159558285537945820919958,0.05308884687371419330848,9.82182386074073576764931,-0.00811013362343646071472847,-0.00790354939582647159079798,0.00669670441567393227855209,7.32468287011156604648932,5.51487226026223353869682,1.12834432688468933037029,1103.2400578676874829398,1109.54806988233008269162,1098.83722036312678937975,1094.45717826280383633275,-923.096400251526233660115,-1015.53438282182810326049,284.879931346228374877683,309.431069525096290817601,163.778781036348362931676
2.28500000000000014210855,-0.384836422231645436387026,-1.46997036106573486513582,0.490280861390194888649319,-0.0319946716350566900954888,0.00555682649105849850446059,0.00544670467667314906617948,-0.0013608066418635985077995,0.00147944666769221698336689,-0.045486637435525764661115,0.998962634378417591030086,-0.160018477133871683815158,0.0515737164275371640087542,9.81822992975394193138072,-0.00821131916163286498799856,-0.00785504860765778335773835,0.00672111022120427340637017,7.32466083240752396932294,5.51485656624908759937398,1.1283609831797345446347,1100.98016271012807010266,1106.85092829409722980927,1099.68455594880765602284,1095.2050114000630856026,-927.170757843006640541716,-1192.37276712176753790118,414.940059104728561578668,278.100352238067443977343,163.779962226115429757556
2.28750000000000008881784,0.334451291146173224078098,-1.49611233147166111656645,0.300942528476982718022015,-0.0352434922165979214181419,0.0025968377091028335863776,0.00805197555840598232224092,-0.00138247937942789886518746,0.00147297607951813532174701,-0.0454935363276537108045972,0.998962306095837471175969,-0.160458643136615841662262,0.0502411122232294740652669,9.81453319934391643641902,-0.00832239624412802782293941,-0.00781730878784190827412992,0.00673849402381511159570993,7.32463855867837398960773,5.51484222268687762635864,1.12837636440982747032535,1098.60420407847254864464,1103.58620604672137233138,1100.91192065865038784978,1095.84768002399414399406,-786.942186208778821310261,-1149.20590482359057205031,466.575305834895459611289,169.13207128632527087575,163.781346438967602807679
2.29000000000000003552714,1.00004236864467421774805,-1.5150736351350133634952,0.101463075809145542027778,-0.0356240465970993139266376,-0.00032011444121834916080524,0.00926246615793362322588411,-0.00139415762688285208709127,0.00146495797241444651246023,-0.0454997071745716213930777,0.998962031051294774286475,-0.160730088119494629594897,0.0492035860833862082053258,9.81074339637487646825775,-0.00844263660726012228618931,-0.00779047630166360225573152,0.00674963731381643221307609,7.32461689020884954004487,5.5148291651591199169502,1.12839049065395413684598,1097.04545177908426012436,1101.1048987699793997308,1102.0174324779820835829,1096.05067175649469390919,-512.221761849843460367993,-886.578461437712348924833,435.843214818087460571405,-4.67251462155228125538997,163.78246845989187363557
2.29249999999999998223643,1.63372846726928777627563,-1.50951732522910209155498,-0.109464595697860891942987,-0.032282005538387205378914,-0.00390969426050002434591679,0.00868812324556983081591532,-0.00139578046955886108868028,0.00145235200184290046826474,-0.0455032842695690040168977,0.998961895243860809046055,-0.160729051224133751007983,0.048500073301957054294764,9.8068703323024735141189,-0.00857124611671766095666314,-0.00777422130732864473390276,0.00675490052078462927670488,7.32459585465514972923984,5.51481603810446063818063,1.12840416597645720742094,1096.04309526922338591248,1099.15331373953290494683,1103.09113673274077882525,1095.82431745088638308516,-301.072152561034329210088,-691.302295272058699993067,442.705265205641239845136,-199.661008139496232161036,163.783554130179823005165
2.29499999999999992894573,2.22228827306527731977326,-1.44221324249410964846163,-0.337357851912438777564063,-0.0242059995013553450049493,-0.00907719621060161865888638,0.00651644590160568859538159,-0.00138967517354501336745987,0.00143445292340599046647387,-0.0455069785275818775027723,0.998961771410908916379867,-0.160399302134898419369691,0.0481181177960845196661666,9.80292435683815099878302,-0.00870723654074404516955976,-0.00776766119019444215010317,0.00675411295398333725442663,7.3245749946963130128097,5.51480175141156081508598,1.1284182452569802013187,1095.54009101627912059485,1097.64838729361918012728,1104.23095880401024260209,1095.05236671579723406467,-71.1031180873321062563264,-398.502592252916031156929,383.973100573083684139419,-354.771888271178170271014,163.784811823950690268248
2.29749999999999987565502,2.48697522511403867895297,-1.31740821609068214925742,-0.49119443818617586350328,-0.0154274097700066569610611,-0.0137030159723803401233821,0.00446465998969590178307998,-0.00138244662151661298031546,0.00141265935948379746725512,-0.0455119476731914024414394,0.998961594302411159951305,-0.159726982186458088541769,0.047956524957977871015391,9.79891685902050824097387,-0.0088493978975300712636054,-0.00776937161182952688853742,0.00674653438566044736518501,7.32455417957722065835924,5.51478560343611157179566,1.12843305803772442352795,1095.68757967878673298401,1097.16080077826836713939,1105.01100223560615631868,1094.05045800953053003468,160.337833280016724302186,-43.2575063166466762254458,275.031927331774170397694,-450.194277178449340226507,163.785820834871543638656
2.30000000000000026645353,2.46343759572042753092092,-1.11720557062561565153658,-0.609563902892476083827944,-0.0062825647544523036125419,-0.0177186922253413543792977,0.00287790802177465172839721,-0.00137486945833765008585792,0.00138771813908184480680641,-0.0455227686705577533343714,0.998961151556199133949576,-0.158696662092375512242981,0.0480240894200993778673237,9.79486142098969025937549,-0.00899610003589386073019618,-0.00777755020437498074264981,0.00673113206007075123848971,7.32453298908382510745696,5.51476815550354615425022,1.12844882731786189111745,1096.34178018267925835971,1097.4320997620359321445,1105.60611844066920639307,1092.80139532990483530739,374.75677829208706270947,261.059995255328090024705,224.456795014960647449698,-571.836143936805001430912,163.786788449483537988272
2.30250000000000021316282,2.10707098420120386705889,-0.810747469187176772464909,-0.726946026380350551754361,0.0035840175377894038268034,-0.0211093458365307386215282,0.0015775065180273035655989,-0.00136517080791284097993077,0.0013595116440373478539777,-0.0455416314463867114015194,0.998960345974630459231491,-0.157285247397705607586005,0.0483749687532292055314187,9.79077417966907326274395,-0.00914532963409588929570848,-0.00779019000240793561828934,0.00670667158798253677798318,7.32451111996746373478118,5.51475011028763884013415,1.12846592372836718176643,1097.56136357024729477416,1098.46610075454509569681,1106.13328621068103529979,1091.1912772898463117599,494.21209994835550105563,461.828752812844697928085,166.562963137361208509901,-585.861396527037641135394,163.787901742971115481851
2.30500000000000015987212,1.58227055543439010243389,-0.527085005977152021294785,-0.814294949316915150916429,0.0101694837433355406847157,-0.0225240192640294434323067,0.000717427089457894407754923,-0.00135561666375737916410971,0.00133229210843252088639077,-0.0455651971305429392966602,0.998959321135785671685881,-0.155559284962390353967976,0.048974641527832207810178,9.78667323719291637473816,-0.00929481964540971455912555,-0.0078052637354034306443884,0.00667170358034568922178664,7.32448793805491948916142,5.51473189725967216645586,1.12848452669255183700159,1098.81284068242098328483,1099.74124352610010646458,1106.43893325635599467205,1089.87208834726970962947,520.394784014581318842829,549.39648518812907695974,96.2995574265753475629026,-504.194846951451665972854,163.788789809971063959892
2.30750000000000010658141,0.915575910429664352463419,-0.248643836098297266179458,-0.890210102128639935159526,0.013941214082713801469815,-0.0226943808984145095619667,-0.000469450093509339431464833,-0.00135027830110055844375916,0.00131132216726988215516059,-0.0455897617640156349594349,0.998958234699339087114822,-0.153611645319864265069043,0.0497455628775536062846641,9.7825792955923933647,-0.00944202373619876765553638,-0.00782085175141994728975625,0.00662487325276079046937339,7.3244625488654087064333,5.51471407507494237876244,1.12850402990000819869465,1100.16333749032014566183,1101.21308318048568253289,1106.61478399781390180578,1088.67030305508910714707,538.21028352855375942454,588.78604443986091609986,46.5804620186200679654576,-455.045533724988388257771,163.789636622051091308094
2.31000000000000005329071,0.221360088401839544269833,0.00519719319481454222753314,-0.944595095845958909741569,0.0145406085902189900066483,-0.0223147530600440145709396,-0.00238872354311316092978501,-0.00135378526628797293644701,0.00129265340957096020770012,-0.0456120670148349102723806,0.99895723401577118938377,-0.151363185001555045072763,0.0506002395461504980711531,9.77851683155117434864678,-0.00958417310542312300691847,-0.00783514293058476009312674,0.00656531960610170096243055,7.32443525829467478871493,5.51469641042416380827262,1.12852290882696015827946,1101.5038921000636946701,1102.68517374829934851732,1106.67183556644909003808,1087.59686067864481628931,516.504364844069755235978,557.682279766743818072428,-11.3152636765792209416759,-397.837000582020948513673,163.790448889598678761104
2.3125,-0.397405866457065326535769,0.215503801161510799566656,-0.950039783935023196548286,0.0116169337888168047040471,-0.0216848632232322161006444,-0.00527504736449744150023067,-0.00136700078376623479839425,0.00127091342567570370417074,-0.045630991458986913666962,0.99895637689833549632823,-0.148719063671787832259241,0.0515184164028457541872896,9.77451283005160753702967,-0.0097185961377213095357952,-0.00784639675693942634238098,0.00649263516500364710332116,7.32440736967163985582374,5.51467922021506229413035,1.12854053071304161193211,1102.74585931454043929989,1104.00149457931934193766,1106.558207679431006909,1086.68111805217904475285,507.762918759783019595488,518.280268049613482617133,-95.3495873873655312991104,-367.877404302097261279414,163.791218753536014673955
2.31499999999999994670929,-0.949016137138964710473488,0.409299556359042138176108,-0.874821974903965182690513,0.00573120518242891101995395,-0.0208211623373338143572209,-0.00907934285811259032816789,-0.00138659630428619512140798,0.00124477701200125683879405,-0.0456422731758867189499895,0.99895586556999349525654,-0.145675699454653473363663,0.0525508046042431065103528,9.77059570979924707501141,-0.00984300591582325939965514,-0.00785279673242016314216318,0.0064066602116958637491706,7.32438004878157844501629,5.51466285808195344486649,1.12855701746867809198704,1104.04270669386255576683,1105.27657508854736079229,1106.19508762951227254234,1085.75747365713436920487,436.468422731113832924166,410.991620409240226763359,-171.108936880458713858388,-308.495185943099613723462,163.792092160163917924365
2.31749999999999989341859,-1.21584870823288127006379,0.51808114883289635432817,-0.736972762253275681665343,0.000119034876586721394850325,-0.0199579599550155119269679,-0.0119341732953280738049884,-0.00141196928343831113079887,0.00121983811892574316691762,-0.0456438147898132057234122,0.998955790975066704184826,-0.142369944908467577215916,0.053681024081600386965718,9.76679449554475276329413,-0.00995542451606673192698871,-0.00785255110838709198539664,0.0063071764181011546676614,7.32435300171033798477538,5.51464692784897358990293,1.12857318448273646893654,1104.92820142819596185291,1106.05645268136549930205,1105.7026629950287315296,1085.13864212246357965341,311.239658484835047147499,258.342974226667195125628,-229.628828348636830014584,-211.487271616856531863959,163.792776625976301829724
2.31999999999999984012788,-1.29536520389571752076563,0.565118512823172380876713,-0.52870196826819415569787,-0.00470440097321873744451448,-0.01876696307531307977845,-0.014191741250873319418746,-0.00144182518812802432095488,0.00120162649097656205020301,-0.0456387440573114838704427,0.998956007057016925898552,-0.138944963158632805999559,0.0548987968101829065803443,9.76313921772005954835549,-0.0100539654467520622044274,-0.00784381784914599082536579,0.00619402394219894635724044,7.32432511475498948527729,5.51463082579279184614052,1.12858977880467703514,1105.59890498628669774916,1106.56828995968066919886,1105.04694348776911283494,1084.70003729905010914081,248.09126824091580942877,175.292097744283637439366,-311.262633733510369893338,-143.317860892865951427666,163.793414080292137668948
2.32250000000000023092639,-1.24009519071171148141275,0.53840788199831879357049,-0.223919341141814165485613,-0.0082280654874093174522276,-0.0167714384203194004363535,-0.0158146956131100351050645,-0.00147258051721197683221753,0.00118701939534445973824239,-0.0456315089766375497903894,0.998956318522758346389878,-0.135383276890750914311923,0.0562396820494834026593622,9.75966105148714291317447,-0.0101367843565445849007833,-0.00782458911042187982287643,0.00606733696221122779240753,7.32429670521946452055317,5.51461431767575138707116,1.12860630551085305839365,1106.16865776940062460199,1106.9329131700869766064,1104.14634982636107451981,1084.42205281799920157937,172.946176125139714940815,97.7178753571868128346978,-336.320717324792951785639,-55.2888167035197497511945,163.794121985349136139121
2.32500000000000017763568,-1.12829929787291205478539,0.439751150366392618007438,0.0477709811942718873267744,-0.00944381170045176417116028,-0.0146595856713760130940472,-0.0158506259286264709895686,-0.00150471800481127783617741,0.00117540204486875766824727,-0.0456242715135500714884742,0.998956624712139751309792,-0.131717781762175106807788,0.0576522155951459322476005,9.75639037478766901756444,-0.0102023240569902324398344,-0.00779275959991794411191313,0.00592727962710320500916428,7.32426779734358301965358,5.51459682867921330284844,1.12862241178880307046484,1106.46363586691245473048,1107.05687933646663623222,1103.36533990114503467339,1084.4235932155324917403,82.6360598675382220790198,8.94731686785254076710316,-304.625495586703550543461,51.4791681326652934558297,163.794662474961342013557
2.32750000000000012434498,-1.00474869413091449921183,0.263876014713556705792996,0.30250623604377557818168,-0.0102483456303369864504038,-0.0125362210755250551297291,-0.0144900043087853053896952,-0.00153838867711735319786237,0.00116929377752088498390592,-0.0456204310447139507744829,0.998956766496857939685583,-0.128046512902250414489558,0.0590840087389847071208671,9.75335615471288797095895,-0.0102493210304080931832837,-0.00774627292570291385576109,0.00577411338305568351547681,7.32423733552682953984458,5.51457749862127410978019,1.12863812950406483537336,1106.58183806873830690165,1106.97764975442623835988,1102.62322234842758916784,1084.67944865866252257547,16.4991941498559633316745,-75.6575682119562458183282,-282.285864212150613639096,141.559631180328608479613,163.795149801033630865277
2.33000000000000007105427,-0.892502416568269896224308,0.0392126034461953917875654,0.523357878434647871834784,-0.0112875468376612362458866,-0.0111260581512116086405628,-0.0123883193821889715097173,-0.00157518911716307465770148,0.00117037325662943487644685,-0.0456201136324907996488776,0.998956733807108476774772,-0.124451988849434314055031,0.0604522289129037007637812,9.75058552362943942171114,-0.0102769420004979877836249,-0.00768329422520002292690267,0.00560825502823601110963248,7.32420514177907033825932,5.51455570045967746750648,1.12865385865017975319802,1106.54613183766173278855,1106.67859149540686303226,1101.95391058008431173221,1085.1313913714341197192,-55.9999230380993253675115,-189.216833679306034809997,-244.118073761552039968592,217.194219349726239443044,163.795591992835369410386
2.33250000000000001776357,-0.796573387453897163723582,-0.208561257093410556961999,0.694789577213816511580546,-0.0125039099445275921074217,-0.0113028493245519653931375,-0.0102447389414089262693608,-0.00161094107300949673441948,0.00117527804958900789975007,-0.0456244214241573881052361,0.998956486424217415809323,-0.120924344692516727572951,0.0617893527302700723558004,9.74810319831449412220081,-0.0102848649607944486739086,-0.00760256122360132742532546,0.00543050170143176934300921,7.32417178379611577554442,5.51453264229612116764656,1.12866977957735836746167,1106.30183845354781624337,1106.03156558602972836525,1101.40263197961985497386,1085.76541975541113060899,-160.330433009906982988468,-381.496814422333898164652,-212.50132459868379442014,297.828734560159318789374,163.795978899202850698202
2.33499999999999996447286,-0.684577965252552100849925,-0.477345333365477575426894,0.849419962525425509269894,-0.014477833391753416880654,-0.0133705728773968052225385,-0.00809851267954168375917678,-0.00163978689192617924606787,0.00117498666432666923863104,-0.0456327700899382682209193,0.998956069911170030373171,-0.11734406571913758021708,0.0631657902717234903677834,9.74593044295085775274856,-0.0102734926198675743241884,-0.00750368931656217146020094,0.00524204869816931318116104,7.32413849648508019640758,5.5145098281961519859351,1.12868541428437763052273,1105.74447967261221492663,1104.77110742329523418448,1100.89140395709091535537,1086.62053504423488448083,-246.930882565680605011949,-545.303107267511904865387,-163.791303358406224788268,307.314250440146849996381,163.79637867933598727177
2.33749999999999991118216,-0.575846476926976880150733,-0.643373051745380841737187,0.944339700952421812196746,-0.0164798988527333593878677,-0.0159004084387571187342303,-0.00644101970338611939936868,-0.00165964078260409024327682,0.00116492840334119743435359,-0.0456399723470672785685665,0.998955727980167074164797,-0.11367229811152515517314,0.0645767516096304727835076,9.74408364957916539594862,-0.0102441704947022222543795,-0.00738729819778723324763536,0.00504425622940270559912967,7.32410654302148511618498,5.51448813593019693257702,1.12870105919360530499773,1105.06718404071943950839,1103.30505004969222682121,1100.58367546282784132927,1087.30199100761183217401,-305.104076385993835174304,-660.958859733514600520721,-103.13263301918816239322,238.827251010575849932138,163.796658012211423738336
2.33999999999999985789145,-0.43277355011843277043937,-0.726393960805880811726354,1.00972698747285027920384,-0.0182760922294260379217246,-0.0184589580403214242876331,-0.00445168435858729876625217,-0.00166975908795465965810123,0.00114346419937207577528782,-0.0456397369928682253292784,0.998955750335136283268866,-0.109921884037971318015536,0.0659927795805932276840267,9.74257383826065392895543,-0.0101990235872154461765904,-0.00725498802020646624960643,0.00483877056291233658552597,7.32407631303096096075933,5.51446828668627553327042,1.12871638887866709843877,1104.21895929068227815151,1101.46631312462773166772,1100.37574079199498555681,1087.81467129928773829306,-392.089637897944044198084,-865.089844155123273594654,-75.1521295340757404801479,162.176261772254264315052,163.796881849788974250259
2.34250000000000024868996,-0.211526234161640819264605,-0.725901006551840088931726,1.05197488305258834984102,-0.0198482245454561952169303,-0.0212389755285108741689193,-0.00160501892195354144490804,-0.00167356185347146391682871,0.00110916462219653945593667,-0.0456305583586657861894231,0.998956201288886069811213,-0.106100775582187362156006,0.0673090832094254826190038,9.74140623235080838071553,-0.0101406509873072283450801,-0.00710929727831998651416123,0.00462757591950647972911526,7.32404744141619357122863,5.51444967747546321845675,1.12872983657700864945639,1103.10673585122958684224,1098.97960082891631827806,1100.2079148151574372605,1088.11287231647315820737,-405.241036707111504711065,-930.095828794975204800721,-52.1359838613954096331327,48.5979713774635371237309,163.7970872730171549847
2.34500000000000019539925,0.0132857597874274282329088,-0.649454789523776887527617,1.05230057065471349631025,-0.0206130953072809521009479,-0.023240185161838095018183,0.000986357171239531007461698,-0.00167375806500311835600669,0.00106361512792689624946896,-0.0456151597527749141924858,0.998956950787548314529829,-0.102270043748470068623035,0.0684397365023291515129245,9.74057972208427003124598,-0.0100719688847591831715178,-0.0069534444837576732736939,0.00441291542565541965864595,7.32401993935157946680192,5.51443174900268573424,1.1287410051690001111524,1102.19275410714658391953,1096.81583398065254186804,1100.11506087268799092271,1088.05766115617507239222,-341.241238514256110647693,-849.393242694777541146323,-30.1711409714705105500343,-80.8449058321019862205503,163.797206883892641826606
2.34750000000000014210855,0.270335422338213449133804,-0.510440090857366302046216,1.01067587779851497664652,-0.0207829307894263903833121,-0.0246987969583580095622732,0.00359114570856085670372271,-0.00166997229724291759885013,0.00101328086934697014602491,-0.0455964779505388800862065,0.998957859650907997739466,-0.0985815189422144105835244,0.0693635648380569597160061,9.74008662557830362516142,-0.0099960988738301698175448,-0.00679109228698858771733349,0.00419707431184669545881638,7.32399406493976901089127,5.51441540605498747851243,1.12875062593893771278886,1101.40052965865834266879,1094.73263461544252095337,1100.05705911030008792295,1087.70864778731265687384,-300.11674450270862735124,-861.785419289772335105226,-17.2867406253321007625345,-202.710358360177224312793,163.797274676401457327302
2.35000000000000008881784,0.593733948695249313942668,-0.294587992359793715557714,0.90783679846020359782699,-0.0201818292249016130457395,-0.0254457897290340517848506,0.0065449728853218197902053,-0.0016631493666399144431417,0.000967213396665353745615401,-0.0455744448640056989963121,0.998958922036019103529725,-0.095228878341725053946476,0.0700412585786406860499653,9.73991282797646640290168,-0.00991619172957658272238302,-0.00662616984904235151176977,0.00398218376408541324673607,7.32396976015261103043485,5.51440125297118477476488,1.12876015672939744582948,1100.69217038463307289931,1092.50690688420377227885,1100.02862716956133226631,1087.04410936437420787115,-210.179537810249655649386,-749.334255647788836540713,-1.67371054212711833919514,-266.679088406687014867202,163.797298653834928927608
2.35250000000000003552714,0.851849614728891535442301,-0.0888753375489574198864418,0.776995942821249285792362,-0.0188484860165522988273423,-0.0252909484351685025227408,0.00889503587503757096877077,-0.00165541421818498268522801,0.000930836958547774564326494,-0.0455503762545147669604795,0.998960070923163190315108,-0.0923272477901841415182105,0.0704239849333175710333066,9.74003798207010440535214,-0.00983513417868994883896949,-0.00646271929078112618988206,0.0037703115708551081242117,7.32394616340528159526002,5.51438889369083184988085,1.12877030927734667287154,1100.34963196960711684369,1090.98596333720365691988,1100.04869055758945251,1086.37525234527925022121,-82.5024561477238762563502,-521.108220169173591784784,19.9277186364274427887722,-272.091284830554627660604,163.797273031325318015661
2.35499999999999998223643,1.0622594200738286751573,0.134088353670792942429202,0.602109455294561168869905,-0.0164439047205383118144262,-0.0248356636167402639037149,0.0111329080892807377040077,-0.00164991941007663206475442,0.000898418560628892488156838,-0.0455246760605982347946963,0.99896128631798741803749,-0.0897672657083999486760106,0.0704628754102838983364165,9.74043567681940380964534,-0.00975541412411983291375073,-0.0063045946336082623814856,0.00356370226633604065061278,7.3239233581394547201171,5.51437794997172492372783,1.12877957811664630938253,1100.27965810389446232875,1089.90136578335796002648,1100.12826576274346734863,1085.68365294022146372299,14.4514986618563288089945,-352.963042078734588358202,43.0248550560472793335975,-271.69492832791218006605,163.797203133085844228845
2.35749999999999992894573,1.20423983465529094161184,0.370862044261691059521269,0.398448761656361061245235,-0.0131204222950171978112621,-0.0243778895391040147100359,0.0129460561023748890047136,-0.00164729432579677052307654,0.000863621625201856503266373,-0.0454970201901230067442761,0.998962586221189718926894,-0.0874244313876523515549621,0.0701681043650728974991893,9.74107384049742996978694,-0.00967912566760976283974927,-0.00615523512249401688611883,0.00336464183022067327144544,7.32390244112448751678812,5.51436877216406706736507,1.12878708573183206276269,1100.42188946291639695119,1089.22114812681002149475,1100.26381483286968432367,1085.01677770363971831102,101.033717109660187816189,-169.180763893658848928681,67.4705244400698376239234,-259.608472314817902315554,163.797099121911998054202
2.35999999999999987565502,1.23433188654152248275864,0.625696928040549549265847,0.178436082024625908282189,-0.00908031266533550034114608,-0.023711310076371634042447,0.0137934042900087865113345,-0.00164328047177348095936322,0.000824757712788303930413758,-0.0454712393256414548758926,0.998963801958733133012913,-0.0852647016621221054410995,0.0696493485657316974135611,9.74191567571009287007655,-0.00960779666193367458404406,-0.0060175397735239086888237,0.00317526730929630846347878,7.32388290789485196796704,5.51436148047992524823258,1.12879256315848075509223,1100.78482668944275246758,1089.05546196388968382962,1100.46561838494380936027,1084.38561057864740178047,199.886092897063605278163,46.4351055792545182043796,101.705959210396443381796,-277.413462981512054739142,163.796957510521110634727
2.36250000000000026645353,1.12081866660134754631883,0.947190244989112195561631,-0.0736699866900216437937132,-0.00425594148798175576225988,-0.0221787081128708325750143,0.013753344728550826250868,-0.00163552010411842146594963,0.000783682317492445375088639,-0.0454491972172952826691805,0.998964848686748507766708,-0.0833179964821975926891895,0.0689831076777344398553993,9.7429209397967007078023,-0.00954227319973833913724359,-0.00589356315430818525347156,0.00299731304656718385015512,7.32386382695625393068894,5.51435532416349794004873,1.12879650587012125839692,1101.42131992740178247914,1089.45332365470630975324,1100.77234462892170085979,1083.6297103887320645299,258.92816937860590087439,239.457077205481454029723,120.851102858242512638753,-285.244948659946032876178,163.796749126892024150948
2.36500000000000021316282,0.902949940535140327391161,1.2163206760448808108066,-0.251204391876766741642513,-0.000670576353412517442952046,-0.0200501086957264214316599,0.0129301332745863709061673,-0.00162417169957321792274352,0.000744382042372186084749908,-0.0454295374088346387564386,0.998965783711148191947871,-0.0816515216410020339132814,0.0682001732078334754749704,9.7440472774113011666941,-0.00948262675565408191813432,-0.00578431249936887069418301,0.00283194641670333037766771,7.32384425535282801433823,5.51434923900871787338929,1.12879962346489315372366,1102.0794675363358692266,1090.25274734991717195953,1101.06987389923506270861,1082.9593858353475752665,280.893134842341680723621,401.304560812840804828738,125.963245937103195615236,-282.849407156351503545011,163.796547192722783847785
2.36750000000000015987212,0.578267791692214094823044,1.46402794101933664272508,-0.373155353575433779145243,0.00201296836202738763099696,-0.0168705800099391359236911,0.0112756663035997999749993,-0.00161375611105397400411865,0.000711224539149390164519127,-0.0454108689119817471313567,0.998966659626415398598454,-0.0803355960295020349315465,0.067249427763652641631964,9.74525164832673951309516,-0.00942813599494081097662779,-0.00568977277765239219248228,0.00267966891772557051776271,7.32382343827796145063758,5.51434215742732192211406,1.12880220716646140211026,1102.82578560161346103996,1091.45984645877047114482,1101.40216085860720340861,1082.21546335295033713919,338.965379091185184279311,597.533887726025568554178,155.481211510235567629934,-340.523340815805568126962,163.796320084369966707527
2.37000000000000010658141,0.111600076317904195466468,1.70532923485800402829682,-0.444230910716315208208727,0.00365626121692372730437315,-0.0117800668534047813656995,0.00902017279500947136150479,-0.00160760452198351229402551,0.000688408743158885829023508,-0.0453943382498617972742316,0.998967417252125011728481,-0.0794391680039443770500185,0.0661046315190869926414763,9.74649178633072033051121,-0.0093773971677394638013503,-0.0056090394846739187462159,0.00254034550681978216549184,7.32380141840646015083394,5.51433351022738094115994,1.12880498547545404797177,1103.77429443179175905243,1093.24041678854723613767,1101.84727995678622392006,1081.25676913126858380565,349.271498877995497878146,683.865439628940293914638,173.605926438680455703434,-350.555845397146356390294,163.796022772383736310076
2.37250000000000005329071,-0.297182571536050377236649,1.83993097699376906284385,-0.445371166660025963324188,0.00339775047547289819546701,-0.00679320889699378416964892,0.0075260091223776940869139,-0.00160492508721252961738368,0.000678092596054695440598026,-0.0453800608581934675211933,0.998968053843798386992603,-0.0789967323749478089744969,0.0648213533622213899931808,9.74772769617576351208754,-0.00932854895067842214417819,-0.00554047805251692195710467,0.00241330197254714055171698,7.32377779881255186467115,5.51432330611873755543684,1.12880837258999289218764,1104.57214309600340129691,1094.87917365691509985481,1102.27019049080058721302,1080.46268412596464258968,311.291486223951608280913,657.972361470151895446179,182.408005583742379940304,-293.406644716930600225169,163.795757161655870959294
2.375,-0.670036212759802740634996,1.89212798694864692272688,-0.402923659675962664294957,0.00160011177480032218932438,-0.00168308216494091620121787,0.00649062626299473470481427,-0.00160023965327057071314498,0.000677386066700432702518409,-0.0453689429278418959734509,0.998968542302163142743154,-0.0789508964331247231616118,0.0635492144889356347370324,9.74892310437298448277943,-0.00927945360564018210947079,-0.00548204412061607977701971,0.0022974825147499627030212,7.32375295050722652234754,5.51431180391570041621208,1.12881173595901618256221,1105.33075186291148384043,1096.5302785958979256975,1102.75931998470491635089,1079.7897359076839620684,313.008689817713559477852,699.244964991854772051738,228.838862236675936401298,-236.394298720329544494234,163.795475947590347232108
2.37749999999999994670929,-1.01760503584783412733827,1.85887742140984357774869,-0.325897232254848290278204,-0.00191590097689157100313562,0.00435456546682708948298179,0.00535146930890548211401381,-0.00159064328005903573258484,0.00068528888479982752370695,-0.0453642424265631311053326,0.998968744525928431521322,-0.0792812892992121043267417,0.0623832453865276193027967,9.7500470639695890895382,-0.00922792903780254684942275,-0.00543161315474640152278774,0.00219132612397572243412291,7.32372689260281894974014,5.51429942583134558020674,1.12881473216061811726263,1106.1371865450919358409,1098.37539848187429925019,1103.41438480198394245235,1079.28071263236302002042,269.664843189099258324859,637.302169085310083573859,246.261419671833010625051,-116.253949295380806461253,163.7951233208983694567
2.37999999999999989341859,-1.19206643198708972519739,1.75917471934566549407464,-0.25847352319205790793788,-0.00576083303679657699608585,0.00927692218575795930768368,0.00462069011264630655905217,-0.00158173736516523111284016,0.000705512011305205839414856,-0.0453686033138561012334478,0.998968531305315710078219,-0.0800540085901070425089543,0.061244760485177282549607,9.75107513928995750518425,-0.00917199263295487635105907,-0.00538715460121388673569998,0.0020926869202862437638335,7.32369930804120095046983,5.51428656018284080175818,1.12881787969353331035904,1106.67907607885695142613,1099.7167894413244084717,1103.99062708306405511394,1079.20846616120707039954,180.344433624308493335775,483.933772145256909880118,226.152124335708606395201,59.1634647557397173045501,163.794818571195520462425
2.38249999999999984012788,-1.22668133063139328520208,1.60355533851599529882037,-0.21056847671650796849363,-0.0100777049836704140489685,0.0136447269263662365745837,0.0044274614661831048628704,-0.00157940293756118031731628,0.000741005291920644108653871,-0.0453757832326269483491643,0.998968175834317628769554,-0.0813215443803359389063345,0.0600455294936699593422169,9.75199012724433345056241,-0.00911014820141215798943168,-0.00534669222386996781382074,0.00199906275523468622209999,7.32367013878821992989288,5.51427299795923264724706,1.12882194286020220985733,1107.03890871321345912293,1100.7950673426005323563,1104.54514542366246132588,1079.57652995614171231864,108.826183081320706946826,384.528593261958519633481,207.79228830459447863177,220.638755253579461168556,163.794504189712341712948
2.38500000000000023092639,-1.14659991277438666479327,1.42180565625407240304412,-0.194050202785617603717938,-0.0141714389969090429066689,0.0171466024897550459171747,0.00468185738335049218133976,-0.00158706672431293909462935,0.000792007324195717859853516,-0.0453792262310472732655953,0.998967971948718780339505,-0.083086534030258729632834,0.0587429114400833396469892,9.75278264516888526713956,-0.00904153993491381945124541,-0.00530859103203372428847473,0.00190777499713552095572666,7.32363910310119692326225,5.51425876105121748338433,1.12882713480843221987016,1107.22320699426359169593,1101.63943240763433095708,1105.02958852458709770872,1080.31165993747504217026,30.0122386317960021528961,282.808532481184556672815,162.28800781754031845594,367.925513948487321158609,163.794182768032754893284
2.38750000000000017763568,-0.949794073282245299161275,1.23468410613636558892381,-0.225246673501834387964848,-0.0173381126806800775486117,0.0196573186515756545555966,0.00545551573312946617988484,-0.00160360745326939223807938,0.000848195848819764740104954,-0.0453806133707736827909152,0.998967848670256231002895,-0.0851495905775897232725669,0.0573879206180468795506222,9.75345137145324159178017,-0.00896610842919010227192178,-0.00527183922857098804376497,0.00181630460595694079653506,7.32360705457091842873751,5.51424460993664489194543,1.12883258594098156990526,1107.18896990637244925892,1102.20911000500655063661,1105.35658546275021762995,1081.4161575258842731273,-59.4161145595547992570573,192.428365684831533144461,88.8452996722226799874989,536.474560815042991634982,163.793853634495377491476
2.39000000000000012434498,-0.624494677283661925315528,1.02949760547580249081534,-0.310189059472297357089587,-0.0197859987150719660031761,0.0220353161651691831224298,0.00650359373401923103463762,-0.00162431650298828838749343,0.000897857234025766707923022,-0.0453821162889340365409474,0.998967720879101239717102,-0.0872855203657886546952938,0.0560982218021129075413711,9.7540033481134305048954,-0.00888493326348680292903204,-0.0052359802652404341047343,0.00172224307080251796617243,7.32357602909431726345701,5.51423147304775795873866,1.12883807932843516219634,1106.92612642146582402347,1102.60157423605846815917,1105.47381502294820165844,1082.99403274155019971658,-122.565399005591530112724,99.4123053977567252559311,-12.3354752791786168586441,589.313264096348348175525,163.793450296720550340979
2.39250000000000007105427,-0.318293485680786469860237,0.883700049879233895389063,-0.395190690145680534328676,-0.0207874690104978450400086,0.0238921855195461420307002,0.00655336125044899547864574,-0.00164193069152029067804544,0.000934494577377342891186252,-0.0453852307843012683918893,0.99896753592254117215532,-0.0893698616183296462578411,0.0550323096381855614289691,9.75445365049157331327478,-0.00880029130439021617382522,-0.00520101734854113480904791,0.00162323443709965257140959,7.3235479794117388507857,5.51422082976430427692094,1.12884397405353653631721,1106.57614291134450468235,1102.7061715319953236758,1105.29490808635432586016,1084.36272384636595234042,-148.249589792934301613059,-1.54720109007943062984225,-128.985856447437100769093,523.060228951646649875329,163.793107258526674741006
2.39500000000000001776357,-0.0220782383109752317063013,0.76512644342698954424975,-0.444722429769386973230638,-0.0208799528596096961585715,0.0258451184944997539028044,0.00463315736276764117418381,-0.00165300446979208134033745,0.000959600679564490415159039,-0.0453866063234479658050624,0.998967447493250615409011,-0.0914261395546780430976241,0.0542629581256760459839761,9.75482433920512193026298,-0.00871546705431694261612119,-0.00516709434587033118735366,0.00151694890921980573249284,7.32352338935040059197945,5.51421238665735469197671,1.12885070417648325502569,1106.18487847250116828945,1102.59383823060807117145,1104.82888574071102993912,1085.60933388630837725941,-157.143780324580518481525,-99.683424871729897631667,-252.929095794985130396526,489.137297321405128514016,163.79275670776414131069
2.39749999999999996447286,0.272718155620144675488348,0.650928900634497042965165,-0.405653609730669773014711,-0.0200335821267505244380747,0.0280927191799917735925973,0.000485082542569362446319148,-0.0016606330954410471103383,0.000976984606595620056965212,-0.0453820004086949307930965,0.998967637668730312761056,-0.0935121888877884777091509,0.0537294146456030186076447,9.75514302030490476624891,-0.00863427890035206938024182,-0.00513421704289124172099212,0.0014012979662710381423274,7.32350187691854870308816,5.51420459600580326053887,1.12885824235277087979057,1105.79042400972161885875,1102.20775440763668484578,1104.0302626073794272088,1086.80841033297292597126,-117.495039097505241443287,-184.544834276952599338983,-309.022599824090548281674,376.320557050766012707754,163.792326485825896043025
2.39999999999999991118216,0.436779175748813086599398,0.578115815342369221419005,-0.272878271911143721606408,-0.0185144478304577475569204,0.029725035828112238850407,-0.00289991005677808040205679,-0.00166950734048493427963411,0.000987170405573035113222513,-0.0453708178825479035989332,0.998968124456950379297382,-0.0956150670878591207868524,0.0533388488203284799604731,9.75544142767395605631009,-0.00856057066511259519281385,-0.00510206834959847036620184,0.00127473889722113948447246,7.32348311741172608435591,5.51419628540314388231991,1.12886577960038714252278,1105.59740327701365458779,1101.67111405922332778573,1103.2837727415906101669,1087.49093667156216724834,-41.2060912048227407922241,-258.604666879278795477148,-282.798276622458274687233,201.457474678777288090714,163.791959033547868784808
2.40249999999999985789145,0.488263420435715023160128,0.53030946990725458256577,-0.0565538845221503078120051,-0.0161341599893449691438541,0.0311380234698976389451364,-0.00445919261488544188543059,-0.00168211467516040389172383,0.000993937782878663664970498,-0.0453557746565313724129709,0.998968777415628950144821,-0.0977820455848852077007649,0.0530345302787455299964314,9.75575379616026694407083,-0.00849781586057297456948678,-0.00506993865748518127839484,0.00113630844305058595518354,7.32346671785902092466358,5.51418677926074884965146,1.12887363924387407188021,1105.58439355369750956015,1100.91473107324031843746,1102.61627122426716596237,1087.81569770636679095333,21.3638068208169116246609,-334.442476854724361601257,-232.61393779883542265452,73.9788551964870890742532,163.79158083678672142014
2.40500000000000024868996,0.437392420682260141262532,0.506348366504789537678732,0.189276844682446571122014,-0.0131805246807286200599885,0.0324355931799203758836292,-0.004235097260256667078826,-0.00169517608206660270672717,0.00100155998139355557029206,-0.0453412928397100289945598,0.998969399007328617834389,-0.100070585144099999386214,0.0528676768029128357762048,9.7561150235554414678063,-0.00844874868566508965828099,-0.00503678748300628344181096,0.000985798151349068663834574,7.32345205522934339370522,5.51417599817410053475442,1.12888238334334389811886,1105.70422231111774635792,1099.99890167494959314354,1102.1207030525963546097,1087.86083094754462763376,66.1726843095449055454083,-392.12971081357943603507,-140.647048050404521291057,-36.7132116762579912006004,163.791192735880855479991
2.40750000000000019539925,0.275902857507921706048393,0.516176630640433287133817,0.414227975569910367159565,-0.0101906788826264631253604,0.0335404865621227801786297,-0.0022491232118029814111837,-0.00170195921363833712301739,0.00101128498487676183985318,-0.0453269180249646699842891,0.998970021748202152700458,-0.102478728753156583808348,0.0529555558987905919399175,9.7565586955826599790953,-0.00841511942240792155944806,-0.00500130652057949667832482,0.000823927390098979934435208,7.32343817181482403810833,5.51416444266768657200828,1.12889137092175295684626,1105.91525697524525639892,1098.95408251917228881211,1101.91303598401509589166,1087.63213164798548859835,89.1600357884745733372256,-464.826361699679978300992,-18.1515889595179267246294,-139.513798164583278094142,163.790792180535618172144
2.41000000000000014210855,0.00993236242252702045130164,0.572843558286514564770187,0.60179861302723081095678,-0.00809891766081208969163541,0.0345640754395800733900224,0.0013043561412633992036697,-0.00170261696542855275188222,0.00102573381774361698827447,-0.0453079258268773779616545,0.998970857414121726769451,-0.105023104041522430396327,0.0532764071576971448562787,9.75711485883879348079972,-0.00839751775814259054930844,-0.00496210320169978343768369,0.000652294680449181144520077,7.32342348558164690786043,5.51415247183152157361974,1.12889950391775295557295,1106.15002249006010970334,1097.67476986645124270581,1102.02994510779876691231,1087.16326195672172616469,64.2737578612936886202078,-451.944220133337296374521,100.337547204028268765796,-184.137095674081422203017,163.790297484683236461933
2.41250000000000008881784,-0.206133132720734274512253,0.657789831809844072196825,0.66811298453853373846556,-0.00848400233398857901712109,0.0355948960362959462844223,0.00453477336912872907442873,-0.00170425235711523567067038,0.00104805467435340718580783,-0.0452851219310702532427904,0.998971852911850310974273,-0.107724068261139463431597,0.0536692814823791358724847,9.75780822227141975133691,-0.00839528244022074918162524,-0.0049179604810069450782084,0.000473400328928137508702895,7.32340670476168664748684,5.51414063078641447646078,1.12890551485974555134817,1106.23662576455171802081,1096.69436141850565036293,1102.4147237200352265063,1086.71144616961510109832,-5.82017859496785305850608,-349.801386764382357341674,203.355979951861428389748,-172.065105803998477540517,163.789874558401294279975
2.41500000000000003552714,-0.327902033059413733351306,0.775057357914449185365413,0.644701844184823014138885,-0.0110921930960302568547338,0.0373398749380437350309236,0.00729888446889821219942807,-0.00171138821569935214474134,0.00107981437394073114845183,-0.0452608928065726251466216,0.998972890597791041145115,-0.110574542530325864442275,0.0540221164627670141777926,9.75865691977555904657038,-0.00840674979588066154101433,-0.00486781254414968625465754,0.000290610483815850729159835,7.32338781509259639790343,5.5141288087695743413974,1.12890874576504440796043,1106.12092159708527105977,1095.92576293262936815154,1103.04672500755805231165,1086.30293642770175210899,-106.99133067610318903462,-268.419702459920074488764,320.233672816091257118387,-153.930753991565865135271,163.78944263589525576208
2.41749999999999998223643,-0.28498478333473664658726,0.941138418500639728492274,0.547834146709970992716876,-0.0155803728315179017271941,0.0399925765906560953810711,0.0093004652850920150469749,-0.0017236026149212697964469,0.00112476871378056606821938,-0.0452371075053611473859583,0.998973883033022369559717,-0.113616952319057079590081,0.0543151881628197163998095,9.75967132899977940496683,-0.00842958909822899560282394,-0.00481075297362882747104207,0.000107813537624764090266764,7.32336689133582474653394,5.51411705168322097136979,1.12890910671562427758374,1105.70166911117121344432,1095.35226290620607869641,1104.01589208411564868584,1085.94179239965728811512,-197.611416192334786501306,-145.029271597198572862908,378.765444556446595925081,-106.430899791623687633546,163.78891746907396509414
2.41999999999999992894573,-0.0682463487969919152531517,1.09342347724965227584448,0.445457505110997520336724,-0.0192048887669576395786919,0.042079775363009414013149,0.00949660013820369588999348,-0.00173761199976767252879661,0.00118116388838710568119639,-0.0452177325445623778943371,0.998974657124227616300516,-0.116792391455179334069925,0.0545880742454117329209851,9.76085371986332717142432,-0.00846109025460240263272205,-0.00474613065592414777593699,-7.08265759802475353915791e-05,7.32334412453590655189828,5.51410513907060106930658,1.12890687327710192988661,1105.13286451612361815933,1095.20061657464339077706,1104.94055223034024493245,1085.7707819287436450395,-259.277184629314490393881,6.44764213407156727697611,378.337220905094795853074,-42.7661554563665049499832,163.788477437160594263332
2.42249999999999987565502,0.31248555061700855617346,1.2503222819238211105386,0.356525988016827499738071,-0.0213529751095794459447852,0.0439762394091350386493566,0.00859621085097073134306811,-0.00175469753712547186196014,0.00125016446674317861786907,-0.045203698599725207485367,0.998975165904029016594734,-0.120099023252662001626234,0.0547884128584690544006008,9.76219780600149000804322,-0.00849851431717348580752169,-0.00467352752674658322024071,-0.000241423696927787990659797,7.32331935436402581274251,5.51409260476202245371269,1.12890302126854091824271,1104.40528318802466856141,1095.38450111687643584446,1105.90757818864108230628,1085.72796162237546013785,-333.230436745657470964943,151.386095310261907798122,412.731232721870924251562,4.02237840203242846826015,163.788039747010543578654
2.42500000000000026645353,0.871882833245978705605239,1.41967291812867157929645,0.276925816804889257660705,-0.0208481836412923102197503,0.0470896795225059991429895,0.00759977388612787917859803,-0.00177641826286179752708572,0.0013311617189604497447919,-0.0451964467792787608080296,0.998975342791241116557899,-0.12350476672666800548317,0.05486055435534560598132,9.7636895392082738709405,-0.00853934216229037222622988,-0.00459291629486040589580575,-0.00040051226005941134621427,7.32329265986572419677714,5.51407995243903670257168,1.12889761957895062849389,1103.46671233239521825453,1095.95754705119475147512,1107.00420839394973882008,1085.79089382075380854076,-337.694820297497187766567,263.222484369799019532365,373.198584646226947825198,35.1703937635169410214075,163.787523417384818458231
2.42750000000000021316282,1.33555986020603323360945,1.51658304111927155766182,0.217177973529978807221141,-0.0171428705929167340960007,0.051056890842609954639375,0.00777398216379223978150792,-0.00179692768890398922240759,0.00141565922172654889803212,-0.0451949472751076719578833,0.998975253044885991293711,-0.126834674307607170318235,0.054901994162532621879258,9.76530872581384734587573,-0.00858157399500814391246628,-0.0045047129832282819042466,-0.00054507395540509886999736,7.32326576155815267554772,5.51406790357057463580759,1.12889040946325591718846,1102.71680908653706865152,1096.70061353872551990207,1107.77357111187234295357,1085.90381359119305670902,-277.898269535723102308111,347.009254768416326442093,258.679728269458848899376,48.2503469942922791346973,163.787104733279221591147
2.43000000000000015987212,1.69323149737442868456583,1.53258522130783991777037,0.12804332849253113879584,-0.0105903533103206756726955,0.0560844100050183480554722,0.00873140453306548748602101,-0.00180924514695953472624701,0.00149803978896060154858694,-0.0451963511972710910158391,0.998975043815926611046052,-0.129975051900484445122075,0.055032658751934984686649,9.76702983660441503843685,-0.00862385534486707211465628,-0.00440979809207494351935841,-0.000672977198147614585899134,7.32323980884515268741097,5.51405668512471081044168,1.12888192724704383707035,1102.07722098471663230157,1097.69259332503679615911,1108.29760703529700549552,1086.032145555725264785,-232.761165198876796011973,433.937698826830626330775,160.862679426785490477414,47.12079258947697013582,163.786702270463337072215
2.43250000000000010658141,1.90981810992631895196325,1.46629472209331734866566,-0.0125071702150581307716459,-0.00327807286346817145991639,0.0611899678978929037476142,0.0096386819488643565162489,-0.00180858845307328187923535,0.00157654872317275767008848,-0.0451987101039259403512105,0.99897481539771704195374,-0.132889268638162527658153,0.0553298451000607122152175,9.76882354409928588268031,-0.00866539927764744741245373,-0.00430948685309497699774672,-0.000783188872746292427499959,7.32321488416539345678302,5.51404611500383801114822,1.12887343316855459640635,1101.55300326054270954046,1098.87030203285962670634,1108.57788450900625321083,1086.13941755414043655037,-185.446666493866672453805,506.551538028917889278091,54.4795921562593079556791,31.6264755612798964534704,163.786315785969321723314
2.43500000000000005329071,1.93663780539701946281639,1.30410862222236834107036,-0.237949169671118510027696,0.00344130626181105188365894,0.0653622091262910098752315,0.0105231725330970013465581,-0.00179462871173448270008255,0.00165323510527646102066801,-0.0451984355818285596373407,0.998974729144429307581277,-0.135613996963169058940224,0.0557850982015407892422587,9.77065853399679973279035,-0.0087058602053801982523229,-0.00420538754353573691890933,-0.000875829589972360847589805,7.32319076215234598947745,5.51403628138673962411076,1.12886632147876486698124,1101.14998765224731869239,1100.22535101518133160425,1108.57000499607829624438,1086.19027793353166089219,-163.483278567404198611257,615.011181742569874586479,-55.4124358419369826833645,5.04782271582382069396999,163.785950896237750384898
2.4375,1.77337010896201396903393,1.02549405079523547890119,-0.616290990490266699097788,0.0103638567399618065217881,0.0687707270765850336990965,0.0118717300699123715079786,-0.00176806287566599602649464,0.00172550726862184724413884,-0.0452005676065880060421343,0.998974560046236970123346,-0.138096966189847819572734,0.0563785053555540399683466,9.77250422783806271809226,-0.0087451223606386831177506,-0.00409949622399981283837889,-0.000951863701063649573878844,7.32316666684973949230653,5.51402750068039715358736,1.12886035713049603934621,1100.73558686770570602675,1101.94535794157241070934,1108.30082232979657419492,1086.16465666771955511649,-153.643878085407408207175,623.018808309338623985241,-125.069361775834238414973,-24.051780410173307700461,163.785540073652725823194
2.43999999999999994670929,1.51619829349070478485828,0.74939353404811104297778,-1.0047621253502272420377,0.0148126989796124094306284,0.0704087144573232875943702,0.0125518697631224734195809,-0.00172800255051574103322409,0.00178622357038749545940504,-0.0452110843669731865546169,0.998974051682789410122609,-0.140200181849166355396719,0.0571302436242607236671631,9.77433282891617416510144,-0.00878330544478539247676974,-0.00399396562447381156535364,-0.00101288024947732667457867,7.32314239483252027440585,5.5140198808986697898149,1.12885421962042364896206,1100.38176826182029799384,1103.34044505672795821738,1107.94465818719913841051,1086.07001903148079691164,-155.406080097467253153809,519.162689435426841555454,-148.636407633469815436911,-50.0454131666639767672677,163.785221110372475550321
2.44249999999999989341859,1.19799809346813157517886,0.454719118496232366233301,-1.40991681477460883975539,0.0173985417244401224801109,0.071163744346086257874795,0.0111056316582268006787348,-0.00167661788234059038610324,0.00183589661142992605948054,-0.0452309258972415223487573,0.998973156251425686846801,-0.141933420115625069657384,0.0579995819446329982649324,9.7761198408504306200939,-0.00882078610234938303991115,-0.00389086219586568969261431,-0.00106123378783240930427201,7.32311821485193625846932,5.51401352140811162882983,1.12884802792819805006275,1099.95855646721838638769,1104.541171388749489779,1107.55764029162924089178,1085.91442960188624056173,-203.055927755035327209043,453.593360078330647411349,-160.243721744067215695395,-76.1964818269932777639042,163.784926659002337601123
2.44499999999999984012788,0.818836295635763988798317,0.0986538199269807181135405,-1.80441259634750816864823,0.0185311940420991166922349,0.0714338266713236413885113,0.00572028167100738053896247,-0.00161999915403990908842335,0.00188237486580459059161419,-0.0452596419554191289891243,0.99897186774952206889111,-0.143446980334612200769229,0.0588679039167595424819623,9.77784535716583391717904,-0.00885816715919080475971636,-0.00379208267156650857127032,-0.00110000708333474889188963,7.32309408650661985973329,5.51400829887989729627407,1.12884276068472533260945,1099.36648862304514295829,1105.60841185711956313753,1107.14343957847881938505,1085.689036622345838623,-219.917550801604818389023,317.107178063476055740466,-139.736916428627978348231,-84.2014928267815321305534,163.784601173100753612744
2.44750000000000023092639,0.543606128007902422716313,-0.193987887512501983033886,-1.9698872675106320340177,0.018511007631293544678508,0.0712822015197763364513506,-0.00140461217333092899806068,-0.0015620275620604970063382,0.00192795293093542220372316,-0.0452920991281450802112829,0.998970405213183365589202,-0.144784960032392828743752,0.0596695667515148853166096,9.77949636851965031780765,-0.00889631192454376149014728,-0.00369917246265716271810819,-0.00113263530213203239202513,7.32307069100133478656289,5.5140035799158262364017,1.12883954258036633966356,1098.85896871321028811508,1106.12670727906697720755,1106.85895570948605382,1085.49342213775230447936,-180.763545650767440520212,130.933444024813326223011,-106.554483289111971089369,-74.8942002877760728551948,163.784352665592138009742
2.45000000000000017763568,0.330040297263901716284806,-0.479369746753118108895109,-1.88995709178335502542723,0.0184272260510820601320248,0.0707352573616602392503339,-0.0096776306676161546332926,-0.00150832062983580292986341,0.00197267136529124089208698,-0.0453230501383511258373105,0.998968997368108402312714,-0.145946101786573190217666,0.0603109607489053650697386,9.78106701161040170688921,-0.00893622542144959126908521,-0.00361330665438771778119609,-0.00116275654706719886594124,7.32304899937465592074659,5.51399899257337366975662,1.12883839248076611738725,1098.46267089479124479112,1106.2630790772436739644,1106.61066716203322357615,1085.31456562090693296341,-117.490830446015706911567,2.6880098486345223030014,-101.292071021818969711603,-64.9364243201048481068938,163.784127232501191429037
2.45250000000000012434498,0.164173577999716546749198,-0.755393317990528334604505,-1.58850501902360918826673,0.0186053929860557805409105,0.0697317540806274699383138,-0.0176861373026156766530281,-0.00146472498954812284377436,0.00201691132945318709127069,-0.0453472550402127319579826,0.998967874978424763554585,-0.146935861643086917993628,0.0606967502599809749508353,9.78255835149871089129192,-0.00897885823804739531539543,-0.00353525708244686182046834,-0.00119393723910865339962739,7.32302909595002304854461,5.51399463849733351139548,1.12883857421627276096388,1098.27151456098022208607,1106.14014732831014953263,1106.35249535437696977169,1085.16874001615178713109,-3.93448981621994997581737,-87.2352043663359353331543,-114.695847511350336844771,-43.7139920426043531165305,163.783920597061893431601
2.45500000000000007105427,0.0399759024411453639524794,-1.01061782811456168928999,-1.05483317038025226075604,0.0189352361337428200249722,0.0679408969957449593302101,-0.0237795838039759031834475,-0.00143681073711224857950008,0.00206734602942610767167819,-0.0453580000095288107808678,0.998967323888234060014213,-0.147883433630051824847484,0.0607335498558562864035437,9.78397721948497434141245,-0.00902484161993079812835727,-0.00346534896842220965090808,-0.00122949700606699626609375,7.32301023141599927157586,5.51399011796039761890142,1.12884039021883553211012,1098.44299844571014546091,1105.82690305541200359585,1106.03718792447648411326,1085.09599566069391585188,174.067165836690122660002,-143.495195090375432300789,-158.951551155136002080326,-3.58117022510676541457997,163.783736283914919340532
2.45750000000000001776357,-0.0837536485879247782904145,-1.27297922333262447658342,-0.256015893433865882045097,0.0191589884637096592723271,0.0646598518277176625979052,-0.0268276542451997800087238,-0.00142566825753653262515153,0.00212617981037135873531585,-0.0453543443713719171550558,0.998967382218950761263443,-0.148835801540197459891246,0.0604200350381643991326541,9.78533636041823484674751,-0.00907423877773767643961644,-0.0034036069027806648869261,-0.00127203685619715575229327,7.32299161557759425988934,5.51398572195165748155432,1.12884369725535549378037,1099.14185039016365408315,1105.42267135285828771885,1105.55773759860130667221,1085.15083416502625368594,335.166978598597665950365,-126.196725704860867267598,-194.570610456098222584842,52.7430484058197492913678,163.783540549274050590611
2.45999999999999996447286,-0.179985540283230965874495,-1.43808201153511006076258,0.433623531092793890184822,0.0190550093647357914050655,0.0610581139523648230849062,-0.0250844124337313394146332,-0.0014232433054374353607191,0.00218974796057486500999723,-0.0453372132322690593597692,0.998968025233331946566295,-0.14973487477081776075849,0.0599385991119356850709288,9.78665325833130061994325,-0.00912645927232760140190848,-0.00334970941876464034514527,-0.0013231443680401524468776,7.32297282007882266441356,5.51398192824027066905046,1.12884760729863753425661,1100.11883333870309797931,1105.19591942688771268877,1105.06433487219601374818,1085.35971090272300898505,452.70504867845431817841,-45.255761839781428079732,-217.158095590507485894705,125.604850353832205200888,163.783398429920424632655
2.46249999999999991118216,-0.28221606892934791854799,-1.53064296764894969271609,1.02502038321164268275254,0.0185953985027574979216336,0.0569240968291979052007257,-0.0199885060417546653321885,-0.00142450086954042814436916,0.00225792577592100153147103,-0.0453110518356458075173165,0.998969056432086555119554,-0.150591169304249816729424,0.0594080183892762986319624,9.78794742646081772363686,-0.00918021192601166033386839,-0.00330296525259251867040478,-0.00138347203276262720357537,7.32295276224087388072803,5.5139785236343374918988,1.12885108114610610563489,1101.40537563355587735714,1105.19639254365938541014,1104.47194712064879240643,1085.77885841679540135374,599.905481348618195625022,60.6894469686280189080207,-282.302361916942231800931,235.201679839024563989369,163.7832779184940363848
2.46499999999999985789145,-0.423752432626701758255905,-1.54815479380269671594306,1.5299484411702573005698,0.0177428028704512824598183,0.0519355932182910401406772,-0.0126265610196337474402384,-0.00142645221000922955284507,0.00233151531077700844424294,-0.0452828752739576276264977,0.998970160171673393634251,-0.151434009431554578162249,0.0589038123347144296215738,9.78923882667434597237843,-0.00923362812135092476950593,-0.00326226757188069309278955,-0.00145264346603096337548489,7.32293009322338850353162,5.51397506579741580878817,1.12885366999788616659828,1103.1183607454461252928,1105.49936666173084631737,1103.65282306261133271619,1086.53571930191810679389,624.775735340839332820906,154.666020956154653731573,-315.587859324774910874112,314.165329270760310009791,163.783158041315942909932
2.46750000000000024868996,-0.564495333074713445675741,-1.48505525503099455875144,1.75849322298389521002093,0.0169193319518903297071777,0.0479372672402690325199615,-0.00685463698583267319608403,-0.0014288466335873445910154,0.00241004385716425770930238,-0.0452532672259745236131856,0.998971312648988640781056,-0.152267947478400722527425,0.0584464292834403209564442,9.79054623429926351718677,-0.00928459302257149399206781,-0.00322595339368996316189997,-0.00152928881251398595536584,7.32290492152960137417494,5.51397058785578408901529,1.1288548595774159366556,1104.52925431026028491033,1105.96972264844021083263,1102.89400782402481127065,1087.34968506314930891676,525.568932286488234240096,214.493602298020135776824,-311.533044561135170624766,347.466363992065623733652,163.783078373540746497383
2.47000000000000019539925,-0.733468374897378927457225,-1.34866204517099586013273,1.80322553856758549528649,0.0158975310250935794598171,0.0440496056439187919084866,-0.00185129124085199516652755,-0.00143271259979152313680795,0.00248840612187553079925895,-0.0452240530083144673390017,0.998972444517975177724622,-0.153008537449474846248165,0.0580315233023898785491568,9.79188590215833976060367,-0.00933104409796792384768072,-0.00319207952954070686701904,-0.00161113006865123845404164,7.32287825644369760880181,5.51396463620938082073053,1.12885381377832616500712,1105.74620540687874381547,1106.5718346732210193295,1102.09515783980555170274,1088.27305112187855229422,459.430107706576336568105,268.213481888057060587016,-342.686835154661878277693,404.169364948765633016592,163.783018900664387729194
2.47250000000000014210855,-0.964754578508083326937594,-1.11822624398284498070666,1.69030007440986129729765,0.0143663025872371695468299,0.039707890119639960291309,0.0033657244613817340929407,-0.00143345609546032025718998,0.00255958112868568798264901,-0.0452015282702294129979492,0.998973294883619300499333,-0.153541335183748683945737,0.0577619371457119279433812,9.79326982618050934092935,-0.00937121203540325874159489,-0.00315872606991038319332321,-0.00169525021784909350752724,7.32285074715344563855979,5.51395733719274527828702,1.12884995945071064937792,1106.82640484879311770783,1107.31079005788046742964,1101.18057364825153854326,1089.37053188789309388085,319.3275165234422274807,255.0901510821913404925,-307.608645210218298871041,379.251585957589554709557,163.782969507005816467426
2.47500000000000008881784,-1.16916686833347949203699,-0.892051462498728020555916,1.49707116832767717085062,0.0126062813914880455373746,0.0367750926849526524331502,0.00699852475447105843581186,-0.00142935590137421636089399,0.00262431912103674091704675,-0.0451888298656022147081757,0.99897372083875812798226,-0.153903246465087378824776,0.0576734034660154257223574,9.79470339789173571887204,-0.00940379174580881736777993,-0.00312406372883148632235706,-0.00177866836925826628419689,7.32282265790240227687491,5.51394917610079993153249,1.12884414753024464594944,1107.34284298949592084682,1107.84728542863194888923,1100.55711461375449289335,1090.16930905166645970894,122.989384422183206879708,180.589755757777510325468,-189.511473828410487385554,274.420872750539672324521,163.782945362980171921663
2.47750000000000003552714,-1.35861743974185844585634,-0.665808478612882281844065,1.24750751326833064780431,0.00983718817062183281674237,0.0351909110587276321990835,0.00950737009145867333070878,-0.00141935224135602785534849,0.00268604967238182928274126,-0.0451854698293057202573841,0.998973737783538706658248,-0.154184214320763263161851,0.057782494338965428859467,9.79618530304534651520498,-0.00942804595835353316524152,-0.00308653518462760536461564,-0.00185854941269650037610761,7.32279380588107375871232,5.51394097132734639643559,1.12883772078950106454442,1107.44135177090402066824,1108.21373883666933579661,1100.23301627910950628575,1090.74263625164576296811,-24.658221169466358446698,109.777073393208937091003,-55.8339808237190595718857,183.435730763089225092699,163.782936992526884978361
2.47999999999999998223643,-1.50861332596436592545786,-0.468072963528408381161938,0.980297650477212845210317,0.00628371104610835323062146,0.0348624494842886822887351,0.0109080846732119585845711,-0.0014044804867895620530821,0.00274180890163949579629854,-0.0451850291141256688032257,0.998973642766847080842751,-0.154347481980105005749948,0.0580671136163296297549863,9.79770836758887320172562,-0.00944393086287187606686633,-0.00304490322213406229209798,-0.00193221716058318386532999,7.32276476894551997531835,5.51393280493493431748675,1.12883084620644669193723,1107.2195518836485916836,1108.39617079559798185073,1100.27794470963590356405,1091.08648770548188622342,-152.190617419686134326184,24.50191159678122332366,128.962067591694932389146,83.6963529193344299983437,163.782940032929900553427
2.48249999999999992894573,-1.57733603360541541071882,-0.329311878361150778271593,0.711345312839205545785148,0.0020563870483754917786734,0.0355680231719889272667956,0.0116706403232756140975201,-0.00139195968208314507785772,0.00278646599104730293902654,-0.045182648363238035738032,0.998973658725596624918808,-0.154307825767914186254615,0.0583826965378348786139817,9.79925918964227804508482,-0.00945208073026017336903948,-0.00299840274550743817252862,-0.00199733523339013993580515,7.32273680456870845745243,5.51392477111893697383493,1.1288227615995085617584,1106.68039868380560619698,1108.33624839465323930199,1100.87782661706796716317,1091.16111801624242616526,-287.446720571648938857834,-79.0585377582391259920769,400.494269089458043708873,-13.5289409973214027615995,163.782954504747664259412
2.48499999999999987565502,-1.52949285000548407253973,-0.235790570792469483807352,0.387267478222296124279467,-0.00352129544115104345380907,0.036434330633526371134856,0.0129940568432500083706493,-0.0013857190161183868901823,0.00281953285610900489591146,-0.0451786721526627466083426,0.998973764919042883647649,-0.154072434602022606542349,0.058642019593995939330533,9.80081789176109374750467,-0.00945367535922631528622073,-0.00294683490107030751636863,-0.00205209108185276569574773,7.32271108941866444297375,5.51391734612168349372041,1.12881340871707336326324,1105.78231828079037768475,1108.00087810680679467623,1102.28041605508315115003,1091.01884300049528064847,-352.940503731018736743863,-158.535674608209063762843,614.894109012588501173013,-72.5372541407474358265972,163.782981805560353905094
2.48750000000000026645353,-1.36473457692781008354643,-0.200781676254378010915147,0.106431145094870546752297,-0.00841750567650551007048421,0.0363059625009748282442601,0.0146797542599102718435811,-0.00138562031576642988132952,0.00284685900547447133177026,-0.0451752521307083668156146,0.998973847605785558734226,-0.153774060160344921976971,0.0588299424064586129468069,9.80235874247230931644026,-0.00945020944714433305811063,-0.0028904467706364397189267,-0.00209536779600022916164592,7.32268767153255328850037,5.51391062878262427915388,1.1288039713952782161499,1104.9156961651503934263,1107.54357002161214040825,1103.95229716213111714751,1090.79843174553866447241,-350.774702825514339110669,-204.631304047993410222261,734.201183033060715388274,-84.9843311907022211926233,163.783010422481282830631
2.49000000000000021316282,-1.07050897511340425971582,-0.174048619731803161370109,-0.18989172256252989656744,-0.0129533447888994200647428,0.0349758234235327605810006,0.0162059954956192686648109,-0.00138747318158078704330993,0.00287317155799594100423766,-0.0451754097775369234391007,0.998973764193059943217179,-0.153524403755915361813322,0.0590105479146163930392888,9.80385213463391558263993,-0.00944320746684526937664295,-0.00282980561994165651096278,-0.00212666943999110288204824,7.32266578271602686101005,5.51390503361698769424493,1.12879560453486660343003,1104.02844476666268747067,1106.97772158656675856037,1105.95142197024870256428,1090.59392134454174083658,-376.570976745787277195632,-253.837788336255414378684,888.653715978508330408658,-61.497079482252445359336,163.783042326394792098654
2.49250000000000015987212,-0.600224070328466030588288,-0.11471481860400233043773,-0.540001320941603024650135,-0.0166585437263956984144109,0.0329263987992896370315954,0.0160751061078910385815366,-0.00138615689172500214897121,0.00290001454826750021398496,-0.0451777328639264147414067,0.998973583336616011152387,-0.153370509205002891750524,0.059268838007680728352522,9.80526602319871720681022,-0.00943399576547932806891428,-0.00276554369125172738036467,-0.00214601908296864051645114,7.32264433080954102450733,5.5139004291730504547786,1.12878823154193463906836,1103.03284128142149711493,1106.27438107993089033698,1108.39556574202356387104,1090.4909463481274087826,-345.150126815731766782847,-248.58270722666549090718,851.010715123056797892787,-2.15931030038523275038642,163.78308126282908574467
2.49500000000000010658141,-0.153580182126496017636086,-0.0316447886953605261872724,-0.792958762718168563843335,-0.0176449147801168264304561,0.0315233086983913793344136,0.0136420521868943264015561,-0.00138413575882032850034031,0.0029269168838566245009758,-0.0451817311276270644482267,0.99897332565685448280135,-0.15330999946081341755999,0.0595430274965833145062177,9.80656701439718681001523,-0.00942353600763313342669747,-0.00269828098223308518108232,-0.00215387103869614602441596,7.32262229551256904613865,5.51389627023138917394363,1.12878110459692071465554,1102.30269413258406530076,1105.73480805043345753802,1110.20647554586389560427,1090.58312479303981490375,-268.030152860006921855529,-194.667366157959406791633,623.813813513074478578346,77.158943078076674737531,163.783112023502582133005
2.49750000000000005329071,0.289481659613551545184862,0.0775176872140760225837752,-0.96560928965909154086944,-0.0164369242849025237740435,0.0308580892910041391929976,0.009593394259172433394256,-0.00138424992038414210356045,0.0029562371926223742282791,-0.0451912648390732085701416,0.998972805609472769283741,-0.153392431968655401641755,0.0597616326612604234491677,9.80772108961999222742634,-0.00941240655971686997205428,-0.00262863323531534100879758,-0.00215106195374526083796685,7.32259895143590533450606,5.51389238645399437643846,1.12877416031104149674036,1101.69269051712149121158,1105.30104424914111405087,1111.51463480958886975714,1090.87674106351778391399,-243.100652367143709398078,-159.806011016056572771049,422.504743252611547177366,164.591121788274762138826,163.783138453654260047188
2.5,0.757281910031432081709113,0.207763438403845285273874,-1.06268579895486903197366,-0.0131116399500330865074416,0.0311110310249914680247318,0.00473751855947236386046306,-0.00138740193107457433947804,0.00299071735614807017802907,-0.0452047547683567321752385,0.998972085584950098002821,-0.153673304363842383457595,0.0598919359508641030442888,9.80869512499578810604817,-0.00940100534315941628593638,-0.00255702465634025447038802,-0.00213870371588725273481746,7.32257456814722296201126,5.51388788288605358189898,1.12876772288319782155952,1101.08719087074837261753,1104.93577799535319172719,1112.31899926212690843386,1091.40608040198117123509,-204.597698042884786673312,-107.044727882478142078071,161.648612513048448136033,206.438593507941590132759,163.783162270886236910883
2.50249999999999994670929,1.06816890776837603027616,0.286978233978758379141283,-1.06418752447991216136813,-0.00958953638235377110732305,0.0322305240660731087687374,0.0015712435530451116048184,-0.0013905549025532478596423,0.0030319316150988293717683,-0.0452190632894123381579909,0.998971308779496469654191,-0.154185624794077547061733,0.0599806248261309515878992,9.80945820546863345157362,-0.00938970195954344846733797,-0.00248383648812854551310436,-0.00211809232776860372968186,7.32254968354328639179585,5.51388283265353607021098,1.1287619719958579267427,1100.66970202690708902082,1104.76582060972873478022,1112.32287787215409480268,1091.90893403105746983783,-152.945131952177320044939,-41.1037408458477884209969,-120.436611962670966136102,186.081397577440270652005,163.783173492459297904134
2.50499999999999989341859,1.2907675285852089341887,0.305048138238858901338801,-1.01671687605762239847706,-0.00624247354430827045002061,0.0341683655261751026421813,-0.000331968656073976914853974,-0.0013855249295983823858841,0.00307517631389519954104861,-0.0452330227109465354828899,0.998970552946713441500037,-0.154841033181988635414328,0.0601820005705275620777606,9.80998327507979972494923,-0.00937895493215220275862176,-0.00240958568660496570343343,-0.00209053038792637348175507,7.32252487898240467245614,5.51387806768250499089845,1.12875659301797548472734,1100.32246521098750235979,1104.73025929112395715492,1111.716816202313566464,1092.33648738986835269316,-129.147674528579074149093,7.53374015307615696457333,-319.391140803288635652279,135.718368497694598318049,163.783173400899840999045
2.50749999999999984012788,1.44785033692876541344674,0.260052760714800379471257,-0.954794008775522562437743,-0.0032969876541265475539122,0.0364605227414382879191912,-0.00139172680390420582148547,-0.00137131530248871041574588,0.00311689290642915700635385,-0.0452473978091774212129117,0.998969793323812305096965,-0.155564501227937856953076,0.0605097770807677542981295,9.81024712080983185558125,-0.00936931645575030114247994,-0.00233491340108785399437563,-0.00205744550311002648984582,7.32250092131372731785177,5.51387433940112181574023,1.12875175167292707278932,1100.02396365426420743461,1104.80348931049411476124,1110.72592216813768573047,1092.58752587354592833435,-108.392023909793309144334,56.8838046449816658878262,-454.258062612340211217088,33.8974876864972287648925,163.783162224562033770781
2.51000000000000023092639,1.53673755312901128000647,0.145542490268038310352594,-0.89292836003588438309464,-0.000436953231334171181710763,0.0382977989430672710602366,-0.00238172102011989473765996,-0.00134974103602209048041738,0.00315744231465985708551258,-0.0452636745908684759442941,0.998968957602340723589407,-0.15635279374107097227764,0.0609204712276441712193176,9.81023080539538661071219,-0.00936137030049231412542898,-0.00226050445963720631967209,-0.00202035846487718263181366,7.32247825666541629630046,5.51387221232658930603066,1.12874728097782894842283,1099.78050509143849922111,1105.01467831434888466902,1109.4455258892517122149,1092.50597482830085027672,-92.9774128387117286820285,129.644711272649487909803,-587.503968408015111890563,-130.775367402511875525306,163.783135692368887248449
2.51250000000000017763568,1.56788593081828064867977,-0.0352659525473466017864155,-0.816937305460434748383136,0.00364506509292668139099458,0.0386556735855763944353924,-0.00471562448141216866703829,-0.00131987706293224308327916,0.00319683204421299538983137,-0.0452812245406292515625957,0.998968074951908757697083,-0.157195852896714172164394,0.0614261813902849118651517,9.80992083007563486773961,-0.00935563599352608188386426,-0.00218688473361032271330417,-0.00198073279835848372817941,7.32245616405763399825446,5.51387121793006418357663,1.12874244256796707475132,1099.55907659007061738521,1105.45171286685740597022,1107.78840232609741178749,1091.93364903653332476097,-66.2641199399800342462186,196.132123318106636133962,-602.58788378433939669776,-288.239034756503997414256,163.783083622440187809843
2.51500000000000012434498,1.5260034121963661490895,-0.184447809487817609985782,-0.741674364630036442314065,0.00767316236022986403186863,0.0372693740774963852557811,-0.00752478289903231109536641,-0.00128497550177638524861179,0.00323791614174738463446945,-0.0453016717317975825540799,0.998967058433365528991033,-0.158133784841473723492555,0.0619558047607722053862211,9.80930923239995600226848,-0.00935242787372908730703092,-0.00211430094502569219591659,-0.00194006896491158258022391,7.32243392431191431057869,5.51387030080873064008529,1.12873743097309908733905,1099.44918449173860608425,1105.99533893093939695973,1106.43258647033007946447,1091.06477965451836098509,-22.4928656944034877085414,261.30729311185507413029,-517.911833029586091470264,-409.663448456567152788921,163.783021628879708941895
2.51750000000000007105427,1.407837182621267224647,-0.295493834641310626487609,-0.64861167004192388230166,0.0118428655510673663808774,0.0351159913312729249357247,-0.010106583804855852684601,-0.00124969127128227901549207,0.00328638670541773645836225,-0.0453265555530606364942336,0.998965815531479006672555,-0.159259424580502517709846,0.0624094845244117790716842,9.80839397381499189521037,-0.00935184460436958193974011,-0.00204261956410016574242627,-0.00189993326144732334326282,7.32241081689377626418036,5.51386909079322951043878,1.12873275493766400678908,1099.44661226159860234475,1106.7582493324166534876,1105.19884316094953646825,1089.88533179425053276645,31.4969667375869342151873,390.673589268143757635698,-507.565917896419591670565,-550.048808592066848177637,163.782938325990386374542
2.52000000000000001776357,1.18132896056775993365306,-0.370658064592571778739227,-0.529421022052047440809019,0.0161266973245542157011645,0.0327885836108570624669589,-0.0117994119118623695674497,-0.0012205819497365611933648,0.00334313902043157328003442,-0.0453535002346017457330873,0.998964443493431275555849,-0.16056850564511843115767,0.0626558208253902709783389,9.80718022245214804399893,-0.00935388330187199128207265,-0.00197130433160064852740612,-0.00186182375254699615345355,7.32238683897500575170625,5.51386674657750575079262,1.12872819233608701061655,1099.60666932542653739802,1107.948706877280073968,1103.89475688084803550737,1088.31453561155808529293,90.0868722512787911682608,481.014938175131874231738,-452.893829679633768137137,-566.870378799342915954185,163.78281150447384106883
2.52249999999999996447286,0.932537701425841247804271,-0.393781770602809000347833,-0.439909626853401292123635,0.0187074127737578387031814,0.0313915510038670977910336,-0.0121137447648699825286656,-0.00119823489884297407041813,0.00340395163432112134865859,-0.0453836440344709407535007,0.99896290245725027912016,-0.161960973151419052040723,0.0626859509162383116143147,9.8056805903645720690065,-0.00935851775926112815218172,-0.00189973251430423473000431,-0.00182712959401167278523925,7.3223623659929808482616,5.5138630497814959952052,1.12872366294267045816468,1099.89704662285498670826,1109.16332402329226169968,1102.93437401255141594447,1087.05097990025387844071,148.965439819406583410455,524.519014466761518633575,-370.289441981375318846403,-456.849057331110714130773,163.782681883431138203377
2.52499999999999991118216,0.638118469485742245694837,-0.400153620917526708922196,-0.372680356714309879428981,0.0202731959182019735865588,0.0305435489797707127035409,-0.0122305236505594085161253,-0.00117700120520618689741454,0.00346328728441911695354327,-0.0454146329815557081577282,0.998961322693374009773493,-0.163315953596891716426143,0.0626159118222094773775765,9.80391472440222067064042,-0.00936579110453818371173629,-0.00182727559534914688402218,-0.00179721157346417995288868,7.32233812313579868202851,5.51385840395329918095513,1.12871888559738153823275,1100.35149652452355439891,1110.57130194961382585461,1102.04330967094119841931,1086.0302903249025803234,203.672938127333310376343,585.900582973739574299543,-355.680113978595102253166,-345.176985554424447855126,163.782525701946269691689
2.52749999999999985789145,0.316914930948302642210734,-0.413670013569772343497988,-0.322353170047425419131315,0.0211728374865917980118812,0.0299792748403328035422533,-0.012823751073068446679204,-0.00115314769184195198281628,0.00351663108114726999028909,-0.045442103552794196885678,0.998959921505571113442556,-0.164530735722290405442791,0.0625249307222620065438434,9.80190897619909229376844,-0.00937580271152287265945535,-0.00175349939495421294072264,-0.00177350259078731028322684,7.32231456873372277271983,5.51385305199876807336068,1.12871383622764742682421,1100.91541131349163151754,1112.09282693816089704342,1101.15597344265847823408,1085.32509497248179286544,237.760118632361212576143,621.350413717349397302314,-362.669117856033210500755,-189.112852039021134942232,163.782346468718998266922
2.53000000000000024868996,-0.0274043715844047991447852,-0.457477484454557326021273,-0.282349501481160836124928,0.0214607135323686241956676,0.0294771823932271741230959,-0.0138148650965576776095123,-0.00112294573140228918714523,0.00356064025770822748656608,-0.0454639420352308601391833,0.998958811599632845457108,-0.165525861004933438902498,0.062492738730127977975215,9.79969617150806371341787,-0.00938861722160798384262392,-0.0016784057937885286156815,-0.00175754601602968064250065,7.32229153331739812671231,5.51384719912483678427861,1.12870905190179016130969,1101.54029711768544075312,1113.67805401820078259334,1100.22996408166090986924,1085.08472606470741084195,262.826413712792145815911,690.005245992095979090664,-415.855976510801269796502,9.57052026992577253849959,163.782138641292050351694
2.53250000000000019539925,-0.458110890903209166946652,-0.563642336024282708528688,-0.234237016073297582563484,0.0211715235303414905931874,0.0285939759286457963194383,-0.0147288128660011431725341,-0.00108725548821958549819411,0.00358913430654795575711069,-0.0454797154183396445947807,0.998958034353000789984378,-0.166162882461074551398994,0.0625137961396796948410071,9.79731584520848208796906,-0.00940418193391000072078878,-0.0016025179289963352880638,-0.00175094424786847589932404,7.32226912002947827318167,5.51384145036657180583006,1.12870417983236093206756,1102.22954338205568092235,1115.54285316812160999689,1099.07669356010433148185,1085.3729475738314249611,221.498903504202814929158,659.646287225737523840507,-420.170737523412640257447,198.82601096310705202086,163.781855744212691661232
2.53500000000000014210855,-0.822721964996891763632902,-0.70318735329057380223361,-0.188163910427329633678895,0.0202968674485934919005103,0.0274354753516112166711327,-0.0152066850166319763454359,-0.0010476466242002944843914,0.00359993533060835998668714,-0.0454899056898924181169264,0.998957575613249160184637,-0.166382113440449813657196,0.0625676306576235796708119,9.79481269369663998247688,-0.00942220669572162161653495,-0.00152692392233219923977638,-0.00175547301048850764790266,7.32224747719793267464183,5.51383653727784128761868,1.12869933576461978219641,1102.64779163520643123775,1116.9762854543293997267,1098.12911039404389157426,1086.07885611952292492788,113.759260075860467509301,526.773656192028624900558,-357.076552752876864360587,367.013386813422243903915,163.78159217075543097053
2.53750000000000008881784,-1.17462024987853475010979,-0.896638994487743978822891,-0.129878242259453102747102,0.018489640961171248390027,0.0258033781087835256684571,-0.0156803622092576838698008,-0.00100777278168698628500743,0.00359800738767621563693466,-0.0454955733780905702268171,0.998957367600162737808489,-0.166263082821498070495991,0.0625894601008963463728563,9.79223534933329098350896,-0.00944206364590280920745524,-0.00145321252939315578162072,-0.00177314045760488723200987,7.32222552056547737464598,5.51383313785162521014627,1.1286948878320774980466,1102.79833968243497110961,1118.17672144908169684641,1097.29131079633998524514,1087.20801450789849695866,-6.96648046923670616337176,451.773514321949335226236,-318.857143317979989660671,570.684908380338470124116,163.781300326168150149897
2.54000000000000003552714,-1.54768378490456992579993,-1.18541308068843420642224,-0.0396483049111096136352117,0.0149085706854600284765322,0.0235088169190970017186082,-0.0160525372575325946111757,-0.000975544923053280684140109,0.00359140468403645060982421,-0.0454955747444862682038469,0.99895742698118616953451,-0.165943424711133241666872,0.0624316573585180500938208,9.78963601897393864703645,-0.00946279276005353858769453,-0.00138326496214972202540572,-0.00180606609285132889072822,7.3222026505271324836599,5.51383138317648224813183,1.12869188951129384435035,1102.61295923286024844856,1119.23515302593909837015,1096.534824677454025732,1088.93228066142455645604,-124.263164341212274166537,311.064760462756851211452,-221.161984827499679795437,669.666949854232143479749,163.780918769481957042444
2.54249999999999998223643,-1.78605019694907363181358,-1.46309890729565950096003,0.0554933573544962033263772,0.0107146333656000600914604,0.0212957865479053293222833,-0.0161020539244788249422236,-0.000953168207527387099237126,0.00358554209973028495048175,-0.0454913896510949974927307,0.998957665095478675176821,-0.165515971450851728796749,0.062063257976477166633078,9.78707006426873604709726,-0.00948320152187391920972637,-0.00131917084602426555248189,-0.00185619461287503872623517,7.32217891967640888140068,5.51383196121202967532327,1.12869120536106493091211,1102.17702386072892295488,1119.73204525139544784906,1096.18550087220251043618,1090.55634925716958605335,-210.261186517304793142102,106.924266486660144437337,-71.3142468033781113945224,653.425432716099180652236,163.780576081516784370251
2.54499999999999992894573,-1.91115747378938127809533,-1.75480116991185886021754,0.173613780236450687688432,0.00576166418586837245086052,0.0183154032186292475836709,-0.0160175242162162827230798,-0.000938602941730736438884219,0.00357852080436430516202639,-0.0454869834412823803582171,0.998957908180677756071475,-0.16493623700539691845357,0.061544965971527802739427,9.78459517002518808226341,-0.00950203809447356002870766,-0.00126295754294650989894844,-0.00192493114520391069531546,7.32215420253734894373565,5.51383464333520301181579,1.12869200207509656763705,1101.561653300273746936,1119.76977435837238772365,1096.17825344343714277784,1092.1994078250049824419,-270.639199806925091706944,-99.74169533252492669817,75.1676204017728792905473,683.878700169285366428085,163.780209765091598228537
2.54749999999999987565502,-1.89408810198731147877993,-2.07390076106735232741585,0.341812653482944150962197,-0.000416617046331724250052275,0.0131318648329876476454903,-0.0156278146901503919852239,-0.000932454913382584288719657,0.00357008862965448210691211,-0.0454829061602568876510055,0.998958129247302761832827,-0.164191453846609630717879,0.0608860765292348546373624,9.78226828205074916411377,-0.00951814150611669448909247,-0.00121616466024410878159212,-0.0020130234575503028367216,7.32212872830770944432288,5.51383860746412146625062,1.12869405520535792675219,1100.82382786169432620227,1119.23333677473283387371,1096.5613389742113668035,1093.97574275801594012592,-238.332086296879708697816,-299.829916742671912288642,196.982597241035705337708,589.895352759054958369234,163.779745158818144545876
2.55000000000000026645353,-1.72167647657248923387385,-2.27156126756230936081238,0.500489463834143832876578,-0.00570117711473107271341609,0.00719122912606388626360898,-0.0148007319685656626995218,-0.000934987920237232632107716,0.00355974706224790110251077,-0.0454789935711938098084062,0.998958336666996848940414,-0.163266105965502617003438,0.0601033561797322812836342,9.78014388954374958018434,-0.00953059386547803338851637,-0.00117967939200286885126356,-0.00212028044960670168997408,7.3221023381959193798707,5.51384342455259535142886,1.1286965205756052110786,1100.36999286878926795907,1118.27062477465892698092,1097.16316642964238781133,1095.14888458880045618571,-119.886483436622356180123,-497.283527262164227522589,281.943785350566997749411,379.50994921659167857797,163.779338531346297713753
2.55250000000000021316282,-1.37532654227390249701557,-2.35214077741182814307308,0.670366105254586619466295,-0.011041503034332929983341,1.57595681310072552316903e-06,-0.013504135598345470836712,-0.000944823925260532054490326,0.00354103882680743223959619,-0.0454755366464389410019464,0.998958541592537385689354,-0.162031242350828497134074,0.0592501919631174822633568,9.77827273872850355473929,-0.00953887652342189952536788,-0.0011536299313843387769063,-0.00224531481278324607925301,7.32207574911639369474869,5.51384824611852764064679,1.12869781011581760132856,1100.22439544451117399149,1116.7469191384218447638,1097.97105790096429700498,1095.87329250409902670071,-0.283543010209547585720458,-702.080742145714339130791,342.219396715297989430837,204.365384410770985823547,163.778913037262952911988
2.55500000000000015987212,-0.893274241602242558002445,-2.31574001090979475492304,0.841798986653542136160411,-0.0158743042648217570766978,-0.00747551828036181319897535,-0.0121937577519657894958849,-0.00095799169518751014790886,0.00350796691677984339569063,-0.0454754648589255350277227,0.998958636643639263930083,-0.160370493122090285176284,0.0584279707908943804484103,9.77669885652290027167055,-0.0095429140335460647948107,-0.00113739020409810175950283,-0.0023856838500107735608069,7.32205002827358431005678,5.51385238845833036691602,1.12869702197053989323194,1100.3685751537382202514,1114.76022106393043031858,1098.87426341321884137869,1096.17071151085428937222,115.460669259757835902747,-895.567870709029193676542,367.739624362646850386227,13.4834806797246677945168,163.778472634589746803613
2.55750000000000010658141,-0.286083959676693477813814,-2.14106697229846698604661,1.00103875425775434848674,-0.0189325704016473708724,-0.0143023539236870333990481,-0.0108425232602872116671744,-0.000969391370494796953891092,0.00346279420109521594156599,-0.0454790869738141909084383,0.998958604739665578797769,-0.158330664841322438229909,0.0577495961853089628812441,9.77545664631730737426096,-0.00954299021033045390127736,-0.00112952506897841839332564,-0.00253822603387194407550953,7.32202560147324899020305,5.51385558503927875051431,1.12869411709563416401636,1100.80169879080995087861,1112.26907978487679429236,1099.80975602277749203495,1095.94070990749764860084,221.863957605505845549487,-1180.61791346697441440483,403.334609860493799260439,-213.959818834114230412524,163.778014838264624586373
2.56000000000000005329071,0.501306997719607405628039,-1.80805462337562472541208,1.14641226695976805594057,-0.0193539306371986463695123,-0.0207668605386237513366066,-0.00817489192730355349048033,-0.000977170331507623730893375,0.00341238649657666943265655,-0.0454842413129062927978907,0.998958522951640781606386,-0.156046085798028588698116,0.0572560978916851134878918,9.77456991136688024823798,-0.00953958819899342579107238,-0.0011278862257528760645181,-0.00269924224281023819593806,7.3220022927770624932009,5.51385755673845245894427,1.12869017744405208958369,1101.47789494176572588913,1108.85713149659568443894,1100.89093646252126745821,1095.10091241668374095752,242.705254082971521256695,-1284.4198623737884190632,382.1352518282391770299,-387.538012309013595313445,163.77744574036375979631
2.5625,1.12749093367619868111262,-1.46961656905915449833344,1.19773049466401393381432,-0.0166462813645694360231708,-0.0244575329133787620905505,-0.00431959558971778574687495,-0.000980810420992713491786241,0.00336055304921544341703599,-0.0454892492914381954549619,0.998958457134673794008961,-0.153590618654639021745112,0.0569597099439763179806739,9.7740517603986134531624,-0.0095332330223698857896153,-0.00112983576781396782839906,-0.00286452691071714411058524,7.32197901695012376421801,5.51385781868480240319741,1.12868547619769277190471,1102.01522506122478262114,1105.84698047300798862125,1101.72043228191864727705,1094.00301984595262183575,179.152182781539693223749,-1182.97170665807948353176,310.855963932642509917059,-497.401910730797396809066,163.77695503287614542387
2.56499999999999994670929,1.63051225968641366748102,-1.12106541301683182432214,1.14467992285475705926956,-0.0113130416875821537825431,-0.026492662412580050140809,0.000874081813775797584163685,-0.00098104125009894718213721,0.00330191750149938685610085,-0.0454940171618403860209767,0.998958429195807795508699,-0.150858107312905997954289,0.0568503732136909287198101,9.77390460989248310852417,-0.00952441800081004277811481,-0.00113248447971074552714787,-0.00302935891036084769395442,7.32195578878667774347377,5.51385635067527068997606,1.12867869467812642625404,1102.3736558556734053127,1102.94227296330541321367,1102.4452162821844467544,1092.61390286302980712207,102.567472085868217845928,-1185.9004521066506185889,287.199514475338901320356,-643.695971932052202646446,163.776447105329026499021
2.56749999999999989341859,2.01463592065208096926199,-0.739179768561408323535034,0.959769024774136392252899,-0.00349032598749329531911956,-0.0277818380313392537805939,0.00659011851775001024356104,-0.00097668080582368637689028,0.00323493475742934154248953,-0.0455011860454017924570991,0.998958325242714439973213,-0.147819527527090988083813,0.0569456161249486531028552,9.77411842809113551311384,-0.00951348549020495162786837,-0.00113297660684803683066313,-0.00318891476659308951285832,7.32193299802713504220719,5.51385386533427279687203,1.12866932570665357005169,1102.52806242165411276801,1099.91747821247486172069,1103.15642985429531108821,1090.78453998629242960305,17.6163524571624421355409,-989.18616934231351933704,226.429443979082236637623,-670.543075042192640466965,163.775818181727828459771
2.56999999999999984012788,2.12463465218649449894883,-0.470977961035173919857044,0.737022028075886126430305,0.00326363598891476732258288,-0.0284290625000079288930976,0.00956180503856871553958197,-0.000969908195956147478784815,0.00316649531362017504221296,-0.0455130834828194053010009,0.9989580124433979912979,-0.144608432240294515480628,0.0571838663733814714373871,9.77467079784281089871456,-0.00950055187687115151873307,-0.00112860263003476809715031,-0.00333864228013170012687727,7.3219099084726373405374,5.51385068312410098201326,1.12865773024791349321561,1102.46173761795921564044,1097.99634211659395077731,1103.57736350207983377913,1089.26118748781891554245,-42.1345891414119932960602,-608.520999689931045395497,120.055506021018203455242,-578.671919141112994111609,163.775279032881684315726
2.57250000000000023092639,2.01728522127360987425959,-0.261656819909799998047362,0.508089085896351821958206,0.00956070637259794423035153,-0.0288324440544537943797998,0.0100408037556241804683088,-0.000961393033609642361052294,0.00310090506598278362743182,-0.0455266497675953923929271,0.998957613059589744075595,-0.141310421724124168907366,0.0575301133454186111593209,9.77552938933603954296814,-0.00948556162830269979091558,-0.00111687884135082036128617,-0.00347434207839012604290829,7.32188679379265927593678,5.51384651782035817291217,1.12864450082692346910562,1102.31738947594703859068,1096.87487321402500128897,1103.75670738440044260642,1087.89118039058666909114,-45.3107169635556061848547,-304.819055360601282700372,21.539751262478969096037,-504.992839375620405917289,163.774726557852090991219
2.57500000000000017763568,1.7504434180188539471601,-0.098067257391350401429797,0.323661074774364843076313,0.0148784374924875867352014,-0.0290972860798688198746831,0.00886607261480468374081898,-0.000951983722168651914571913,0.0030401588894355732056729,-0.045535319054348474820948,0.99895741845986407714264,-0.137967416521015434627273,0.0579434250950665447055243,9.77665349667543637224298,-0.00946828990744656880107488,-0.00109571089544781676353158,-0.0035924229681839271906274,7.32186388276580135681115,5.51384141520184467566423,1.12862966228893468745298,1102.23518403314142233285,1096.47224683979084147722,1103.68506225839223588991,1086.7362232909406429826,12.0721840521585210836975,6.42554645087343523357504,-98.5185879540061364423309,-399.472891888862591258658,163.77416544953885590985
2.57750000000000012434498,1.33233402015382562666446,0.0188799909827581414989428,0.229005315959488947585854,0.0185501639721440368668848,-0.0291446979649893911368252,0.00701219990423896776671198,-0.00094540494542319833664451,0.0029830966784592832970191,-0.0455363036597363907143077,0.998957556112886391197492,-0.134559262483267882970495,0.058325955693406192348327,9.77799615253948495308123,-0.00944831913236787723775478,-0.00106365710113059952490744,-0.00369010007402119930355888,7.32184109641988190020356,5.51383578627944981320752,1.12861302501894034122643,1102.37775039620782990823,1096.90700094627936778124,1103.26411444463042244024,1085.89381593114239876741,142.061182388718719948884,355.646214287761097239127,-269.063059808883110690658,-301.48303877677523132661,163.773597714460692031935
2.58000000000000007105427,0.715361435756361796478586,0.118008299325027099513363,0.219466355834960324955318,0.0211266838987636054736363,-0.0288918379175745060338798,0.00537059477453377155653502,-0.000945475771084886137604619,0.00293233730631418856166226,-0.0455320937633345856898615,0.998957902301597644445508,-0.131142124234953916239732,0.0585726352352575405091351,9.77950604508515297652593,-0.0094249603428744454375332,-0.00102008849293185239505422,-0.00376573076710787343554521,7.32181839199317341382311,5.51383000045403637301433,1.12859547306120644449834,1102.94548994508500072698,1098.25047791122960916255,1102.33974695934784904239,1085.2288080970567989425,280.960696321250509299716,596.051004058257603901438,-401.462474019589933504903,-200.244136935957328660152,163.772914756139869041363
2.58250000000000001776357,0.146464885180812881548817,0.176001248377282371038177,0.267370715225364041778278,0.0219729133641294489820428,-0.0284785932666945969249372,0.00516698295740772219758474,-0.000951457782632229376665323,0.00288974217269241358610476,-0.0455246564742067677533655,0.998958364328403458642924,-0.127764404374674206410489,0.0586679665427165195068504,9.78113077268883479575834,-0.00939728963923364656041226,-0.000965178025348302579683457,-0.00381888194829870918772796,7.32179525855152668611936,5.51382472043941973538494,1.12857786660098957653986,1103.78255387781405261194,1099.88725596657059213612,1101.2568020745325156895,1084.89259524646263344039,399.503205326490729021316,713.337122430281624474446,-475.156068350780628861685,-115.350844587285521924969,163.772349384754051015989
2.58499999999999996447286,-0.435003276876007094475796,0.220835315073923649231702,0.31416140609415926787662,0.0216220290600009842907347,-0.0280696968409734209926043,0.00661063584291794476693882,-0.000958539710290661037435378,0.0028490897526191349443947,-0.0455113679408232843504045,0.998959083115538715169635,-0.124323419527582634813712,0.0586848387765458584519607,9.78282015226082890535508,-0.0093642502700550713651273,-0.000899816769665739784288261,-0.00385025279163077544311578,7.32177183976851608804282,5.51382044373935542580512,1.12856017070561498449877,1104.94300597171741173952,1101.81716352338094111474,1099.96396661759399648872,1084.65205387412038362527,551.260940573513721574272,857.906439863491073083424,-572.97900807713028825674,-114.351040273779915423802,163.771794855497461185223
2.58749999999999991118216,-1.09815669897278977984456,0.27350978495068023477188,0.300412460060656694160741,0.0196992393761754244763118,-0.0278686607090087648530563,0.00989550968175053127784402,-0.000964922451844476333077116,0.0028060697061896662171665,-0.0454914274524993791914973,0.99896010825871184302116,-0.12075461895985604987569,0.0586386503153926916254157,9.7845281472780403220213,-0.00932463556464933375489412,-0.000825595312219765922918946,-0.00386186292993895069133869,7.32174819585900316099014,5.51381710927467949545644,1.12854333231353254340945,1106.53885858068156267109,1104.17678816588795598364,1098.39190703414692507067,1084.3208400450937460846,585.639782899546617045416,833.389431820359732228098,-539.474293222986148066411,-141.986421800041455298924,163.771149679261839082756
2.58999999999999985789145,-1.58406165760359018968018,0.323173226248874956301194,0.200148325856234210462503,0.0166035850966493488123366,-0.0277709718189989539227636,0.0131668554078610833268925,-0.000973149182004983109156582,0.00275868383910811247605732,-0.0454679927218358259644049,0.998961299275711533951494,-0.117038384734640843465314,0.0584623916157343062605101,9.78621545379322377300468,-0.00927714916694167938959747,-0.000744714711231925620762984,-0.00385697453888237708208298,7.32172446698154288924343,5.51381474179364516885471,1.12852823521190681610449,1107.87120488621508229699,1105.98411068248265110014,1097.26659515147912316024,1083.94212176512019141228,494.106303933916308324115,652.748150830576832959196,-363.517892770662911061663,-170.922605234397735785024,163.770633386844878032207
2.59250000000000024868996,-1.95313171978440092146911,0.378108135230397213177866,0.0104482187044491192651208,0.0117220518003482692542816,-0.0272609602954698507226716,0.0154888830794426193143698,-0.000984450236609065451945377,0.00271017672770645966576208,-0.04544310600024695223631,0.99896255420351909304344,-0.113262286653333460462179,0.0581157964421674944066609,9.78785163362615406867917,-0.00922044068506211803026851,-0.000659813262456991882903834,-0.00383993292661525750797402,7.32170107151715576776496,5.51381343616683228248121,1.12851571813477646877288,1109.00939010035131104814,1107.4405289200410607009,1096.57431757029348773358,1083.46622701892169970961,424.648512701622621534625,530.80907640938733038638,-162.554397074643873111199,-208.140090266064873958385,163.770143010173228503845
2.59500000000000019539925,-2.21181171968669776362049,0.439491213505106004255651,-0.26761502205516052299572,0.00413251288956658930501264,-0.0258997230194702096617299,0.015489168120426159702685,-0.000995638575823280412221972,0.00266587411251024411149024,-0.0454210753128295938174652,0.998963666925816173858266,-0.109561860914190817295477,0.0576497765045419427454298,9.78941700788466029337087,-0.00915315066766069634907055,-0.000573923126120473928168941,-0.00381577718782193835503347,7.3216774740133949705978,5.51381349577577850595844,1.1285060196257481468507,1109.99444744972333865007,1108.63815606452976680885,1096.45382316610584894079,1082.90142131378979684087,290.477801486946930253907,335.41009888550240702898,88.0469961032322885330359,-181.368148477535441998043,163.76958687042474593909
2.59750000000000014210855,-2.25174960235832921640053,0.477890296528633851114165,-0.485930613128277621992623,-0.00288035292318072075681834,-0.0242676553494461551274686,0.0131820614601492972634,-0.00100270667337257896045699,0.00262582521536043177884379,-0.0454066558130605049670159,0.998964425795293431420419,-0.105973022402962704924256,0.0571431530873600865283457,9.79090377122092725414859,-0.00907401102416136376427325,-0.000490253183903989865968787,-0.00378971464144341055671483,7.32165358241298491748239,5.5138150702173307493581,1.12849825816152460333797,1110.46177910778601471975,1109.11757941446853692469,1097.01455255080963979708,1082.55938627653404182638,123.182254756559714792274,78.9836105307602736047556,355.090581490874967585114,-83.3311520454135035151921,163.769150742093415829004
2.60000000000000008881784,-2.10827025776909682264204,0.498250171392603802278387,-0.633847689772373157346408,-0.00963124248586690566431567,-0.0225932268863322099905488,0.00985773064038791141383555,-0.00100243929155688468908558,0.00259404663914498999702229,-0.0454018860453094044715705,0.998964731139894923650502,-0.102610720902369473295224,0.0566628243704333650621052,9.79231571525529176369673,-0.00898185805492029108731966,-0.000411928687937636154887261,-0.00376693430430947171286271,7.32162936963569688231246,5.51381838316149419654266,1.12849220148723561329973,1110.61035872350612407899,1109.03307411718355979247,1098.22927607356018597784,1082.48476555356273820507,22.550822381254445048171,-124.990524981151722272443,574.104860528735571278958,25.9468989838756982635459,163.768741879670812977565
2.60250000000000003552714,-1.83217080678845323227222,0.506679281104343792740963,-0.702149904786579015514292,-0.0153720630669452063693514,-0.0211425376761411321080431,0.00669322494925524928005567,-0.000997643615023378026174239,0.00257504020408554556639813,-0.0454064356707507971178117,0.998964582604104700536141,-0.0995953836414578685953813,0.0561640219491098685589137,9.79366764905443787370132,-0.00887576628242342513530616,-0.000341749805867600105722948,-0.00375225340474563901285721,7.32160429972173698587312,5.51382335176813409560737,1.12848774826018827255325,1110.57453321969228454691,1108.49262678956279160047,1099.88507685345325626258,1082.68912077145341754658,-38.5305998898737982472085,-315.776127850774514627119,731.152061494519443840545,148.465679471431457159269,163.768353643996846358277
2.60499999999999998223643,-1.43880699253929833503207,0.510139974056094680499029,-0.67556428292729375773007,-0.0192897103858237564666389,-0.0199788399074630612650694,0.00421688752732575500292711,-0.000988193192692871265336851,0.00257119612367467205091276,-0.0454147157668638792871185,0.998964226909289876310538,-0.0970090447397108923688336,0.0556667917537203432720716,9.79498411211870667614221,-0.00875521273099316883758991,-0.000281994797730939611955792,-0.00374980777986132565726685,7.32157853431487382067644,5.51382959299559427535087,1.12848543189154737476088,1110.41770572405675920891,1107.45419347792972075695,1101.88503638103270532156,1083.22709395091987971682,-80.355124514746322006431,-548.335091851015818065207,903.638008576782453928899,296.456026630000394561648,163.767986521981555370076
2.60749999999999992894573,-0.89512660119443976380893,0.522325943701166917065848,-0.557905621476907365163811,-0.0220386567672085503799551,-0.0187627037389752407414711,0.00228443845159955047016687,-0.00097522343441036303882119,0.00258036417799788588348098,-0.0454201429435543702073375,0.998963967537280672637223,-0.0948429447107139722561442,0.0551749788448950215236088,9.79629718042091113261449,-0.00862026462305836779775881,-0.000234284815635857162057637,-0.00376271956539566245283912,7.32155225814265797623648,5.51383669916627106033502,1.12848558416610633692301,1110.17275759711856153444,1105.75095133030777105887,1104.40326689633707246685,1084.17140090460338797129,-96.8023599227783648757395,-676.5190844323259398152,902.993206944594135165971,375.430941418752638583101,163.767564238991241154508
2.60999999999999987565502,-0.425628157628713588156444,0.547360441546088094533218,-0.412564640912262803329469,-0.0230377304294622081703992,-0.0177967081236989725645525,0.00136470540074004782760131,-0.000961434682922693382295387,0.00259455236692486199134855,-0.0454200773775730315406918,0.998963941742099015286271,-0.0929705174021279168172782,0.0546702387129499728368742,9.79764374034330209894961,-0.00847173682934112583231556,-0.000199529173155811432758752,-0.00379274175566305955104029,7.32152635629121473215264,5.51384468340483113735218,1.12848721583630218212591,1109.9336939244428776874,1104.07159805576816324901,1106.40000241575557993201,1085.10424865801360283513,-108.006145393112078068043,-691.697671608925361397269,737.61811819226318220899,375.663728685705905263603,163.767222433465889253057
2.61250000000000026645353,0.0191048086804328706711509,0.593183158465410365067783,-0.245733540857659193967777,-0.0228866255990842377976424,-0.0167844313608644865598585,0.000750825894429500619725593,-0.000948755663315795430556854,0.00260926486735391571433751,-0.0454153600346296551504288,0.998964120454149173689018,-0.0913309510680520297842833,0.0541478770983490273471794,9.79906248265401025321353,-0.00831119247333060237603597,-0.000177814949394115991935378,-0.00384012901784665195911717,7.32150175022958826787089,5.51385277136574902812072,1.12848927202781990075664,1109.63272687015296469326,1102.29246297226291062543,1108.09135748729863735207,1086.04971954803204425843,-152.277114431889174284152,-765.036834818959732729127,644.336228134127054545388,388.948191901655377478164,163.766884307186330715922
2.61500000000000021316282,0.48871259778072501100965,0.671542580075066730671551,-0.0483545668189099692169108,-0.0214396169768288347157181,-0.0151121618484438210994192,0.000320740911403686159222848,-0.000934630009109289373869789,0.00261938665693014658894522,-0.0454095729559273950104448,0.998964356642830342281059,-0.0898507991348339862813788,0.0536915306851997037318469,9.80059087768701076015532,-0.00814090941576464839635197,-0.000168355562146999438062622,-0.00390340509825650621225646,7.32147939478954246084186,5.513860145675241852814,1.12849097815622778639977,1109.17230835228338037268,1100.24641388167310651625,1109.62168355642643291503,1087.04898961752201103081,-181.881413281056893538334,-707.966765850930300985056,471.101419358602527154289,326.340035551500136534742,163.766474051059788052953
2.61750000000000015987212,0.809181718212093614717162,0.752580488242273748511479,0.0946366546396026214749142,-0.0193414066480130548975058,-0.0131575597217881128803141,0.000365092205319431345033471,-0.000916940769498189871440641,0.00262060127968903469955486,-0.0454022282738372126575932,0.998964687038578436073522,-0.0884664030581146371146062,0.0533734913344822564651437,9.80226199829605704394453,-0.00796366712071715394938298,-0.000169372061240463049180266,-0.00397936658943398666871127,7.32145943179076930107385,5.51386601458312064494294,1.12849078031026661683711,1108.72331980374769955233,1098.75262914300833472225,1110.44686458409159968141,1087.68141972578951026662,-176.425632780778073538386,-527.591514916832579729089,246.717652313787567663894,197.926966552590442915971,163.766121454489422148981
2.62000000000000010658141,1.04508929843345521604192,0.846778219970932277682607,0.192474522117051516367781,-0.0165443340181919903986163,-0.011003446971086445690946,0.000963666824877688465295078,-0.000900156782932823545766154,0.00261316935354860471057981,-0.0453909386417139931735321,0.998965216948645262640127,-0.0871918057305069160722866,0.0531295476739235966734398,9.80410163870504725025512,-0.00778242935724254934065636,-0.000178229672622438748341364,-0.00406330406089157759180752,7.32144098788127806187731,5.51386942834746296426829,1.12848670803633721604342,1108.29018018837950876332,1097.60845630708899989258,1110.85527181799534446327,1088.03862445028494221333,-156.431331151546743285508,-404.633396173957862629322,113.323295406874109403361,88.5783203914816823498768,163.765748749757875657451
