t,ang acc x,ang acc y,ang acc z,ang vel x,ang vel y,ang vel z,quat x,quat y,quat z,quat w,acc x,acc y,acc z,vel x,vel y,vel z,pos x,pos y,pos z,mot 1,mot 2,mot 3,mot 4,dmot 1,dmot 2,dmot 3,dmot 4,vbat
128.205000000000012505552,-0.0526412924422456698914097,-0.0397518382239139544953588,-1.10403922341844440424552,-0.00762370381867264433617404,0.0229728377260417192251563,-0.00403870397796151844871382,-0.00539192160615708116627731,-0.0117602572127753282615892,-0.035603432334311457818643,0.999281952009494545130508,0.0923991878296257229674637,-0.0858313503338265226805248,9.9932415737216526707698,-0.000150730007898615858859259,-0.00181726527427812775336569,0.00455068794652245534049229,3.6467732092397353582669,1.81759487797193908242832,4.37908252279326770661783,1093.62029462513191901962,1122.2284775221451127436,1116.14795364732026428101,1099.70676293500127940206,1305.66917708848063739424,173.416937682780741170063,1835.67382338063521274307,329.199007608603267271974,150.939607189340620152507
128.207500000000010231815,0.178329413737756070634788,0.241907904518778776870036,-0.83685349436771849784833,-0.00809255553035858818389237,0.0224209763140375724355113,-0.00685348872464306042850968,-0.00540267339712522786515647,-0.0117329201916611652184441,-0.0356036558511455478170937,0.999282226023665454128775,0.0957020924977037001912805,-0.0857705920374465524691487,10.0154518986255407497765,-0.000108665793142430588914468,-0.00199184193606101586290769,0.00488760616134492273388013,3.64676924405043401122839,1.81759473227033141462528,4.37908740018114528425031,1097.34652731116239010589,1122.68920562871926449588,1121.39289262600050278706,1100.66139325462427223101,1365.41178581948361170362,166.183958861362214065593,1967.61792592794108713861,374.646404858389928449469,150.936646293783354622065
128.210000000000007958079,0.420686107441696544029242,0.550517627323892866364474,-0.587832867177109474887686,-0.00788718811885613484136126,0.0228654597379000512624714,-0.00845384254820177004352555,-0.00540331487364141809653928,-0.0117279818230103319298685,-0.0356087602287540119783138,0.999282107935630992123777,0.0998528681784815741462324,-0.0852333434572195569600694,10.0384138288798112625955,-4.59899265162952138128599e-05,-0.00218218697290671267974282,0.00531435053086809060934881,3.64676471237776489431326,1.81759584049197631117067,4.37909614683403436430353,1100.44735355422312750306,1123.05939731645116808068,1125.98604327695102256257,1101.57999495929152544704,1174.08204314631257147994,142.995202069362676411401,1827.64644561864565730502,394.990163644065432890784,150.934286156825038460738
128.212500000000005684342,0.70446864136550280122151,0.917167882759864161457131,-0.340549243954852920435172,-0.00689260977737703606910147,0.0244431793792007218124596,-0.00870436297266015748808066,-0.00538415956974514463284631,-0.0117332044965974095773742,-0.0356172348511567121720489,0.999281845493086073872746,0.104534530035572642558961,-0.0839956267270423329041051,10.0618794580627035628595,4.13384756219703324020553e-05,-0.0023884311850983900617218,0.00583272444566131260945685,3.64675998915601207173154,1.81759737214253225268124,4.37910771470702986363221,1103.21693752688861422939,1123.40418163906542758923,1130.53112485408541942888,1102.63634407284280314343,1089.59659160990622694953,140.929335838646636602789,1923.52763656219713084283,493.706563031849952949415,150.932049759974944436181
128.215000000000003410605,1.07174569960087540110294,1.39551762221596220570063,-0.0690883327143330533415266,-0.0050103271873210893788686,0.0275070789128543345680722,-0.00797834238814277944829012,-0.00534510420385244083146814,-0.011733468927943481105447,-0.0356293716955298489512671,0.999281603984992550238076,0.109364413154856038312701,-0.0820273012006028923170931,10.0855826394808687496152,0.000156617643819977915824876,-0.00260981077534167601322812,0.00644401138081947093272372,3.6467547002731772742834,1.81759781220946337043642,4.37912185298218403772808,1105.89533651226770416542,1123.76404399564376035414,1135.60368145975326115149,1104.04852777444853018096,856.146489223243520427786,121.455081704535999165273,1752.68007078157347677916,536.027476923196445568465,150.929521667838741905143
128.217500000000001136868,1.37803461460012766082173,1.8023136522940770287704,0.132906386804931053724488,-0.00255002826647503059998012,0.0310180918363493381140206,-0.00742493813158377150701606,-0.00529304360303388485992082,-0.0117157286780276374132947,-0.035642979450171898003763,0.999281574209107459338952,0.113992987207372192814958,-0.079442944415956756598618,10.1092424795495308131876,0.000302323689028525654110685,-0.00284465071983150971993148,0.00714920816552257979564766,3.64674863155927697633274,1.81759698261896907034441,4.37913837132619487846341,1107.49766997300093862577,1124.01145704758755528019,1139.29452520798531622859,1105.31648145745634792547,512.211201046477299314574,92.2938651276966055547746,1322.14315045491480304918,515.755995159239091663039,150.9275525046942618701
128.219999999999998863132,1.65007819717617754129435,2.18544605390707680214746,0.319492726081724909281689,0.0013902385140423987285041,0.0357740208160404610238103,-0.00732555076209377622337149,-0.00522979052554719409107165,-0.0116734560908211201790685,-0.0356571526212758962981475,0.999281852463685393850312,0.11818943264285639016542,-0.0762570083185651614865463,10.1325702876309993172299,0.000480058378819345416606973,-0.00309031139651066988349726,0.00794921578363831649038929,3.64674187110482472817807,1.81759521365318410524026,4.37915578164508190184279,1108.45639251749776121869,1124.22551332128182366432,1142.21439721202182226989,1106.62730775024238027981,294.269453052442486296059,88.3262884712970191003478,1017.01085178239463857608,522.236566831699974500225,150.925734174725988623322
128.222499999999996589395,1.8666303258051570868048,2.52288902410814053212107,0.501506556699241823338298,0.00646520773787327956289017,0.0416558557391846218109777,-0.00717882978875815803282423,-0.00515227797715517212701064,-0.0116014518405855287380701,-0.035672595840816369305859,0.999282489253825678687804,0.121741048481258745672662,-0.0723928493372157644270004,10.1552777767943638309589,0.000690349883968259417192648,-0.00334325343472370931086068,0.00884479261383709636223927,3.64673493903636591895179,1.81759206424117492062464,4.37917098712526620118979,1108.96901723826181296317,1124.45308848994363870588,1144.37957946689266464091,1107.92766429161247287993,133.297633008063087345363,107.916536403816209599427,668.160065264481204394542,505.440214697187400361145,150.924045859526245294546
128.224999999999994315658,1.99252329126309613016588,2.77565528806837757969106,0.678482370767955034196461,0.012259822359679324599302,0.0486184700865169433514623,-0.00622133329451676764243473,-0.0050565310456626138407854,-0.0114959398129447151748472,-0.035686890435505998209198,0.999283634576962342954687,0.124460552976000865532669,-0.067766495301418844254826,10.1770810725320757228474,0.000932513787852029866175252,-0.00359916821907396060689632,0.00983610974763901232953422,3.64672898801842571003817,1.81758746372811152980375,4.37918153559817646680585,1109.12288068253747042036,1124.76509600330041394045,1145.55519753834119001112,1109.15450882372601881798,41.265518128958561305808,173.181883463005931389489,283.18697310986243564912,506.15216654005610052991,150.922519015951081655658
128.227499999999992041921,2.02872173035259173445866,2.95220374670292695640228,0.873353120206722843832381,0.0192424558430566924882577,0.0580005330686216846736158,-0.00396205931072996994646296,-0.0049393968284966597095953,-0.0113670373869810964473359,-0.0356992920369666594249125,0.999285210298937021100585,0.126446396411668521286842,-0.0623126476346181901178056,10.197698032105035892414,0.0012049515495561379050532,-0.00385309272284561866658836,0.010921856017797153259874,3.64672501589128650323346,1.8175815431634136931649,4.37918706166533855395073,1109.17534482890641811537,1125.31899790725788079726,1145.7955143324406890315,1110.45842512431045179255,39.4600084155985868505923,240.48300630910532049711,-100.567237700216139728582,438.207117996660770131712,150.920878029773717798889
128.229999999999989768185,1.97115876789155763937345,2.98365042333667318530388,1.00953003793765594409138,0.0246190574190667012255407,0.0665252459570928461607409,-0.00150037437980781525499741,-0.00480671798734881930426077,-0.0112284867183081987079829,-0.0357110710308829876202807,0.99928697905740604401359,0.127884986080306822797681,-0.0561604170568424931886398,10.216858196998817476242,0.00150520224489694080631519,-0.00409971223072691601935214,0.0120980889042549260431469,3.64672354594656455972768,1.81757363445526665124419,4.37919172507031895236196,1109.32018072461528390704,1125.96751103484484701767,1145.05236134984056661779,1111.34554441370733002259,122.179536513984714929393,299.124126590895343724696,-474.749394506677674598905,302.341376659262721204868,150.919672450821735765203
128.232500000000015916157,1.84537189168825932483742,2.90316154312294871786548,1.10685039950433550259845,0.029062906897302686476392,0.0749378865038111408036769,0.00132527817605389373195601,-0.00467079332737630088800973,-0.0110867465475866303070696,-0.0357204571215384292237616,0.999288864293547240968962,0.128827951205289198410853,-0.0495937927498296959871737,10.2343175017374399260461,0.00182992167545943835993416,-0.00433356584791294574543485,0.0133574354729651921525058,3.64672450319455387912626,1.81756305202796220044092,4.37920129251060163966258,1109.78624251147925861005,1126.8146185402194987546,1143.421767359895966365,1111.97013200761398366012,310.718569550198253637063,408.962256398720398919977,-889.634716630125126357598,208.939435626646684340812,150.918637410538309495678
128.235000000000013642421,1.64692669521662793385985,2.71621847449162023835356,1.17065523403814664149536,0.033094583202637056773554,0.0836035748675218459702307,0.00508939068593509263971342,-0.00453835064995312779945191,-0.0109423436585256335373817,-0.0357251990216439427316963,0.999290904146026282006687,0.129212621865042370794541,-0.0428039969571380740642752,10.2498675913400791870345,0.00217514829541546467206459,-0.00454903861654188702845492,0.0146890267740643794269761,3.64672746647466716751751,1.81754906831917639742358,4.37921860535539764214263,1110.87377357237369324139,1128.01232231684821272211,1140.60418776666870144254,1112.39024159184555173852,492.513014408625622309046,456.421680200316075115552,-1145.87465619192312260566,102.270115559578940178653,150.917594745189205696079
128.237500000000011368684,1.45821725012129621568135,2.52694114652268231324683,1.17873582088433304093655,0.0355558427772838803182509,0.0892939039299479181410746,0.00835742368508201292909288,-0.00441358221569733335382102,-0.0107945785961374093875342,-0.0357250897969614150673223,0.999293091817134104815068,0.128962223557298333309618,-0.0359451977892450702523064,10.2633370120876552533673,0.00253666981335797696653356,-0.00474074867713145196163049,0.0160789116657844670388311,3.64673130701560443966969,1.81753163635296788314122,4.37924539205226270865978,1112.24880758352014709089,1129.09672694121900349273,1137.69239407894156101975,1112.48148258541141331079,632.673297517551532109792,432.419056002875038302591,-1238.64402460288943075284,-4.6896508411506960811721,150.916893203781370402794
128.240000000000009094947,1.24700262329453348542074,2.35187649146742483452499,1.14621708013061640585306,0.0379063405523704863298029,0.0938165297690640581640409,0.0114286656155680784591189,-0.00430949435266943410571816,-0.010646699726498553076337,-0.0357183449685743586998754,0.999295394653278767904681,0.12810121410867705837866,-0.0293631570549592324503863,10.2745888890357459644065,0.00291032781506612905214615,-0.00490434898779768240623111,0.0175107502618740452915436,3.64673547730659475263337,1.81751161055268539712415,4.37928498429512114142881,1114.03714005995857405651,1130.17441759686062141554,1134.41096764365988747159,1112.36679333763981958327,844.178302748463579519012,450.308794603143098811415,-1474.20379556408465759887,-73.5121031992762397067054,150.916366284135136766054
128.24250000000000682121,0.947187013722154524941743,2.19519119378183091839674,1.07545229403305819815273,0.0413875925225035065646573,0.0986098629812646038095281,0.0147915051972761744936147,-0.00423707347893390994658658,-0.0105041180058361143662138,-0.0357050776267048425305362,0.999297700973162172921604,0.12671281799035763460104,-0.0233705442909664801165448,10.2835279209164554004019,0.00329206955563957504723449,-0.0050366197379038213713387,0.0189671132614187658294025,3.64673980864355007369682,1.8174899882048287658165,4.37933976797849844331267,1116.46969909725862635241,1131.34827091423267120263,1130.32137510112784184457,1112.11392206941536642262,904.795793057114451585221,397.886327778767622476153,-1484.27831060629091552983,-89.4672993454509821731335,150.915936295813708056812
128.245000000000004547474,0.639740704038749830040445,2.11687642910165552123658,1.00424759441036082208143,0.0445784936617845475859134,0.102549151979469219120311,0.0171627689914326288234125,-0.00419780936412065749929745,-0.0103635985281896932791446,-0.0356846220523445722960787,0.999300060611591378645358,0.124711456894595534850012,-0.0180985111933003040007861,10.2901097009978421681353,0.00367746936165602809204467,-0.00513543913705514967066312,0.0204312096596520470503933,3.6467440569585574117184,1.8174672427564879662043,4.37940878789287957317811,1118.56111902524003198778,1132.1638492357526502019,1126.98957609063518248149,1111.91945684091297152918,809.384444782799050699396,286.254485372852514046826,-1271.36509342137401290529,-46.7009007755647900239637,150.915746468889665266033
128.247500000000002273737,0.262820764447616650461015,2.07985239095253104935068,0.937490691813620546923858,0.0470385995607908030669009,0.107027509417827348947583,0.0189555253516820558512546,-0.00418283027737107251931015,-0.0102182213683319460945098,-0.035654914273757470910553,0.999302655567551934012727,0.121943839069898446458851,-0.0134711689414960533728305,10.2943361572688054650371,0.00406173277870171614556405,-0.00519978898586689539107475,0.0218885548635104343340174,3.64674882511840525722846,1.81744344426406367887239,4.37948817757665143091117,1120.51662132116894099454,1132.77954334109563205857,1123.96454963402675275574,1111.88041756553775485372,735.639738925770529931469,217.200299451694434083038,-1128.8824325755549580208,27.821890505336178023299,150.915730867653735458589
128.25,-0.162250979914571907825049,2.05592399935020431200883,0.8834522905346052779052,0.0482888506820226548477137,0.112157973371368499537759,0.0204344640385638771917787,-0.0041795101949765808835302,-0.0100638229481414299970599,-0.0356151642827187905893105,0.999305610416699185982736,0.118326751408085545369531,-0.00933176239805227902834872,10.2962470722918144616642,0.00443992263457025464201688,-0.00523001678220630806387392,0.0233281509977142122169713,3.64675522896376191894774,1.81741911861469063182994,4.37957215177652425808219,1122.23931771986553940224,1133.24985073301013471792,1121.34516392776254178898,1112.05856629343952590716,615.296711544047184361261,168.559929089195577489591,-919.539723886482079251437,137.297843689418471058161,150.915858685860513332955
128.252499999999997726263,-0.614980103389304089134271,2.0197484102316405341071,0.84642403182001002548418,0.0477282051859149111794345,0.117815792834269794653324,0.0218713523938025150572528,-0.00417094735711849746995217,-0.00989371035084163873152274,-0.0355657309293037071640242,0.999309052822723864473176,0.113737631076057971180049,-0.00543259581278551784144781,10.2959199322026986322953,0.00480678460469701959723032,-0.00522783331116673591343336,0.024743080562328188115595,3.64676442914946230544615,1.8173957143480841125438,4.37965384099692389696656,1123.59310487888637908327,1133.62234298654084341251,1119.36685101459852376138,1112.56690678398422278406,501.448164501517965163657,171.406656485734316675007,-693.274265671191869842005,304.959340962982366818323,150.916157350232595035777
128.254999999999995452526,-1.13722587557407872616011,1.93665694652029962696815,0.810940832227611707594406,0.044831756959251303773506,0.124772924526829337432687,0.0238946914437201188285975,-0.00414838291635450003014274,-0.0097074208680330564824601,-0.0355053613755705044230382,0.999313066223181611924531,0.108202824116355261763189,-0.00168243178691795947088394,10.293457876800083283797,0.00515735013231514646814269,-0.00519683330386318340782248,0.0261299396481300856553975,3.64677721714509672779059,1.81737493087951551551384,4.37973084120826694487505,1124.74655854237084895431,1134.10688401543802683591,1117.87879259940973497578,1113.58336299825305104605,344.891415904471500653017,209.513371627062497282168,-386.57026173021819204223,434.344851463978898209461,150.916709489670836319419
128.25749999999999317879,-1.51555150573211250275563,1.8290681851775112409797,0.774524585793769815289522,0.0407692752748288270159271,0.130088391427621630214162,0.0258553449251853889601094,-0.00411490424962132530367631,-0.00950146089340127807110203,-0.0354361880705029719251797,0.999317586841726224200499,0.101708811596699172374869,0.00177541902657170347357152,10.2889911679668717425784,0.00548687623518898191093962,-0.00514248184763172432043543,0.0274878389795667373018961,3.64679336138225895780351,1.8173575982346614754448,4.37980210701284899954544,1125.31756195840716827661,1134.66990984467520320322,1117.4339997059491906839,1114.7386310413021419663,151.479249131990826526817,287.116495438601418754843,-14.0670180435918759087599,508.094763143033674168692,150.917327542318844280089
128.259999999999990905053,-1.79851400773190239767985,1.69126521777351923603305,0.711997020566799698748639,0.0356586973969571160991698,0.134163783254001356404217,0.0278085306622550612609679,-0.00406789406508376374937974,-0.00927599002961523172450242,-0.0353641832451926582669977,0.999322406199987689490172,0.0943248756000593935322485,0.00493187981377753159595301,10.2826734567817190679762,0.00579149257849365887290682,-0.00507074943385034219989205,0.0288171777349175983751195,3.64681215677608472347515,1.81734397197759700581798,4.37986610550373001160551,1125.50395478803011428681,1135.54246649262972823635,1117.80845750919183956285,1116.12383681396590873192,-2.43317774516293239273068,478.799391012470380246668,331.010792383295665786136,631.511782813760419230675,150.9181044281343986313
128.262499999999988631316,-2.00731995441087018861026,1.50934864160565451740581,0.587253261946848237329277,0.0291386828509944476039983,0.137837380903153505773417,0.0299088670957204788569683,-0.00400670451821596128316738,-0.00903657241980959473337531,-0.0352927770283690198094284,0.999327354478603435694595,0.0862414239763855394738101,0.00775466453077493234058437,10.2746767004022618863246,0.00606857521160477676736011,-0.00498799971066473443043199,0.0301180062149400545878919,3.64683314617747056374242,1.81733334156809567261348,4.37992371541280345326186,1125.30539606968136467913,1137.0639067997353777173,1119.08905366786416379909,1117.89618995536807233293,-141.822219440478363594593,642.801033139608307465096,576.571176528589603549335,642.808318024367736143176,150.919213252006784387049
128.265000000000014779289,-2.07143636099436312392186,1.35107261433459480137742,0.430226372331608819532534,0.0237274732382260385155082,0.140421123333305530866966,0.0314929770881310563956923,-0.00394132897443409072751885,-0.00879812661129322076680737,-0.0352261342299081472995148,0.999332110478433843780977,0.0778543587759947530724247,0.0100157019498390009726307,10.2651860032769324249102,0.00631731385155112450113801,-0.00490100010276402903164339,0.0313883697388077573253717,3.64685552493028719567292,1.81732527650796349405482,4.37997941367876109097779,1124.79484369082433659059,1138.7564716583431163599,1120.6913133918485527829,1119.33787840410309399886,-277.32775692219911434222,755.968390831804867957544,700.657935708269633323653,542.748702203198831739428,150.920278488562445318166
128.267500000000012505552,-2.03217646591174405656943,1.18063796756712413582591,0.208783719298081704707215,0.0185464375003123842222674,0.142928097472453691230143,0.0329789014190923351899087,-0.00388977447949490030484898,-0.008578878164429006719649,-0.0351686261282724496601837,0.99933628151425157870591,0.0696349713657872515515379,0.0113418677338351647776449,10.2544027985145849157789,0.00653853909000955829666779,-0.00481647233978445016983061,0.0326233332804845219121681,3.64687781035502345261534,1.81731939535413045128109,4.380040435628234085641,1123.91875728506374798599,1140.84374875391245041101,1122.59234334642223984702,1120.60993346639702394896,-414.087156457675575893518,880.538996178102479461813,766.754412887955140831764,468.281794455122792442126,150.921482404100117946655
128.270000000000010231815,-1.92047927790504679990136,0.987401898565077096314724,-0.0664603858213482223682433,0.0136969828175619538074281,0.145545586530438392225406,0.0342998204529941300156004,-0.00387052539451875109513534,-0.00838148737547488031918164,-0.0351185225009752813307706,0.999339824015873068319138,0.0617338853704599566096789,0.0113544620598663714705623,10.2425544930878409388697,0.0067333864716034030895031,-0.00474046662362015772118617,0.0338151035020116882967578,3.64689913060991166560143,1.81731467168843896509145,4.38011245347479238887445,1122.72440790853784164938,1143.15916663922962470679,1124.52508545628484171175,1121.67928737637657832238,-557.907313673384010144218,942.558023052781663864153,731.679187885612577701977,377.097232452321918572125,150.922795130927426043854
128.272500000000007958079,-1.74038050130613419774761,0.747539465803673142119123,-0.392830869365073442889269,0.00941970940049152369311081,0.148143904463138242899589,0.0349540786327518296361383,-0.00389985412294255751747274,-0.00819645779612703656580308,-0.0350743565381748806375484,0.999342801372343214616478,0.0540482335942121527860849,0.00972885242770926694788614,10.2298896292050205403257,0.00690324820382272504037946,-0.00467789301058027344459855,0.0349537939688591287046293,3.64691925087009050088227,1.81730925932556175439458,4.38019908024890813891261,1121.12922071669936485705,1145.55653886917207273655,1126.25073928584697569022,1122.49541962865691857587,-792.966078423017279419582,1011.17673827680948761554,661.897387305281768021814,315.512337521309291332727,150.92423179138157252055
128.275000000000005684342,-1.46951739741531017813259,0.387136840959566186359808,-0.802825342131212149610064,0.00513029459908532266959602,0.150546889064250871692607,0.0338421695043333026209353,-0.00398221647407464088286311,-0.00801207763320733838685594,-0.035038438868687654670353,0.999345212934384274916511,0.0464172359530716505116033,0.00639764891943227220760804,10.2166706056131548763233,0.00705014827263226832865239,-0.00463173549418088685569739,0.0360288680183752096919392,3.6469377132103160121801,1.81730155612806698606221,4.38030092352770861197087,1118.75957751642636139877,1148.21505033060907408071,1127.83457239280824069283,1123.25684906398169005115,-935.589057494130997838511,890.720649652203746882151,476.834523836602613755531,262.061391747431173371297,150.926090068034852720302
128.277500000000003410605,-1.21338716136468605100163,0.0210672991496742463557457,-1.11770050588395086776927,0.0022512461227036872045415,0.151687766772447357732645,0.0308454543062744064585434,-0.0041081482253780762792239,-0.00781952407129852741785037,-0.0350112040050597553286771,0.999347157457811219316568,0.0387227498365500244492665,0.00159224511032884930017417,10.2031675028541908289981,0.00717680577832652700359661,-0.00460307642667822421861379,0.0370308835815774187172345,3.64695441913467410799399,1.81729123944809911606058,4.38041531812144491198069,1116.45127542923296459776,1150.01014211742904080893,1128.63491190502782046678,1123.80572658739288272045,-970.128763076327345515892,583.515398334096516919089,201.641799006985507958234,225.280058127350713448322,150.927744263328889928744
128.280000000000001136868,-0.938448554272276469490066,-0.40908360026898082928426,-1.35650962712138145604968,1.5792762121124279996176e-05,0.151778581680993729374762,0.0265059265672174561301322,-0.00425459653985746713567018,-0.00761927087173431324268469,-0.0349913783750216145218559,0.999348774211969437253344,0.0310180803422620832154877,-0.00416284068141528629247716,10.189650686330372408861,0.00728690492840444476591033,-0.00459136307140218732913972,0.037953064690226558097752,3.64697002774207579278709,1.81727925444797810961006,4.38053714861351384257659,1113.90893370104913628893,1151.13262732227690321452,1128.84278138784225120617,1124.38324935461741915788,-1135.05080709522644610843,310.270135153232558877789,-39.2813136208945081762067,278.352230696080710004026,150.929500955923089122734
128.282499999999998863132,-0.594534817193260289869272,-0.981810265127283088304466,-1.52109706801651545227116,-0.00206433998650042442243868,0.150273000173590409733748,0.0209557291927734909431358,-0.00439042170231327549823064,-0.0074163901984090627519941,-0.0349797417262436294294048,0.999350125964503233078062,0.0234343017023238286977715,-0.0101676152301736905103624,10.1763869589122641912127,0.00738464199021971433312128,-0.004595047684625429805505,0.0387924342653798576163737,3.64698528903258667455134,1.81726675966130768458129,4.38066022929572085331529,1110.77602139376199374965,1151.56149279319379274966,1128.43850533692352655635,1125.19748774087202036753,-1131.47694228349018885638,7.58859061757683672766461,-242.6752065540701437385,321.734702564773897393025,150.931719611471464759234
128.284999999999996589395,-0.299027806691388009507904,-1.48636338422164970829442,-1.54955819306294984016859,-0.0033843772893696246611972,0.147376270756836874609164,0.0163808093736632735815117,-0.00449769798041686329898026,-0.00721412424851683182353002,-0.0349734108239361241032839,0.999351362532509335245834,0.0160629021238985481012662,-0.0159880679013713333791458,10.1636312266452932817629,0.0074741022081024344192457,-0.00461354700639866541211909,0.0395500527773459814584456,3.64700019004972464387038,1.81725446407202873011499,4.3807815272595256317345,1108.25154898963683081092,1151.17057027536475288798,1127.62940535507300410245,1125.99192286743982549524,-956.775142115617882154766,-279.449661513198805096181,-395.88230260923944570095,334.087556562630254575197,150.933655203814367951054
128.287499999999994315658,0.00145708690902830728663986,-1.99229036637443046586782,-1.47425267185235986389102,-0.0041268847810753007260276,0.143019403456073890268385,0.012079653861949972426526,-0.00457307133025175883284108,-0.00701513666817905629652374,-0.0349689344630021436977074,0.999352596268197501672148,0.00898242751147096396557856,-0.021481155683688968327516,10.1516171930255598709891,0.00755925912253395306666937,-0.00464750247022278385744531,0.0402307004225606265612747,3.64701451510604002237415,1.81724206656081910260525,4.3809006307854803097257,1105.99214568318825513416,1150.16424448562906945881,1126.45909382387912955892,1126.86792552368365250004,-838.529523094383421266684,-464.35676380694019371731,-505.019629765552053868305,351.853053249807885549671,150.935674581225327983702
128.289999999999992041921,0.298981406614330591509088,-2.48016327304249672991432,-1.32990128477705771281592,-0.00410027511710547940687599,0.137612188238446592203346,0.00831495831665706418289741,-0.00461871962836176829653168,-0.00682127589511506444291955,-0.0349660792722546118205251,0.999353816724288135375787,0.00224824860679928573148345,-0.0266100244141161818012264,10.1405513855370532638744,0.00764383351369941378694595,-0.00469811369168983937461004,0.0408424038719509552297637,3.6470282053065505856182,1.81722886693815488534653,4.3810175805979536534096,1104.05890137416872676113,1148.84878645633216365241,1125.10430720624754030723,1127.75118813368726478075,-678.020838980390180950053,-543.241473252140394833987,-557.778734047003808882437,336.43547489267479022601,150.937759019619875289209
128.292499999999989768185,0.578923382195248192871873,-2.92520460691653472196094,-1.1310323809133797645643,-0.00311298711145249068499297,0.130846869436725632418472,0.00540242928902024809739713,-0.00463871287545154862425045,-0.006631663226966227377146,-0.034965518907583537089323,0.999354996727887634477838,-0.00414790355893848716739569,-0.0313729886592884754659138,10.1306077257198499097512,0.00773096222063315852146559,-0.00476695192928582294616957,0.0413959004305905139964317,3.64704145094711584818015,1.81721594210448933459645,4.38113236752610735180724,1102.60204148828938741644,1147.44803711937083789962,1123.67020015364664686786,1128.55010289814549651055,-521.926416862070141178265,-566.364969314896939067694,-616.133944151001969657955,307.715334318103941768641,150.939916833711635035797
128.295000000000015916157,0.872757805088785865166301,-3.3864764582766255784918,-0.869583348580228676638626,-0.00110313164954664024927644,0.121371038055232804975248,0.00293015279530284451781075,-0.0046316238531103198772243,-0.00644034992504560407922121,-0.0349680027663132469983864,0.999356166324846806325866,-0.0103290307427535144046971,-0.0356571510460178264789732,10.1219244391097742408192,0.00782283158212634943673436,-0.00485536332700436858850201,0.0419041551014742788550116,3.64705455958740554223141,1.81720441779931762837919,4.38124357177303913601918,1101.44926928984591540939,1146.01696160974415761302,1122.02363748547782051901,1129.28976480528513093304,-324.937904624488567151275,-445.309757801907949215092,-572.167453041853264039673,219.983634501563841467942,150.942584804547209387238
128.297500000000013642421,1.06543749449821878449995,-3.69766632139553541591681,-0.659600961834360233204677,0.00123866199303772025509807,0.112710753852983888712025,0.00175305721759729600701949,-0.00459894609237698499121239,-0.00625499794696201052990325,-0.0349743985124351466908799,0.999357248540247766754874,-0.0161471542242428711677604,-0.0393974206799415360702454,10.1145909147587325094264,0.00792215436820477118817774,-0.00496493826647906050936188,0.0423813259169100037260236,3.64706739696923865068356,1.81719496017303572266144,4.38135093679993747883827,1100.9773519651591868751,1145.22148833035066672892,1120.80936288842372050567,1129.65002107065856762347,-96.3797967575795837547048,-214.716619444938913829901,-437.024487584619237168226,80.1624919712868688748131,150.944869287460932127942
128.300000000000011368684,1.18339113402315199152781,-3.92278917400585180885741,-0.481341922894402252097734,0.00440121482507043262910607,0.1036019117240986608941,0.00131570438303163310921062,-0.00454686563153691627320319,-0.00608497200500991534954931,-0.0349856434868976717833533,0.999358134799126718306184,-0.0214217094031752264271518,-0.0426223882303373713398287,10.1086493352040296400673,0.00803111502810579039324246,-0.00509740941666828040190751,0.0428421704827343374777371,3.64707992777745504398013,1.81718777077914639406231,4.38145540902679542227816,1100.96737030605845575337,1144.9433785125204394717,1119.83851504755671157909,1129.69057726514120076899,85.2738079589792334900267,-10.5537554878633770272245,-359.959585880742395147536,-58.9530870669559163843587,150.947212372388037238125
128.302500000000009094947,1.22018545565099922889374,-4.08396224295822563021829,-0.314640768265282366744628,0.00904933020024536495518053,0.0922024563099406724298035,0.00112839542972827523541202,-0.00448575975135065418974989,-0.00593184211294606883457803,-0.0350020022640912115141631,0.999358771037483828436621,-0.0261296105272062206825723,-0.0454529755389934675413599,10.1040969920649832403114,0.00815043683652962556995814,-0.00525429631979087291560049,0.0433014808356701613734074,3.64709281499390991498899,1.81718215017988948822847,4.3815566500714711040132,1101.40372100495369522832,1145.16871955291139784094,1119.00956495902164533618,1129.35525563532405612932,218.790535833858285741371,153.131153832921995672223,-243.417083628213191559553,-183.974229644158157270795,150.950086461276157479006
128.30500000000000682121,1.16042211948772622243098,-4.11975991855654388729135,-0.210711753135233742506571,0.013078181803219452242204,0.0820972786892565919991682,0.000870288638500807984303698,-0.00443361648702007577621531,-0.00579924165723183070858537,-0.0350216340691608882251806,0.999359125967065442530668,-0.0302014186506433246481862,-0.0481670951894248855484904,10.1008825738487857393011,0.00828014430601291782918505,-0.00543687458513716914687564,0.0437732249855002433780449,3.64710652358275178031022,1.81717683796496998205328,4.381655622985500819766,1102.06132298522675228014,1145.70903428168435311818,1118.62142962941675250477,1128.77070611692124657566,301.343813497216046926042,251.355803649540888500269,-89.2671126410634911962916,-289.622546838281436976104,150.952529812142245191353
128.307500000000004547474,1.02122869256945625338062,-4.04605712096469360972151,-0.128045130292602865607066,0.0163319022039799324752529,0.0713459377743045908282227,0.000464069812229561879431822,-0.00439113427842356338071106,-0.00568700264965131280919808,-0.0350391982348497305066459,0.999359384863935495957321,-0.0336555897887293731240987,-0.0507039108676624605820393,10.098917872697152020578,0.0084189874848038699639563,-0.00564383971864726007722224,0.0442703207987954761026828,3.64712137431195815295837,1.81717064218012303022931,4.38175324847084102231065,1102.91044007243840496812,1146.4254985711579593044,1118.56322939581673381326,1127.90714290113396600646,387.566919135122191164555,310.44567074210175405824,52.5598022570671332687198,-431.852720508397283083468,150.955019043468610107084
128.310000000000002273737,0.798269483208495445047959,-3.83649405732394610524238,-0.0320684469579283967788363,0.0189220530213130497254603,0.0586600780646421016140124,-4.87725037737455721534134e-05,-0.00434693410707609733528711,-0.00558840459732580941559776,-0.0350516273584140503061235,0.999359739386479262179819,-0.0366473215255425088798802,-0.0527727196829612110740015,10.0980816465059817232941,0.00856434717997077779583215,-0.00587156981320583869904395,0.0448041729947350267360129,3.64713751685861886642215,1.81716247207341186076235,4.38184959411325891665001,1103.99915758090060080576,1147.26126263539345018216,1118.88422864070184914453,1126.61144251438122410036,387.734873447823474634788,274.695451783622672792262,181.888126788709882930561,-507.073116716407696458191,150.958054271525156764255
128.3125,0.596483218391991920626083,-3.58022243867746370327154,0.0590338881101080126256875,0.0200915996439225211234181,0.0492496227994652854831337,-0.00043215809559193273060515,-0.00429279794320022375919699,-0.00550304534044459246755476,-0.0350562045136477082318827,0.999360323729385657820501,-0.0391968479443756956381861,-0.0541540460163282832972698,10.098216840536203164902,0.00871354520285579775551454,-0.00611555153271954501231766,0.0453838887116577230362857,3.6471555207600236947485,1.81715155943162898211085,4.38194511922693141769969,1104.84911443967575905845,1147.79897583007482353423,1119.47267002975945615617,1125.37177731755423337745,303.318778974156259664596,159.690464603417865419033,294.388225206188849369937,-515.13749156171354570688,150.960620027493774841787
128.314999999999997726263,0.409909752306737873439602,-3.27635167426147777547385,0.172656006447905741030269,0.0205432140219444156481465,0.0414057833326518381911185,-0.00069047297333833270154696,-0.00422459441269199594687356,-0.00543181497351988892136054,-0.0350513885860999838128826,0.999361209523759619344219,-0.04128907431883335754641,-0.0547234028716423459570706,10.0991386292789044887286,0.0088636483777424605878803,-0.00637072933591741052961055,0.0460159706190983244789017,3.64717590693229665177455,1.81713723409483263182551,4.38204069664941719963736,1105.51575147577000279853,1148.05971495840981333458,1120.35616976673145472887,1124.03575505657499888912,223.540410001417995999873,50.4329553961728649369434,388.708273724513389879576,-541.585924021630148672557,150.963218887696541514742
128.317499999999995452526,0.251958478675446684302841,-2.96266387970374145410801,0.307222048323901486543974,0.020640310502215836879758,0.0346545808803928392927141,-0.000746649507567519210050888,-0.00415122415531521318093899,-0.00537096317618148896833041,-0.0350392137488185068106006,0.999362309560421158138865,-0.0429859656847949023195099,-0.0546370095410867173679748,10.1006409989047423181319,0.0090112805510050315166426,-0.00663268508540775219434193,0.0467040215178530990214334,3.64719833339970378460748,1.81711962029285167830039,4.38213909624994979452595,1105.96681648968183253601,1148.05114060705545853125,1121.41621139838025555946,1122.66384769744854565943,124.842916511693005077177,-68.0899987720459591855615,438.026282151929990504868,-550.394005420503503955842,150.965841525828665226072
128.31999999999999317879,0.136896184421649191875758,-2.66512005955871966733639,0.46091048959194935719097,0.0205400995026051857994531,0.0289292566097024590743292,-0.000358714235108817229309014,-0.00407756896599496647393135,-0.00531680844816903412641818,-0.0350208440180810320896398,0.999363586658124081196775,-0.0443445417663470287106264,-0.0539860884882931157946473,10.1025084808320073648247,0.00915325171521769176408156,-0.00689654708454268822181987,0.0474488433716501595283077,3.64722283243341927061465,1.81709979814184174884417,4.38224086819320746144513,1106.13996605832790010027,1147.71926496454989319318,1122.546301177489112888,1121.28378502947498418507,24.3800685297850385779839,-210.994785189460344554391,463.943942435493170250993,-604.159468399124421011948,150.968488161751764664587
128.322499999999990905053,0.0470889460976782678325314,-2.34604223486097174244946,0.648301453061694288315664,0.0203923835199612824009563,0.0225555912246490075645511,0.000980964576703916143682327,-0.00400619717444767112213277,-0.00527482093912447821265621,-0.034998330481193981600363,0.999364931011416102180078,-0.0452324846804494640206684,-0.0528247433050315351454884,10.1045212738056182644186,0.00928775593704253207838484,-0.00715736955670202845691819,0.0482484151962172050365218,3.64724907548462029538427,1.8170784747795534208592,4.38234482817549242383848,1106.08871683233064686647,1146.99616668110911632539,1123.73593111055561166722,1119.6430503554556707968,-43.6455489743308575611991,-308.591414002429303309327,369.518614765610891481629,-596.727473899815549884806,150.971685520941178992871
128.324999999999988631316,0.00525448414597297613209959,-2.11437222057843188238735,0.787603127435275496281974,0.0203318884867277165084953,0.0172880794053868434845267,0.0030565159779966833038245,-0.00394433609848955819832117,-0.00524975544986134266822742,-0.0349744042931275922470036,0.999366188730069326950911,-0.0455235079026237166033297,-0.051317438194714043442346,10.1064641293555617096445,0.00941375335467428339675244,-0.00741102000876098839649009,0.049098110379486886722944,3.64727610467715246400644,1.81705574708675809958436,4.38245229799303004369904,1105.92173831345644430257,1146.17630789453914985643,1124.39389425131548705394,1118.30014765997862014046,-68.3021174130693964343664,-360.627643365666415320447,155.300578647151894529088,-528.227661101233707086067,150.974362955533507602013
128.327500000000014779289,-0.0147372979425547841192401,-1.91511365097109065303016,0.887714884494614109300414,0.0203822318066175303674648,0.0121114576753494282423951,0.00579440523862510912384005,-0.00388967370383482783507967,-0.00524074186247576716962682,-0.0349485448002470541761788,0.999367384922047796713684,-0.0452089135289916177473657,-0.0494554550410836735174769,10.1081393458753332481592,0.00953053279794063845642427,-0.00765301049327952401940545,0.0499911741232499026721392,3.64730316718442404422262,1.81703210131466219579011,4.38256502705882233783541,1105.74720624526366918872,1145.19302846427217446035,1124.51243400379507875186,1117.00191204993689098046,-59.1426448760007588134613,-460.099810991354843281442,-94.1656022760122368708835,-552.593116775732482892636,150.977047824074844584175
128.330000000000012505552,-0.0284363074882212213401189,-1.71311372466905842415485,0.948825217052343239387824,0.0205623272920803998320416,0.00659631032679947135882736,0.00887159795694389234632649,-0.00384316190692394338279669,-0.00524332201029885282966836,-0.034922048085318478649608,0.999368491486963161918311,-0.0443482116906712686699166,-0.047311541573106213887101,10.1093689319310016117015,0.0096380210890078966273764,-0.00787970226651477437251891,0.0509188499005229014415796,3.64732979727229933430976,1.81700770991291316036609,4.38268367779888823321244,1105.62602508907502851798,1143.87580883957139121776,1123.92306623993317771237,1115.53718207608676493692,-27.3209050574471987715697,-501.477073234401814261219,-332.391931241165707433538,-512.389526265189829246083,150.980271423515347350985
128.332500000000010231815,-0.0402373336540218229373522,-1.58029556652418912143787,0.948185004391569385973071,0.0207595908034693236998702,0.00297342856041866434799181,0.0112183280002880764875117,-0.0038094758715496702082548,-0.00525160964428979856050139,-0.0348973227744481320766745,0.999369436614227169002334,-0.0430272423030439721269858,-0.0450459042255874630988899,10.109999415946617773443,0.00973690573178625021211197,-0.00808844064461382468433914,0.0518708419476595697372723,3.64735515013732580769101,1.81698223129739866443799,4.38280922945602746665372,1105.61060171997655743326,1142.68564309810244594701,1122.8504743475907616812,1114.43996441861327184597,-2.12343601160875872224665,-492.614145430700432370941,-517.005950257150288962293,-399.915259542376531953778,150.982954633677877609443
128.335000000000007958079,-0.0590213892888093727417953,-1.4895678190225782877576,0.894887498977174011827174,0.0208714939188372854139697,0.000152724817829132835430433,0.0137742300078273274821505,-0.00378729512313449347138405,-0.00526450328304427835751644,-0.0348725160036242737282564,0.999370297503448745679577,-0.0412423691903993916429982,-0.0427041612615516041895347,10.1099069561267906891544,0.00982900110546001612443767,-0.00827670848131670938707671,0.0528359914919519640941203,3.64737893394819767678428,1.81695608271830821855986,4.38294176255870215896948,1105.61540790901699438109,1141.41273811242012925504,1121.33803648864977731137,1113.53760577837670098234,-15.5205255167543523242557,-521.629699016304243741615,-638.952083366838451183867,-319.600787832332230209431,150.985629655636500956462
128.337500000000005684342,-0.0852280536789108006390236,-1.43085878655537546144672,0.801177229101054266813264,0.0208185994307092427091366,-0.00249699307271308715630576,0.0162574470694721723296183,-0.00377360859536184090057276,-0.00528774911176525721362429,-0.034847913657755497096602,0.999371048302656661554977,-0.0388561826743006599738095,-0.0402990500346197266789972,10.1089980585556737935349,0.0099174017382254314734169,-0.00844247178252873278769819,0.0538028498560128992656004,3.64740157580558488348288,1.81692938852344165745478,4.38307964466226707145324,1105.53299909239285625517,1140.07749460302329680417,1119.65571393075947526086,1112.84196047945306418114,-84.8246549208259494889717,-546.416279231786006675975,-661.355091687766048380581,-224.121945823457394908473,150.988294577825030273743
128.340000000000003410605,-0.11967825464958695147466,-1.39483221765199960628934,0.668589242564032071314273,0.0206190575070489268139085,-0.00555908392149152569966519,0.0181693479213613923173298,-0.0037694784798189898133991,-0.00533219858899767161497518,-0.0348274499100391307648827,0.999371492666905503199359,-0.0356300710319974733852888,-0.0379250381511709588888692,10.1072095871068121653025,0.0100061877944543874130456,-0.00858481708683924392422337,0.0547601822658854986425325,3.64742366686056307401032,1.81690180896010167188592,4.38322206215019782860054,1105.1912846344132503873,1138.6806567162636838475,1118.03126103021395465476,1112.41699604926043321029,-244.495896769326009234646,-620.77346778725836884405,-644.260790481570666088373,-133.118468589630651877087,150.990943772428636293625
128.342500000000001136868,-0.168114911564811481126114,-1.34685629485120506032558,0.482855864393646916354896,0.0202777311644414780233969,-0.0100628066391273661428496,0.019659192606776072775876,-0.00377261062491757127521086,-0.00540107312574242617864151,-0.0348132590805551450641175,0.999371550759157956100864,-0.0314892679697971467067674,-0.0356153577764028450580724,10.1045144094016254854296,0.0100987851239451205398456,-0.00870336271037629866098584,0.055697746245239619644618,3.6474456505865680000511,1.81687435370721228622415,4.38336815658175105170358,1104.31051960854733806627,1136.97362726408982780413,1116.43440997835455164022,1112.17636813650551630417,-414.330695939055942744744,-620.833800831379335249949,-501.451982207573962568858,-60.8937590168451521321913,150.994100604929030851054
128.344999999999998863132,-0.211852804657005538979675,-1.28167252239495943477721,0.319419598224353673554532,0.0198932685690121069388425,-0.0141604443276089619896396,0.0203356250043870423471759,-0.00378286465435274466342919,-0.00548541639748895224620862,-0.0348059143213210880896114,0.999371254297823030654513,-0.0266116361256743261254343,-0.0334536065949552902099029,10.1009201239773140912348,0.0101973100343861634159426,-0.00879887435453221601611151,0.0566065699708008379653634,3.64746735035933422608423,1.81684710534996241015904,4.38351805033857733207014,1103.11963115471985474869,1135.57648771210961058387,1115.52400111917836511566,1112.11252725417648434814,-566.459598313682818115922,-537.583535397232139985135,-269.970228203983424464241,-27.9604959961288486169906,150.996710264162203429805
128.347499999999996589395,-0.255053247375073344205276,-1.17717541993537455624619,0.15937696441533988345185,0.0193483228315344500669593,-0.0178649006401489264528326,0.0206171888742976115727057,-0.00379780494028060912684031,-0.00557020603188801855659706,-0.0348058762497078788555882,0.999370686735301161363054,-0.0213073654894666286718774,-0.0314764578037934339427295,10.0964661514705298372974,0.0103030974426960887646576,-0.0088726826250717528293821,0.0574791592282170513139583,3.64748831492718039726242,1.81681921560057180187187,4.3836724734530552183287,1101.47822161698150011944,1134.28570958710611193965,1115.08455883733586233575,1112.03656565652499921271,-794.94641305618188198423,-524.541750132652396132471,-101.671804965509792850753,-75.1454419894572680505007,150.999295526956984758726
128.349999999999994315658,-0.300768251889075244331906,-1.00936695337923798554414,-0.0204505239569712157776671,0.0184677636326045085946035,-0.021514165196503964166963,0.0206768843338347302340807,-0.00381184497664396057872715,-0.00564292689566956145313936,-0.0348099822497062796888834,0.99937005374763354659251,-0.0158471118573730307410585,-0.0296487009979460036657173,10.0912177444298976070058,0.0104174898520081032210483,-0.00892661224327500994746298,0.0583096369709970724359849,3.6475086939973637711887,1.81679033428242853176471,4.38383095565364655499252,1099.14489908944256058021,1132.95377896144873375306,1115.01564209435127850156,1111.73680004422953970789,-879.575045655774033548369,-441.739851052299627554021,27.7757159143018519387169,-167.492365880723355076043,151.002367229762484157618
128.352499999999992041921,-0.330123001419548700585693,-0.844947684916624641715543,-0.156812681371168327615351,0.0175975178858699121686726,-0.0238682682435440440826824,0.0205567973147235856512527,-0.00382104697974454746156603,-0.00570922126050367548938391,-0.0348146922051650112295285,0.999369457700336805139329,-0.0101425429434145453200244,-0.0279462081883865565146152,10.0852546570027428174399,0.0105436824981951626084564,-0.00896348911448101477728034,0.059093642039578252178611,3.64752906405504306874832,1.81676098753605663738142,4.38399257921338403320988,1097.08034638870663002308,1132.0770103318466226483,1115.22343741690724527871,1111.19910382712214413914,-799.248788373324032363598,-296.451592367199225463992,104.949259132495129165363,-287.413015220852173570165,151.004900079276296764874
128.354999999999989768185,-0.347662573408461850199558,-0.67237233415217922960494,-0.275503885693743510998388,0.0167012718641166811595067,-0.0254182811973174237196726,0.0202450076222640204526293,-0.00383012779500508868113506,-0.00577461782158487837296468,-0.0348199115386331470300973,0.999368850316526002863782,-0.00410978502084632935087427,-0.0265069385131377899256222,10.0786704450243078667881,0.0106847102172187933405434,-0.00898807641285552169629902,0.0598287833262213311624755,3.64754980242108395316336,1.81673192759731838563653,4.38415633860678255473431,1095.14865514757957498659,1131.47152099961408566742,1115.54038839001327687583,1110.29973496812658595445,-713.562159019878663457348,-198.187531614812087354949,120.319304293041867026659,-415.586011124758613277663,151.007403763493300630216
128.357500000000015916157,-0.354656821584829529125926,-0.505508690914310165887002,-0.375017917313505477761026,0.0156898754093812119181361,-0.0263589426610314203625052,0.0197078682626149088996659,-0.00384177221490780620299921,-0.00583469353890089369868432,-0.0348230340054277651140602,0.999368336316980965250423,0.00212436207875704718972543,-0.0254220937291427528936794,10.0715738854116576561637,0.0108420876746055019207438,-0.00900599275522062821253133,0.0605151309637302209365473,3.64757105420507521387208,1.81670488266819574185718,4.38431991730325343326058,1093.51253559359020073316,1131.08607267376783056534,1115.82503393837532712496,1109.12117377148842933821,-548.356141239511202911672,-107.841425014461336218119,81.8382631545958645347127,-519.102109053278354622307,151.009882641425946303571
128.360000000000013642421,-0.350080582426660680273045,-0.355168268591593283556307,-0.44251924290308897180779,0.0145470180880979040732859,-0.0270197068587384181537203,0.0187931259606325049005271,-0.00384738608406719325913392,-0.00588758901944301873965237,-0.0348219031424316996514712,0.999368033297818980642546,0.00846952068069178887199655,-0.0245398045284847265978811,10.0640817538818243548349,0.0110172909700380558528643,-0.0090222492471907587280322,0.061154976314032299944401,3.64759324993063760445011,1.81668140341172268392711,4.38448011733523834720927,1092.40687444136892736424,1130.93231387453920433472,1115.94957970578821004892,1107.70422442284780117916,-338.026270167245456832461,-28.6221660291890849237006,-0.453969853879656493056416,-642.190887280132528758259,151.01233121618599852809
128.362500000000011368684,-0.337397793126546163833268,-0.198296722494709226625176,-0.472243631825223497688881,0.0135046240502038287362163,-0.0278011835351692770945675,0.0171893008627626575623992,-0.00384316247618056525819918,-0.00593755789502834613324822,-0.0348161168353068595227029,0.999367945854940820105128,0.0149551679661623360129141,-0.0237859398784754927369534,10.056308603653276279033,0.01121232551808070028454,-0.00904269130772190551925682,0.061751936036665011631186,3.64761639361938927450524,1.81666150839490314616853,4.38463687764371279342868,1091.82240424275551049504,1130.94296184362201529439,1115.82276408910593090695,1105.91021933509068730928,-87.4523783553172080473814,21.9054347028503855199233,-93.8822650235068749680067,-645.202730156547886508633,151.015234415086297303787
128.365000000000009094947,-0.327836566847033328286898,-0.0880041394854630953936692,-0.444998368226380003331855,0.0129384399005388946862771,-0.0282255385971696588776059,0.0155339580708165891920203,-0.00383282247856678260841679,-0.00598959624362327761049052,-0.0348042793108181633399134,0.999368079300929412767118,0.021624709726974250534326,-0.0232240608162200823372245,10.0483639732219707241256,0.0114290864279294537841913,-0.00907389371807975492201237,0.0623102833765326880044455,3.64764029705326287000844,1.81664551647179051130365,4.3847913466170922447418,1091.96961254959273901477,1131.04184104805335664423,1115.48016838067110256816,1104.4782107720679960039,175.881071163190313200175,36.941098912608993032336,-172.818056511753468384995,-531.067224627832842998032,151.017624775692553384943
128.36750000000000682121,-0.326195559405792923080014,-0.000517957554688464744119258,-0.359309954860202285242821,0.0121610131979534141083432,-0.0281658577380355275299184,0.0138884439454820523413003,-0.00382007450586498197367402,-0.00605550584648433930928801,-0.0347869399231576434394775,0.999368331160132572499322,0.0286533538180503977166325,-0.0228998683847418671444274,10.0403481288408453764305,0.0116701501878950508750421,-0.00912156493379859961700973,0.0628342956430404803169765,3.64766457354805373469731,1.81663301010143052316437,4.38494541589263064906845,1092.70180959857066227414,1131.12766733818489228725,1114.95867380654794942529,1103.25488321195393837115,422.065904241910232030932,8.22015166996445323377429,-238.77352994230821536803,-468.845162703763776335109,151.019985736785088192846
128.370000000000004547474,-0.339041205572820913971555,0.0772113864731586579948086,-0.196906000507783340847112,0.0110804147639752374743249,-0.0275494735837662554911454,0.0122389632130101393137078,-0.00381341435798446216562385,-0.00613687147777461274728017,-0.0347656143690117727662603,0.999368610033268045533816,0.0360106186989233856277082,-0.0229518870409141650945628,10.0323555614040049732694,0.0119366115594374388314547,-0.00919068021295491380251441,0.0633281255955021188386311,3.64768855057136009989449,1.81662199210537833593548,4.38510135376359588832429,1094.07994207080037085689,1131.08294180640314152697,1114.28630073096064734273,1102.13398495855130931886,556.844108829597530530009,-57.512394949760633267033,-224.367291689736134685518,-347.203231037426292004966,151.022785947848944942962
128.372500000000002273737,-0.367094581363798244666441,0.122682356652273324981728,-0.0275863228306638501308168,0.0104364030904638537683438,-0.0268129840532844616884933,0.0113663242456029447979837,-0.00381085372328506758604627,-0.00622655873624022859758043,-0.0347381946595539878308578,0.999369042916850136570872,0.0434811805416064345308769,-0.0233084048935355975240569,10.0244767836824397733153,0.0122279723233839482388063,-0.00928325561950979136205397,0.0637959595770574705575484,3.64771260554912668538918,1.81661124902156201343928,4.38525857969177312867259,1095.48603014271611755248,1130.84010536343635067169,1113.83683734810028909124,1101.51886705676838573709,580.187093392969586602703,-150.017839017618854313696,-121.811612324265126972023,-182.705166940861744251379,151.025092754069504508152
128.375,-0.418595101351903364772511,0.159872112805467675444859,0.147639820588265968659414,0.00980060741530657322795328,-0.0263390977920750120333526,0.0115723097220654831673858,-0.00380319019534762015402607,-0.00631751878438598958587225,-0.0347049849505598403953677,0.999369695689253156878351,0.0508465433562456936567031,-0.0237488837398573404691149,10.0167927423723881474871,0.012543244950781755678304,-0.00939835870585340946159469,0.0642417692184246436060135,3.64773738273520020669594,1.81660034921554514042441,4.38541487240888638865499,1096.98087753776258068683,1130.33285261131572951854,1113.67724266933987564698,1101.22045912384783150628,648.576311759596705996955,-279.104770959592428880569,24.5723731331277797096391,-69.7488321455418827099493,151.027372639451868963079
128.377499999999997726263,-0.508664061148718316118789,0.215091332240372135053974,0.325260506813227712186176,0.00864335634865782964642023,-0.0262769906245889847684616,0.0133328031886544295936403,-0.00379386066004433345280611,-0.0063975899962373178678221,-0.0346703445622440278861554,0.999370474447922152450019,0.0577965642481112762407491,-0.0243079238910549610963585,10.0093719493199380110582,0.012880348627677664849478,-0.00953457859058878115510183,0.0646689007796201476008235,3.64776267689789701620384,1.81658777495320866712802,4.38556940818175533536305,1098.72891170151115147746,1129.44458150863965784083,1113.95969921376581623917,1101.17012289604099350981,621.746335738609332111082,-357.779355150894616599544,188.146933870382923714715,21.6687595827094519052025,151.030078164410952012986
128.379999999999995452526,-0.605105897123406233362175,0.282700503298141669894505,0.42408874033231030997726,0.00744563037616377109556565,-0.0262675007808373835171967,0.0154416355697546362618633,-0.00378839734582992263001167,-0.00645841514296017875362832,-0.0346339757678539722496325,0.999371417879757917290817,0.0641008301834653793083163,-0.0250635683174049578303411,10.0022684751609087783208,0.0132370329103117870261919,-0.00968899271134388700987827,0.0650797183266328960193903,3.64778890201441674534522,1.81657105567358034825531,4.38572324510277589126872,1100.08960921645279995573,1128.54395583556288329419,1114.61797733869093462999,1101.32880292176128023129,519.971885185777864535339,-369.555309200240628797474,336.775517267584973524208,90.7631634231081676489339,151.032307960437293559153
128.38249999999999317879,-0.718997838286926649331576,0.379707411372670944338381,0.46365112028345767392068,0.00617893480175420520272844,-0.0258178779608990958960302,0.0173236067054706455170532,-0.00378768973680891803124116,-0.00650480047014201194499616,-0.0345941255133298750101822,0.999372548593956411266959,0.0697925349479591450307936,-0.0259977520852718024801931,9.99551841048061540107028,0.0136121722676216076741706,-0.00985656984064057009597981,0.0654751545854309890959399,3.64781661657515110519512,1.81654856656940855152982,4.38587857534729330666323,1101.32877112743767611391,1127.59680496264013527252,1115.64357680010220974509,1101.62393871315612159378,475.73902625715686554031,-369.545631582941098258743,445.414263371999766150111,129.937108595531697119441,151.034512441957303963136
128.384999999999990905053,-0.841158894661609424225901,0.5003459324535407537482,0.461040921124861113877813,0.00468442118382823412953142,-0.0249427687073434482811773,0.0187344760330906273670948,-0.0037862538586548944233301,-0.00653977852679949941960835,-0.0345503791281827829506845,0.999373883223984460499878,0.0748698797060214638054987,-0.0269733697941350464288846,9.98914774519860060308929,0.0140039927572511904013686,-0.0100305856916305721066029,0.0658550149638519183303842,3.64784574185708221349955,1.81652053552694137117385,4.38603705478599525946493,1102.46830434773642082291,1126.69622767764985837857,1116.84504865554890784551,1101.97848846473834782955,432.587944347535596989474,-336.072756731697211307619,479.206824454949298797146,143.946429160081549980532,151.036696153022745647831
128.387499999999988631316,-0.960734250203353346009294,0.644623896078956537536442,0.424533795469807184730371,0.0026418651005082512128741,-0.0236733493664588283411643,0.0195783556707140767028097,-0.00378068417784238434975475,-0.00655572297350189361897499,-0.0345024285874310360222594,0.999375495661574464456578,0.0791256991022094846588431,-0.0279109796776628449332947,9.98317538169925633440016,0.0144090439597505653307463,-0.0102045597541100766664224,0.0662182539008135673253008,3.64787660781722111735803,1.81648801964474393422222,4.38620024654521145635044,1103.49171084917338703235,1125.9164411789831774513,1118.03961092237477714662,1102.34367085895587479172,423.355282873833289158938,-311.893410064487909494346,463.789119606158351416525,149.827765191833719882197,151.038854962419975436205
128.390000000000014779289,-1.08065864309494363837416,0.836227945211313272722009,0.363579742154642171492185,-0.000397834829628951650807439,-0.0218255146516223713648586,0.0201416612621290978812905,-0.00377525656865826744756909,-0.00654183579943574174814236,-0.0344544238459323567957959,0.999377292819529028378156,0.0823028984320034184829495,-0.0288934437415590550379818,9.97760783988817223644219,0.0148234287444176729420242,-0.0103735442237908107032673,0.0665631444780262204741206,3.64790919967174831484158,1.8164518912829659136321,4.38637083357584245391081,1104.58508076211569459701,1125.13676062731997262745,1119.16399425359077213216,1102.7276272907010934432,377.494976666519619357132,-266.569451985833893559175,324.073073566568041314895,124.776436034285254095266,151.041416929581941985816
128.392500000000012505552,-1.14572366257790014820728,1.00245403613528449859871,0.30965642375993523982558,-0.00340869235633664427811973,-0.0199461869259727302139407,0.0204370131006293039022115,-0.00376544563232427634963395,-0.00649340026704202551155465,-0.0344108712338496297578061,0.99937916303480034407869,0.0842677489937450341361824,-0.0298313833860171379042114,9.97243769226554910289906,0.0152440466338293334480625,-0.0105325475467918580618765,0.066888144254164907942517,3.64794344756011668096107,1.81641374679972145145257,4.38654893754060282162754,1105.3791857325149976532,1124.58359391904764379433,1119.65997629021535431093,1102.96755303913028001261,291.342624408608855901548,-216.997087596261735598091,83.8547524086005608978667,74.6687121099281938541026,151.043528361415354765995
128.395000000000010231815,-1.16026521720779296487081,1.16062608512033538232799,0.257363450427465056957743,-0.00685240607558390210640731,-0.017402245233179711864091,0.0207772117339750858611147,-0.00374258701914580507730257,-0.00641140935447167582827976,-0.0343737247154062772191985,0.999381063063038199700827,0.0850054063472012455537907,-0.0305566313974629105709724,9.96764138238257224600147,0.0156686717596200494884151,-0.0106775783965550909171416,0.0671927469946542593737249,3.64797936312720949558752,1.81637481796096045272293,4.3867319939706721498851,1106.04179388415741414065,1124.05177518933965075121,1119.58326801563339358836,1103.1009708512503948441,257.408560638266351361381,-252.028844017379043407345,-156.588705262862816880443,31.5504377493939962562308,151.045615958438304460287
128.397500000000007958079,-1.11373715456694255543368,1.32040221348239872334318,0.193172265244546281781624,-0.0108809416628057216425152,-0.0132542242387325617108962,0.0214208464454163256818209,-0.0037072304916340578437306,-0.00630536179051243046711495,-0.0343441261276432457938412,0.999382887799678099050027,0.084685110090268050919704,-0.0310837357505863165485493,9.96317283566886580103983,0.0160965497749410366146172,-0.0108075353519096976212532,0.0674778792606958860433863,3.64801614303026688901355,1.81633608853454009413042,4.38691746128869475285228,1106.66622853570515871979,1123.32344969896189468272,1118.87703276390175233246,1103.12530522787710651755,196.118803769237388223701,-297.856848417903051995381,-330.414683800318414341746,-15.3511626958473712534214,151.048094516759874750278
128.400000000000005684342,-1.02700336055230834197971,1.4165389362981366527805,0.133671734197959218848339,-0.0135363565902845289778966,-0.008981950924723536289207,0.0221912065980346233373677,-0.00366939125943329357004696,-0.00618596093971764907776256,-0.0343226652803360204879723,0.999384507982310821283534,0.0835149373842004327794797,-0.0316171087471921324896229,9.95896612173806516921104,0.0165274568129380947101303,-0.0109242735110426092415281,0.0677465292458233336869711,3.64805271136523145969477,1.81629910562041918531406,4.38710246365113132327451,1107.02238790300270920852,1122.5624909472514900699,1117.93119459663330417243,1103.02421503777122779866,100.289981815376719964661,-348.938345718169273368403,-397.285641489768124756665,-68.1045334144238125873017,151.050138769155438467351
128.402500000000003410605,-0.903003748660035521211853,1.47262696289178141029197,0.0653745234915704825917615,-0.0154588555984558721767552,-0.00462816651963090987947913,0.0230566535135507469367333,-0.00363712382096546089568778,-0.00605885698947061443475626,-0.0343091227468905746178507,0.999385864646632371410817,0.0816096357513412529183228,-0.0323252335419144110062462,9.95494093043293837297369,0.0169606631439112136294778,-0.0110309068373405649854391,0.0680042306380481548222505,3.6480888299191569501545,1.81626479560944553703905,4.38728335434339200560316,1107.16767844478158622223,1121.57875797037263509992,1116.89060455645471847674,1102.7847825608052971802,15.3476289177118339068784,-432.358854007072636704834,-388.29445065229111833105,-119.987154161681232267256,151.052162316891241289341
128.405000000000001136868,-0.755936138659176415366403,1.50643797890337260980687,-0.0059471471516956905811746,-0.0171654112948697624985162,-0.000813637741980709054169518,0.0236806491895630473465406,-0.00361338111588456901285271,-0.00593125398316519947261583,-0.03430129978157978737352,0.999386979991552903968,0.0791201413456677216107238,-0.0332719987005530848378498,9.95099937676520873708341,0.0173955429762069971322269,-0.0111310090780521713654805,0.0682584915233290928648913,3.64812503033064805535446,1.81623333713011070322807,4.38745820642439721126493,1107.099126047591198585,1120.40069667721809310024,1115.98972234337361442158,1102.42427926696336726309,-88.583149870863579167235,-509.441339580061537617439,-286.733358515800091481651,-171.810448801826908038493,151.054169832249755245357
128.407499999999998863132,-0.585541853934260947411872,1.53518715881431644376676,-0.0669196541900384661571977,-0.0186153536757764984099772,0.00207442042887258414410323,0.0235560722863934896009752,-0.0036031255325152185438331,-0.00581261919988087204236304,-0.0342941651775657066480996,0.999387956559513734866584,0.0762524854733513113291821,-0.0345562626021436863910097,9.9470243761181276198613,0.0178314584747375805273695,-0.0112291440366309377973941,0.0685177426541646594770896,3.64816241027677934383178,1.81620478898625981045711,4.3876257368977320538761,1106.72476269542767113307,1119.03155127247464406537,1115.45693776387702200736,1101.9257303167969439528,-245.268722895566753550156,-622.225621957179328092025,-128.9636855740163525752,-242.552104808457954732148,151.056159568914978308385
128.409999999999996589395,-0.355829514382172473752064,1.58585744536375261581895,-0.105683077764931881992183,-0.0198916313497447400093776,0.00478334141419398811700958,0.0225941191405555283355788,-0.00361316992264015335659111,-0.00570710581504053383883335,-0.0342842839195240181582314,0.999388871070788997741374,0.0731178553001184117210443,-0.0363104241226855362079107,9.94288555029515563887799,0.0182666987377693677829793,-0.0113302579384624325931075,0.0687904884653294523833011,3.64820150254763531094682,1.81617784221672429190164,4.38778624473876632805514,1105.87278243311448022723,1117.28956856743502612517,1115.34490391550411914068,1101.21151874292218053597,-383.357396186450728237105,-630.612455771534428095038,35.5424873183760965389411,-270.15107561757770326949,151.058528828156568124541
128.412499999999994315658,-0.143123982994650872369036,1.64177665708336628647146,-0.0973963241789938677372973,-0.0205744836838675747292537,0.00732558123388118553193094,0.0215671929686293666061925,-0.0036416874481599546820032,-0.00561210830373613800414745,-0.0342692846623263505656531,0.999389834612961380777563,0.0696968442943620980489783,-0.0384922352971407699673279,9.93844576923868316953303,0.0186982177444752449557708,-0.0114378504118411456619286,0.0690844282532255687945266,3.64824301846529674975272,1.81615210105523394723548,4.38793968381828491942542,1104.80797571449716087955,1115.87848899361983967538,1115.63465020046874087711,1100.57497493871028382273,-497.988117951534150051884,-524.144955631185553102114,154.930825533351651301928,-247.97278280802672156824,151.060489314536312122073
128.414999999999992041921,0.0919954800954358720144199,1.68869158301620503337404,-0.0443986086379663733025858,-0.0208993776606754486091511,0.0110839192423396563913496,0.0207481152698157887692698,-0.00367787943839336392906625,-0.00552728205077038497322617,-0.0342487867580695062863505,0.999390902329063801623477,0.0660186303689527520521807,-0.040871701515830999307255,9.93356094233226549761184,0.0191230016661204961503362,-0.0115535297322103235051483,0.0694050035284576177785354,3.64828695751195741792117,1.81612675798270251092958,4.38808994893992565522467,1103.38284184335907411878,1114.66884378928148180421,1116.11955804317017282301,1099.97165482888317455945,-697.590768760253581604047,-453.632698681761780790112,190.913016307505046142978,-243.831450867077222710577,151.062436871131836824134
128.417499999999989768185,0.396663095599279147407401,1.69159824540948555693376,0.0587105306769307444536565,-0.0208324982914022439894897,0.0168686653368417434351034,0.0202546247274150229000789,-0.00371574411436811956679915,-0.00546286042319498506975028,-0.0342260616684837426504373,0.999391920799461153102072,0.0623352393990874442675221,-0.0432987294999808980389133,9.92807771949839334979515,0.0195395166002391498794033,-0.0116786037035227739655507,0.0697538817792799359374101,3.64833298302846875671435,1.81610072424803936641524,4.38824131607765188789472,1101.32002187069906540273,1113.6103255002130936191,1116.58921528200539796671,1099.35581768437600658217,-797.629709504656148055801,-306.722912421027729124035,102.59995449638276454607,-203.336576713520543080449,151.06476039325053761786
128.420000000000015916157,0.661076688552331037662668,1.62216821599053573343951,0.16105286761843562448604,-0.0202673196909598368753436,0.0220003391530199376990851,0.0203443101221427342928383,-0.00374579148751121851143586,-0.00542875796810818843363133,-0.0342040831331574674001317,0.999392762055596795001122,0.0588977145316416372811119,-0.0455483675224821193960878,9.9218478577138480289932,0.0199462742147494369315819,-0.0118130723145791257516768,0.0701292314168811964369965,3.64838078454303182951435,1.81607335229390454145459,4.38839611561335285472296,1099.39469329581675083318,1113.13522922716902030515,1116.63255781565453617077,1098.95497194531071727397,-784.649425673006248871388,-97.3697800313300945163064,-102.538104333790826672157,-139.873786309013354411945,151.066686170105384690032
128.422500000000013642421,0.916502051046229837538704,1.46201523778891040450389,0.255899945445058452087039,-0.0189149979549096437791977,0.0266498741330353575151868,0.0210177921607910475620962,-0.00376255856708965479712203,-0.00543092394576171269560128,-0.0341870603302111830679166,0.999393264369845990557906,0.0558880738104079177741568,-0.0474728602297034563139988,9.91473431255058912370259,0.0203415448006644510037244,-0.0119567127348951911247621,0.0705258599898220123192161,3.64843021121593480415868,1.81604428203888113024789,4.38855533587178214816049,1097.39677474231530140969,1113.1234766000541185349,1116.07652476033399580047,1098.65644875282760040136,-861.218489483200073664193,99.0926861393737397065706,-407.35333979956283201318,-119.162246047170953033856,151.068601730030337648714
128.425000000000011368684,1.17654840578316743915366,1.16892320595048815334849,0.332736515146708544676812,-0.0160666067948498601791751,0.0313244787543511538085994,0.0224934931470760525462627,-0.0037656227785868557310367,-0.00547605866332475949703751,-0.0341774974247467805410494,0.999393303219634931977566,0.0535115501641247048869587,-0.0490206072886893995388391,9.90661454920677009283736,0.0207240782641020040988344,-0.0121094918668140788531318,0.0709354523110251877771049,3.64848106618971801395901,1.81601354077986165691527,4.38871965644057837607761,1095.08860084840466697642,1113.63069265786543837748,1114.59579111665857453772,1098.35916071507540436869,-811.038475705855489650276,264.535970042665724122344,-671.440184693593892006902,-109.079043906021141197016,151.070889009733832608617
128.427500000000009094947,1.32324390806694158762014,0.8556362415901377360683,0.350175849866306065916177,-0.0125980728139628902345626,0.0343426141049733499310825,0.0241403409711075968291372,-0.00375991278795982696372957,-0.00556368030572670837358151,-0.0341729931657980059989121,0.999392941975879023353002,0.0518372681966852988377781,-0.0502496953593384587666293,9.89738968294355814236951,0.0210920041070435868024724,-0.0122719937395898148757567,0.0713474721711614828789649,3.64853327904821700400362,1.8159819297093158230183,4.38889042026339559754433,1093.34158236378971196245,1114.44615645026624406455,1112.71932383686907996889,1098.11105353329799072526,-648.748135619642880556057,392.436653301176590957766,-849.607808737163963996863,-108.629539562215200021456,151.072785646109167601026
128.43000000000000682121,1.36295659306894667572863,0.499423287476500277204394,0.311837922614912943508614,-0.00836785631101406857101921,0.0360184422389428493538333,0.025762794207863714407436,-0.00375326836462094599183859,-0.00568591820297811509354879,-0.034170894915204731712155,0.999392285324788187672596,0.0507921120766798572798706,-0.0512785617218280143081444,9.8869895740252413673943,0.0214429498675554122688602,-0.0124450428781304103104111,0.0717500005362197157410264,3.64858651302619119149995,1.81594989304870835233885,4.3890689979404715614919,1091.84486017030940274708,1115.59287592436953673314,1110.34775207297661836492,1097.81601301726482233789,-556.249360200860110126087,499.291696100680667314009,-992.332849970073198164755,-128.04865955620522299796,151.074672370656742259598
128.432500000000004547474,1.29737153335777644080906,0.133519760850493274251249,0.232200035348771122167832,-0.00406630648393312404270672,0.0363883630939644264756794,0.0269491979977281755076479,-0.00375363106448879831067433,-0.00582746056867115402172486,-0.0341708790776482917994628,0.999391403192510852093733,0.0501571594715941315723029,-0.0522303308154812850894189,9.87537685847573598607596,0.0217741068190481432131911,-0.0126292478584578999473154,0.0721307634566960426125704,3.64864036803581992529644,1.81591724512108165789925,4.38925545232142777507534,1090.56033556278794094396,1116.94261493076737679075,1107.75765958702322677709,1097.4708102355175469711,-470.670182834438207919447,570.157570505371154467866,-1038.27257707888588811329,-146.577790731495554155117,151.076550787110619467057
128.435000000000002273737,1.10077892968553481267691,-0.215427095474898355753623,0.119010982613939178542672,-0.000219163525743556087017894,0.0353910159722618800071103,0.0274573106799108103415197,-0.0037654775375506113754831,-0.00597218693325149430073395,-0.0341694152420357680211005,0.999390496984604581598433,0.0496938697398391915349691,-0.0531610632848016073648267,9.86254667794160333471609,0.0220830299338929669783482,-0.0128246919025734786717896,0.0724779752499628837636436,3.64869492263563133249704,1.81588442421265749970871,4.38944735313318279423811,1089.49150925613935214642,1118.44366377689379987714,1105.15638918758691033872,1097.0831240636080110562,-437.450318232765710035892,673.91541568538184492354,-1090.50839954315097202198,-170.521523567522791609008,151.078419171536694420865
128.4375,0.728668436764284277451509,-0.590806142303454073783087,-0.0290768573291539170200259,0.00359628114007291745796158,0.0332197476210266962048934,0.0274429362339803674386562,-0.00378664191482199234337069,-0.0061081320136129194434127,-0.0341617932336069421439539,0.999389813716974551027761,0.0492383979346915079400304,-0.0539944675095375969942069,9.84852572310644980291272,0.0223683998253737977013333,-0.0130303301359979313567283,0.0727810516720463346329595,3.64875045121922747526355,1.81585159461089307164627,4.38964118146083759341991,1088.37308397162610162923,1120.31219200919122158666,1102.30511758931243093684,1096.61820261768070849939,-395.991370776160692912526,684.99346212946420564549,-971.818280793397093475505,-162.5263333541284112016,151.080649732733832024678
128.439999999999997726263,0.330112231396822497497823,-0.862311827165849309473344,-0.143512814793494009046881,0.00591495859833264612387405,0.0311153077087444884796241,0.0269097345097435193539415,-0.00381893000779012911291566,-0.00622154530851752596287696,-0.0341453455115516349427374,0.999389533126169071763911,0.0485902577083436593152754,-0.0547353750047029352643335,9.833370970962372226154,0.022629332306664397267415,-0.0132453515362818061151806,0.073031013569193475865049,3.64880655165733980282994,1.81581838034606524168169,4.38983492558264298821769,1087.51155240226034948137,1121.86863108753800588602,1100.29729778362434444716,1096.27049239683810810675,-341.874483978783132442913,614.203420380376201137551,-711.413903175081372864952,-124.350567958821869751773,151.082499098089584776972
128.442499999999995452526,-0.113928512637106751914651,-1.09523607698948133304384,-0.229716859508039689119485,0.00673830023709711366242114,0.0289123262758610583000873,0.0258051733110459396991487,-0.00386767972893593608638141,-0.00630480886442045303924564,-0.0341187072441220401453066,0.999389736113950211127133,0.0476656858854213327791882,-0.0554565221117124806937682,9.81716386277823183093005,0.0228665466263108553557348,-0.0134690661794337127044052,0.0732201976537540794032211,3.64886282854286303489744,1.81578394476642812627176,4.39002825865601398191984,1086.66371155173374063452,1123.38320911109030930675,1098.74804807344025903149,1095.99644977788716460054,-373.885114682638118210889,649.582665879233559280692,-579.159545964220455971372,-102.45142530912058020931,151.084338927910636130036
128.44499999999999317879,-0.628870023609942707665255,-1.3376546625111780386419,-0.289138040016216901761936,0.00523477453647931169344876,0.0258570836436154832815859,0.0242321402906897249984741,-0.00392789187652533688249745,-0.00636954722227784601168432,-0.0340840586102402684498536,0.999390292764177678996873,0.0467429187088220232659808,-0.0560176198365327226991184,9.80000531024695575865735,0.0230842891261652596868181,-0.0136987380493090310507043,0.0733419401257791175874345,3.64891913698154324308121,1.81574760460999806710447,4.39022238089016791917629,1085.64212682884885907697,1125.11654441693121952994,1097.4015000538058757229,1095.75823527029297110857,-370.105251608556613973633,613.83249901406441040308,-418.833632777176546824194,-76.1476548359279519218035,151.086536092555661525694
128.447499999999990905053,-0.989967935152497369166724,-1.51046804663924949529985,-0.303176662312824252154542,0.00202551252132684338549962,0.0227871996646326589741616,0.0231550541409040883111814,-0.00399361227970843838536164,-0.00643102553118692250866406,-0.0340463940055435662634942,0.999390956392601670366105,0.0461581569515700229633381,-0.0562623444529856964191339,9.78201670707428228013214,0.0232880471365088763391338,-0.0139312064439609094995687,0.0733909645571826085852507,3.64897516917409037162656,1.81570922780569410370788,4.39041812574104550748189,1084.81318529369264069828,1126.45237160615783977846,1096.65387990955628083611,1095.61571150370787108841,-312.341323903012664686685,495.696117709572433795984,-233.616745132834353171347,-54.802157724002249494788,151.088358549115241658001
128.449999999999988631316,-1.23139987347414470164608,-1.64919243788334046740829,-0.290747605474875658870815,-0.00239598327567704973140028,0.0191649897433387277068118,0.022496585310135194801795,-0.00406896553186110714744883,-0.00649149684224770585211362,-0.0340118534559345764289873,0.999391481249125690489166,0.0459851273388895698257528,-0.0562464058039799652544133,9.76334015149701528457626,0.0234820234200700805882178,-0.0141648879723158503673996,0.0733639507213142971764341,3.64903058632862231647209,1.81566895381578441437398,4.39061635177959086462351,1084.08042020933521598636,1127.59502500547682757315,1096.23341632814276636054,1095.48422448167320908397,-263.11514126807071534131,407.036135243754927159898,-117.962527801347007994082,-59.8855944274742810762291,151.090172743243641662048
128.452500000000014779289,-1.35581113479315562564409,-1.7536106830631938979792,-0.266406596504464188157613,-0.00720203381766399124835898,0.015033427621288579859038,0.022097225003685678351717,-0.00415372896099921052465165,-0.00654314719977456150240558,-0.0339822588371705910925691,0.999391852181144790812084,0.0460827976112380965911797,-0.0559550625636929255257712,9.74413686437221571168266,0.023669222785040435613757,-0.0143981045930220777351316,0.0732601091677028415372064,3.64908562925429036383207,1.81562811612630903290722,4.39081573060730701030252,1083.49760958734600535536,1128.48755228238633208093,1096.06406727054672956001,1095.31628353156906996446,-182.24033535756757373747,269.86155521725163453084,-4.24961596702604715858342,-86.864748314514102389694,151.091980789863868039902
128.455000000000012505552,-1.34386781578630531974738,-1.80870276590127421201259,-0.237423251324479583912463,-0.0116418060953330758378055,0.0103514819846625468618972,0.0218530861086881633692514,-0.00423935128992440624084992,-0.00657721801293165327095824,-0.0339566400060251349923846,0.999392189196421143471127,0.0462717656614668737535823,-0.0552202857594322749079652,9.7245795044723273292675,0.0238526885901683693980146,-0.0146284844837926194388578,0.0730811392129212672452709,3.64914051957388796409987,1.81558842883794846478906,4.39101256608662815494881,1083.16921853254302732239,1128.9443327815695283789,1096.21216824830753466813,1095.04990074009856471093,-76.6252364300968338284292,65.6031502296315096600665,148.01289298852498177439,-150.824386810700900696247,151.093782693589815835367
128.457500000000010231815,-1.20593119817672755900162,-1.81268209882521524889398,-0.203584601812015042465731,-0.0156852753323629690029861,0.00472750019834221411191288,0.0214329857669775560025105,-0.00431855595396063440816192,-0.00659085305566337043003955,-0.0339353168426086565512279,0.999392527686104537032463,0.0464744221526051104476096,-0.0539031819672904088935894,9.70484154132863885422466,0.0240365526266882074957199,-0.0148540478447561317965064,0.0728305547814578208010161,3.64919499586020457115865,1.81555014622331234441788,4.39120528258333120419366,1083.11448340519586963637,1128.81556803353419127234,1096.8041317354886814428,1094.56216159751625127683,33.6403835371890096439529,-179.958896500766030612795,291.996750649006571620703,-211.433629938584488172637,151.095940045327665757213
128.460000000000007958079,-1.02343159746704581714027,-1.76598575607206420556849,-0.176991929419379107057964,-0.0178645644080843990497698,0.000436416376898128989102882,0.0209699080609396203145334,-0.00438519509081437917213941,-0.00658299386905629533434103,-0.0339145296873271731574739,0.999393023993384699288356,0.0466334427316628385984387,-0.0518960422436037516202845,9.68509523887413692477821,0.0242251391550413856801338,-0.0150732085918462588997047,0.0725134709152593509573492,3.64924890506665544620546,1.81551316319865496673458,4.39139403808156281172614,1083.33742045022881939076,1128.04453829906651662895,1097.67215200155123966397,1093.9927325904066037765,131.77554115857836336545,-457.534259125175196913915,423.888792983665439351171,-262.934103583268495185621,151.097735683976537757189
128.462500000000005684342,-0.811205626363587284366474,-1.67255484439020984943625,-0.151606363814496075681504,-0.0192474835972569827124978,-0.0034919584486753640906187,0.0205585454049666480069725,-0.00443643055800625740747734,-0.00654618222395364490751035,-0.0338913815924576020122139,0.999393829313264703273489,0.0465564057742333392564404,-0.0491683637118836835977476,9.66551158445498082016911,0.0244217566718936511527271,-0.015284630716379189047105,0.0721364095434472718526564,3.64930191875796028355694,1.81547652190966446461573,4.39157886962490984217311,1083.77336111098816218146,1126.52789673791039604112,1098.92357570040508107923,1093.24749107960110450222,219.71524520983595607504,-832.693325693328688430483,620.97358377056571043795,-364.459193323331817282451,151.09953185510386219903
128.465000000000003410605,-0.555263529740328443118358,-1.51075964485888825095117,-0.122208216787551449122873,-0.0204759792567760015580269,-0.00793043336667396611683323,0.0202056744590698618424529,-0.00446165789334478871813738,-0.0064768097051502594024841,-0.0338645702721053626360614,0.999395050264471729306592,0.0461089594591603535445046,-0.0455460046418556807612532,9.64625617028961990229163,0.0246299594573023625243557,-0.0154853534077183576517234,0.0717066858277379814978758,3.64935361600444307939028,1.81543860520347011267006,4.39176011203184302189584,1084.43599667627700000594,1123.88107167060366009537,1100.77701992040124423511,1092.17043662379160195997,251.444455238471562097402,-1089.32496541227851594158,712.058764509867614833638,-417.82140204647276959804,151.101691626871485141237
128.467500000000001136868,-0.355148056777796983229933,-1.33571855964423957807696,-0.0982711201269362150112485,-0.0211368735758015353909389,-0.0112105214252505580585506,0.0200243810681480054192161,-0.00444966606585756561942357,-0.00637297209534119259155549,-0.0338323834734044759375848,0.999396804010370121140738,0.0451789993577364767940452,-0.040852957523827337915634,9.62748630142554162603119,0.024852953258080168891242,-0.0156719476208195540589685,0.0712318232901049674943295,3.6494040443140196572358,1.81539918707161995747867,4.39193592366856844222411,1085.03058338717937658657,1121.08127191085395679693,1102.48386952295118135225,1091.1583840693706406455,233.725232247737693569434,-1205.55893416563367281924,673.542833241002426802879,-413.809259829589620949264,151.103498159919922727568
128.469999999999998863132,-0.176745658759881185684293,-1.11826968604307874777248,-0.073535450531563295584192,-0.0214402882273388301070938,-0.0140269539640017169845887,0.0199222689410898830264518,-0.00439436185904251101069784,-0.00623997534310034417809332,-0.0337942635459670265296594,0.999399102071968137295244,0.0437884959826896902335136,-0.0350174348972118743006376,9.60934605844003719710145,0.0250941705371495876741861,-0.0158413573774452559606019,0.0707185308749750385359789,3.64945391751863557061597,1.81535840938907111485889,4.39210491926950918895045,1085.60462283751462564396,1117.85327699978097371059,1104.14473408660319364571,1090.1013903246455356566,220.298334858144073677977,-1324.58813234099989131209,621.722114435189496362,-416.172390439183971011516,151.105315607470856775763
128.472499999999996589395,-0.0174032020464172203222386,-0.863534866192050665212321,-0.0459482901500516474624369,-0.0215513106365311096768167,-0.0167951223739670717216566,0.0198524647146070924719208,-0.00429538064485182179835787,-0.00609229208841190715550962,-0.0337505554595516552018886,0.999401841471435292696412,0.0421327711785396685773009,-0.0280814692841349217156122,9.5919657493392556091294,0.0253572753304781989269756,-0.0159911103612698397846703,0.0701718269738249578182376,3.64950391139938856710501,1.81531643354404059742535,4.3922684672509042513866,1086.13207506146909508971,1114.45833124915498046903,1105.59248009512430144241,1089.07752211717661339208,195.050707167497478167206,-1345.16365868430079899554,491.590928621136811216275,-384.248709297921095640049,151.107144799271537749519
128.474999999999994315658,0.121089185974652929767004,-0.563498554736490464556198,-0.0109350932611306985581257,-0.0214238382817194990270782,-0.0192125171248153786551782,0.0197903963175411895525357,-0.00415916230425484190896812,-0.0059394120292736059252281,-0.0336992353338491021363943,0.999405004552012088403501,0.0403114001626833085012436,-0.0202306720105777104734557,9.57546980728865548826434,0.0256439014705362455792681,-0.0161197907399160331176624,0.0695949619975980010577743,3.64955470713910123947699,1.8152737619623930953594,4.39242871343586926968783,1086.57987637335122599325,1111.12745870636558720435,1106.60268872970664233435,1088.1801467781576775451,172.910308121957228877363,-1381.37521131118910489022,315.541125272252941158513,-347.691707122974264621007,151.108990656192048618323
128.477499999999992041921,0.266934007787066385208874,-0.161966751964912558658938,0.0454946163080763923969307,-0.0208702921658956534745055,-0.0208908744502438042944803,0.0197086592935219635791544,-0.00399614365033461923365499,-0.00578693203432881306952362,-0.0336416077326079782094936,0.999408472024464811234168,0.0383523209049846103280146,-0.0117362284840230035598552,9.55997898199531093155201,0.02595395262585322229687,-0.016226393436514351120703,0.0689890012059533458410598,3.64960694965133702893922,1.81523053013982971215512,4.39258807238823312246723,1086.9966266020780949475,1107.55145519260531727923,1107.17018572148413113609,1087.33906358156332316867,128.373061077062061485776,-1198.10503498542675515637,97.5973341870918318363692,-261.458487350056600462267,151.111227149762413546341
128.479999999999989768185,0.374113031479264501744098,0.190356995377494508936422,0.1080532636628877413143,-0.0201854804849285925094637,-0.0211113185810017332799671,0.0196473504836975308707192,-0.00381962905822859398810576,-0.00564927722979582588869185,-0.0335855845931789798175515,0.999411841647451892889364,0.036457910751724414977204,-0.00292274319977020580196836,9.54560677275945046460492,0.0262875191859769825886151,-0.0163099381401427198645671,0.0683521193603203042199468,3.64966081792437346820179,1.81518634700731595899015,4.39274920807699587044226,1087.22174167873595251876,1105.13693353144390130183,1107.09067540064165768854,1086.87285434140858342289,60.9724610035117606798849,-817.242054181869661988458,-130.868625421328886204719,-135.819237965722038552485,151.113109634915986134729
128.482500000000015916157,0.468732365809010231849641,0.534760345106264356473957,0.188026960613743326922176,-0.0196109386322851839135062,-0.0201917016421068670761763,0.0196473314374328369980027,-0.00365192364690860140144513,-0.00554666104559965213172124,-0.0335381910657012172194413,0.999414678318402027734635,0.0349516952442067430073536,0.00571138614490641904897217,9.53246150839687089728614,0.0266443155911521740997205,-0.0163707198519982208284596,0.0676798097405033327600421,3.6497171188430228561117,1.81514114199900089552386,4.39291364654463034611354,1087.30148890709710940428,1103.4652449216764580342,1106.51584259437436230655,1086.65996739173147034307,2.42225898390396032766603,-561.072449217685402800271,-333.221889461538523846684,-41.2452163718021083127496,151.115011690389621890063
128.485000000000013642421,0.56483198876017648437653,0.906258446139661666407505,0.2992529162437924661333,-0.018898222624745508041455,-0.017766559032124644434969,0.0198395055777745681069302,-0.00351855004085741994088177,-0.00549766822810436855267779,-0.0335031753769791940111844,0.999416658523067824582142,0.0341357087924760438379934,0.013600564740628401372291,9.52065208473703705749358,0.0270227246691665846933805,-0.0164097086603008264493742,0.0669660653603762201502292,3.6497764627284592364731,1.81509553276159918411281,4.39308170834368549861892,1087.2338529736555301497,1102.33157128534207913617,1105.42456595332600954862,1086.66662825954858817568,-46.8684578983328421486476,-289.953949631253578900214,-438.880925407228346557531,36.4672818719886606686487,151.117315772950576047151
128.487500000000011368684,0.620408871690063867809783,1.15938948287305154671856,0.395546063090868205147643,-0.0178956481316141502446726,-0.0146501344729390026166982,0.0202853265531591255010913,-0.00343559880013300563555978,-0.00550906195472229860687907,-0.0334825801827905930596607,0.999417617465642282859051,0.0340921095045421396196872,0.0203480698545566440760268,9.5102939774217478685614,0.0274187147086564358966498,-0.0164268630908254234523902,0.066205154832278179100058,3.6498386490379344238022,1.81504916745303157554758,4.39325314632003571801988,1087.06714661760565832083,1102.0154751735215086228,1104.3214379673402163462,1086.84230380109124780574,-80.2963247853133879061716,-36.9839536322497082210248,-452.293820815204810514842,88.5199673990778279630831,151.119252355064219273117
128.490000000000009094947,0.629749974851363081285172,1.3363039962305287566835,0.478033990773032047005842,-0.0161282463749830989874212,-0.0107055693714413445449818,0.0211951830839622878954742,-0.00340830176628266739297102,-0.00557458509117089717754823,-0.0334770430343342834111908,0.999417548265534194662507,0.0346631666002874261334199,0.0257530456738866708743529,9.50150719349680450420692,0.0278260666362662792416849,-0.0164210477310873619039011,0.0653926081719636703715182,3.64990315430384359984828,1.81500124279470154142757,4.39342732757897014295168,1086.83237134972932835808,1102.14665151718099878053,1103.16309684925204237516,1087.10922809654357479303,-109.81063825612164919221,106.721213934412588741907,-500.033042391396577386331,114.504134401672217791202,151.121203533131904350739
128.49250000000000682121,0.562068443608920942367035,1.45701628308222819185858,0.53529516299164026094104,-0.0131210598310828180368404,-0.00597458389340959142299603,0.0229507039546684686592837,-0.00343110412119443722311907,-0.00568046992674304737636071,-0.0334829547235160410179056,0.99941666753366120712343,0.0355582265368629135693368,0.0298127438100532909937002,9.49441001639255155453156,0.0282373637967228766076921,-0.0163903942977607838815679,0.0645257263642079331722456,3.64996998973393038667723,1.81495170595338461971835,4.39360247874918297128488,1086.5180934263255494443,1102.54908124319308626582,1101.82127275538550748024,1087.41482447309908820898,-118.432804488309955104341,153.893251887988213866265,-475.455805850356625796849,92.8175440186740274839394,151.123558693510688044626
128.495000000000004547474,0.430880057093715462812611,1.48961930154031740869414,0.530155636010319009088221,-0.0103441843543843996211518,-0.00256452399796271331144926,0.0249036575584493137525133,-0.00349203532832176267650115,-0.00581386375039362988947911,-0.0334957681318087535649042,0.999415243939723141330944,0.0365173921060077955047518,0.0326480435962166123942119,9.48911005965850051779853,0.0286455008459642508633625,-0.0163329550632603827386991,0.0636035931294532813629061,3.65003926435384107307414,1.81490053919170790663884,4.39377783894050200075299,1086.24020732728831717395,1102.91611777662023996527,1100.78581782000242128561,1087.57331581663652286807,-118.974103353247272707449,125.817435039630993287574,-393.398917678899465499853,29.6881802839195074739109,151.125530750311952488119
128.497500000000002273737,0.233503561724537012089797,1.46560076164277863774998,0.456338573067250008463702,-0.00840653986802564374969382,0.000376489569370234207924125,0.0269535482839707817015462,-0.00357763096952677965220668,-0.00596526668462875591519845,-0.0335113893310693550242618,0.999413521162979101575274,0.037360243005818666306439,0.0344150965614986314999868,9.48569728868856110182151,0.0290442959471833503370952,-0.01624755247313534878284,0.0626272292499742005977836,3.65011059186059894088316,1.81484699969528096019644,4.39395528073305374761048,1085.923222909559854088,1103.17816841839066910325,1099.85427816699279901513,1087.56326537451855074323,-141.130310439749450779345,78.7427875835226132039679,-355.415801792747004128614,-34.5157492366383991111434,151.127510495797281464547
128.5,0.00730490228965526445376044,1.4009409019391718675962,0.324869733777161495691388,-0.00774593809161622237624556,0.00328591688537632764521845,0.0286760441649391017993054,-0.00367399026017277028841046,-0.00611605844772943659654052,-0.0335222765212295770176354,0.999411913229652837387107,0.0377484975814353640455323,0.0352796040211501918393289,9.484243768942757668583,0.0294270335119356588049477,-0.0161345241457201173107538,0.0616007834600618212061995,3.65018364528223537845975,1.81479181737806594121309,4.39413399960106598740595,1085.53455577509021168225,1103.30983171453749491775,1099.00873881104030260758,1087.4007370704534878314,-184.547801185121500111563,23.4814090607173788782802,-318.700345400264893669373,-94.1632649808017561099405,151.129495297109144757997
128.502499999999997726263,-0.210754906865132152216091,1.28657512496955694913936,0.135513284451157317578307,-0.00858742958110176278496706,0.00654204877689070624091627,0.0297499680761479090573829,-0.00377846118197439420627326,-0.00624233871888310414000056,-0.0335247243796664845527644,0.999410694172595426287842,0.0372648221952444624882617,0.0352041329686305567991944,9.48479402360174717045993,0.0297874915662422017070821,-0.0159970224377791667147442,0.0605315017672801922166137,3.65025795575951850224783,1.8147369224338432136534,4.39431092274189616375679,1085.00048390363508588052,1103.29557546369414922083,1098.26077643999292376975,1087.09244904961497013574,-282.336863426855700254237,-26.9308910078297500945155,-308.063353503719611126144,-148.737402654659263134818,151.131484883830665921778
128.504999999999995452526,-0.411171955899237495657417,1.0870305130387092340527,-0.131090739863348793026177,-0.0109260383035180794891739,0.0107791233454766766097777,0.030173691443486028163079,-0.00389519066010430257962494,-0.00632942705839429839431709,-0.0335211608543743641575041,0.999409851769518353670207,0.0356824043643645671952669,0.0340460242931132778254621,9.48735205932382186233554,0.0301218864924725250598048,-0.0158402865984484143846434,0.0594293574971515997651395,3.65033296481944713463008,1.81468393367984348607536,4.39448285128940430155353,1084.1228714579572169896,1103.17517725949846862932,1097.46842204352310545801,1086.65705005718086795241,-367.9856098138934612507,-49.4141475209284308789393,-273.78196595620812558991,-152.121218015283488966816,151.133876579338789269968
128.50749999999999317879,-0.501912953084511226364839,0.870582224662545645088585,-0.3597275113771858934264,-0.0134669549477923530117485,0.0139080724420261037099777,0.0297581423112805616704168,-0.00402814651729085058950997,-0.00637469131357987217612049,-0.0335131018008083952919307,0.999409331448405713338445,0.0330113990001419388420345,0.0316918200813786493652557,9.49187440032356199992591,0.0304288600739271372641603,-0.0156710249107747737196128,0.0583069610916457231608589,3.65040833448804891148143,1.81463469195738835715304,4.39464665998567660665231,1083.16055585456729204452,1103.04850472608973177557,1096.89186661021312829689,1086.33184295953924447531,-435.050570547887275552057,-44.1762910188519342113977,-213.957217980227113685032,-103.19864097637328370638,151.135872419880428196848
128.509999999999990905053,-0.505857123236572059354899,0.616392382795260096450818,-0.559628180537741992672807,-0.0158905710332074776025557,0.0157301447993166143568544,0.0284801733372544718658759,-0.00416991898854481100183955,-0.00638110897755796158126174,-0.0334989240229554494088227,0.999409193991509514631844,0.0293676434683288745119967,0.0282673076710914239484396,9.49826922815129393029565,0.0307084147353991962492437,-0.0154959310575874531501483,0.0571797094587446971813982,3.65048371864367782180238,1.81458991125533586341589,4.39480169160378064674433,1081.94761860521975904703,1102.95429580440440986422,1096.3986359536229429068,1086.14105685229947084736,-584.689863517937510550837,-25.4845321185489268600577,-198.391167974703790832791,-41.7563046359571288235202,151.137870479478294782893
128.512499999999988631316,-0.429629122928453788254899,0.292866040901925195338862,-0.725408064779151096068688,-0.0179766472632518076180119,0.0161914717718250264488766,0.0259487776064980420198669,-0.00430742314992660097622279,-0.00635142456399667709732171,-0.0334766607899494167410737,0.999409538577073708331966,0.0248636847519837778097695,0.0240288744988800817559138,9.50639481131773855793199,0.0309611530989143124426022,-0.0153217763460354820109766,0.0560650880123448464020797,3.65055882902066430872878,1.81454892685084012704522,4.39494882721794066782195,1080.2371065369802636269,1102.92108206549710303079,1095.89991077034051158989,1086.12306143635964872374,-657.603677659515255982114,4.60046108908122519665085,-168.122670086511192266698,26.9386008757542860792,151.140269974847711864641
128.515000000000014779289,-0.325680378168040463027211,0.0215998058640015817843949,-0.77707858776666405287159,-0.0188327544879779533448794,0.0154881523879936474491492,0.0231885034825205088582223,-0.00443314766879376355446229,-0.00629155808797122323428042,-0.0334479317418655691662721,0.999410305356561945444582,0.0196791525960065549760714,0.0191545259078667873264834,9.51605464482950935689587,0.0311886168762910490070972,-0.0151559100160452604744155,0.0549812412742908609986081,3.65063351115131728974461,1.81451027682087628889462,4.39508833611694704757156,1078.65960021690648318327,1102.97729810984992582235,1095.55802260318637308956,1086.27574985667888540775,-641.017884812285615225846,43.1132568725603562143078,-124.435896637166223399618,83.353626965629146639003,151.142270410808464475849
128.517500000000012505552,-0.216511667307646538116472,-0.250313202944644319636325,-0.72243707154958913818632,-0.0188425066364061588597423,0.0145798729559772147212904,0.0201218771993176490098243,-0.00454365174087294210192312,-0.00621177997623978753183316,-0.0334155508377110485596084,0.999411355767212739031891,0.014080856489698784228537,0.013771977755467429416214,9.52699727660197126510866,0.031393082395395906225577,-0.0150057595544774678708588,0.05394617487833733293634,3.65070753482171594939132,1.81447314797796122043394,4.39522069132565729177031,1077.03201711290353159711,1103.13664834986093410407,1095.27773128715170969372,1086.53982957118978447397,-640.46344630836802025442,83.0084891771848703001524,-106.886400985746959690914,109.629148586700125633797,151.144270776424434643559
128.520000000000010231815,-0.126513886026396682460415,-0.533205794756986595217541,-0.581142054859958290258248,-0.0183415802910165993966363,0.01422981137831922683612,0.0170749586577005861565137,-0.00463544218879856882720158,-0.00612949735933974223373033,-0.0333821160418657433832657,0.999412520451626651407651,0.00847239317863626717475256,0.00803711970807688413920289,9.53891827936196534665214,0.0315775466417589634193774,-0.0148781739332689254273756,0.0529769796758155220306463,3.65078143117657516469876,1.81443689286636189450519,4.39534538432297061660847,1075.45728298536755573878,1103.39234055573547266249,1095.02359059825812437339,1086.82389559961188751913,-595.789076435444940216257,125.900347155425976097831,-105.078092544413337350306,99.7220205927530685130478,151.146270235442017337846
128.522500000000007958079,-0.0762256287370181168094874,-0.842115047186997700556788,-0.358112285669901608819998,-0.0176058181263870766608548,0.0142774046944395098523994,0.0146759750144685625905527,-0.00470048603612909128568464,-0.00606233410993364287000507,-0.0333484400970409100573022,0.999413709901344260444489,0.00325873074199672929651683,0.00221284116494092908400404,9.55146879477981336492576,0.0317447307581258941766578,-0.0147789375575503971471658,0.0520896456774242316845047,3.65085599633823587595316,1.81440112374467954481361,4.39546242077268622949759,1074.05307173072901605337,1103.76615008563749142922,1094.75234082443012084696,1087.03843967415309634816,-558.361709248045713138708,185.387573398780091338267,-138.112345565139662539877,58.3302538927985807504228,151.148267406928368927765
128.525000000000005684342,-0.0645618580548490000881046,-1.2357174949959350840345,-0.0519620788961785845527785,-0.0169645828697395431583494,0.0130706984701190378345137,0.0138187561589033641729074,-0.00472717890656413394084856,-0.00601489803339885342053917,-0.0333113623268949665678917,0.999415060712727898462049,-0.00140762182818168768427824,-0.00336076603786295002862516,9.56426740562764265973783,0.0318956365672723521353937,-0.0147129948298419157420858,0.0512990596916256466619721,3.65093193782519254142471,1.81436698008474173171578,4.39557180239838451996093,1072.6654744391298663686,1104.31927842272853013128,1094.33302887043305418047,1087.11554686907561517728,-451.851715324848441923677,209.146022700642021163731,-178.600215218265105932005,-10.93015174143231860171,151.150659600679631466846
128.527500000000003410605,-0.0856318843442583216285513,-1.5548924838640514334287,0.183684233266500629433438,-0.0168017076725914815682472,0.0100324437880058656841209,0.0151471166639617575017107,-0.00471166570495711988647569,-0.00598645705780873928214536,-0.0332680939186946328378625,0.999416698013984472481752,-0.00547520593951494882745124,-0.00848022689755037473169352,9.57690327706044719491274,0.0320306799064321925940568,-0.0146851324202987298939149,0.0506173445924916615146216,3.65101003640669619088044,1.81433566993609884931971,4.39567330709502357422025,1071.79381315410682873335,1104.81188019913975040254,1093.85933974833960746764,1086.98378891544598445762,-288.336645086736382381787,184.44128780923568911021,-220.740010526943251534249,-96.5964340378801296083111,151.152647960619304967622
128.530000000000001136868,-0.118425978380762561559258,-1.8169441986416454692943,0.345894951538337880325713,-0.0172800330144273484034301,0.0049064328002195647243644,0.017681465819940473532812,-0.0046604769672485696352382,-0.00596889183563835499374273,-0.0332185945535221696656158,0.999418654968811215333346,-0.00903299649837016604969619,-0.0131354610921657066757717,9.58894652650692158601942,0.0321497704958402102937143,-0.0146996910941901461067349,0.0500530357407514697731798,3.65109015883699417059916,1.81430670123679460559174,4.39576807030974148204905,1071.22379121369749555015,1105.24148486177386985219,1093.22932881779934177757,1086.63256469888665378676,-184.700224445245737570076,150.434711639309568909084,-311.181985499216523294308,-199.34413245618938503867,151.154629041960163249314
128.532499999999998863132,-0.146927638988612607739981,-2.01823282030539186138185,0.426447783862236307061977,-0.0186454262949285951012079,-0.00261348467379672773358568,0.0209518590826933553961098,-0.00458247300135453377450956,-0.0059551297869340985915998,-0.0331617889051014358425817,0.999420974207268164590801,-0.0121562865607109660270879,-0.0173571203563609444131544,9.59995880361416098480731,0.0322532674451179446339921,-0.0147595154177876421164317,0.0496099469928693373454998,3.65117214719313443183069,1.81427900603767633391783,4.3958570589166789943647,1070.87031203188143990701,1105.56405375733561413654,1092.30342982084493996808,1085.98706825316594404285,-77.9637728681591113399918,71.2446387728243735182332,-361.420297522874022888573,-264.308338881996235159022,151.156995388783684575174
128.534999999999996589395,-0.151397840237607828051125,-2.07667552369909769183209,0.403160552431978846943395,-0.0200602602127323767500222,-0.00923535832134831334572223,0.0233461667795360518218306,-0.00447948138869359510638724,-0.00595181370549225253335779,-0.0330973173841520237892233,0.999423611217738039336211,-0.0146701886055055907842615,-0.0210336228604483255200108,9.60950470965456382543834,0.0323434501754679207263798,-0.0148645722839066980053291,0.0492859120041446996385304,3.65125545918672722578435,1.81425142365327052296209,4.39594280173897455910037,1070.83397234935705455428,1105.59770805563766771229,1091.42222733018661529059,1085.31102300447787456505,34.1227420960732388266479,-47.0840295560238573102652,-364.880303839995463022206,-283.742203384812228250667,151.158956179015262932808
128.537499999999994315658,-0.13956288839220382103079,-2.03243809835117605899768,0.31833662216355029794812,-0.0210627789246421240343388,-0.0151103984514329228727725,0.0247108840074195569569415,-0.00436386173017338976215518,-0.00595797756999965743424097,-0.0330279149799135793297289,0.99942641743776616802819,-0.0165480175406907681345814,-0.0242664484628511423203179,9.61716998305986869866047,0.0324226818718699669186201,-0.0150134945757383793385475,0.0490730782881079949375724,3.65133872050771879358422,1.81422264906030217268551,4.39602940971857947261014,1071.04092574236165091861,1105.32863360955570897204,1090.47902830164662191237,1084.5683572362431732472,116.782196462069606468503,-161.543168035961144823887,-380.700767339322453608474,-296.444926024511403284123,151.160902712394630498238
128.539999999999992041921,-0.128116687538595536155484,-1.92871197571809194215575,0.219322247281984322730963,-0.0212620230952752092834501,-0.0195799976359064646647123,0.0247560752451993944245334,-0.00425724586856948434415715,-0.0059633974134997019822535,-0.0329586088576938676664163,0.999429185429327016088052,-0.0179456672045172072049724,-0.027352767581148906828048,9.62257601596644818187087,0.0324933041980508680035555,-0.0152035505081774390684357,0.0489580010206612722956088,3.65142052958092477865648,1.81419130644552728526264,4.39612137140391734391187,1071.41788333166687152698,1104.78999221545859654725,1089.51872349349173418886,1083.82879837435666559031,177.713699704670688106489,-279.750914267405960345059,-384.378201725562007595727,-284.605972007452351135726,151.162835250103626094642
128.542499999999989768185,-0.137867188035936172330054,-1.7892602299494746453945,0.146774490687970854407851,-0.0205086111596778225552029,-0.0224612133155535839690309,0.0235642992072296886263416,-0.00417797064615062913039978,-0.00595444196018820107174641,-0.0328934529419829188578994,0.999431782551256975288823,-0.0190986231676021078751404,-0.0305448304657451596977324,9.62539395677373832427293,0.0325579628958916691972014,-0.0154298629473471789197436,0.0489222053393767314366514,3.65150002879188617654904,1.81415688766791638464326,4.39622144181230734005794,1071.92949424088419618784,1103.92987903821995132603,1088.55713729302055980952,1083.14532737620720581617,229.813310220918964432713,-447.084948313434153988055,-425.251762705527141861239,-282.921006101937280163838,151.164748054628802265142
128.545000000000015916157,-0.188016233849669478495059,-1.60752635540765398403096,0.123393608739873789081898,-0.0195468728314522853517499,-0.025353621333422803052482,0.0220829384177907428465915,-0.00413683221552347754612633,-0.00592650658264795744678555,-0.0328353469604221875899341,0.999434092843641375125685,-0.0200854385966608428581992,-0.0339628609530563535523484,9.62535336691031417899467,0.0326205286357870924418556,-0.0156853771001253944339382,0.048942583757851196302191,3.65157700668555129652759,1.8141188163784160991554,4.39633114192765539485208,1072.56694988277695301804,1102.55456747388075200433,1087.39246467995394596073,1082.41419334384022477025,215.89844086740097850452,-554.268664290875790356949,-433.509716829916271763068,-256.690520796612304366136,151.167016617280069112894
128.547500000000013642421,-0.255971792247766616323901,-1.44094667460152447979738,0.158559459875427771757828,-0.0194527287792113333375621,-0.0281820487955386882183983,0.0216159412198186490217111,-0.00414088907148898576621177,-0.00589031191160645575810584,-0.0327856650333246679718258,0.999435968350871450915918,-0.0207037766704180614674158,-0.0376661109236899049879099,9.62224887810512541364005,0.0326863718963617058688165,-0.0159617232157770495837301,0.0489922628098842100063948,3.65165157089423875191869,1.81407592908385395524817,4.39645246838288805690809,1073.00898644522635549947,1101.15853571675233979477,1086.38958870886062868522,1081.86187477221801600535,136.533089590999708207164,-597.182135942600439193484,-413.505981360425266757375,-218.904323081841454268215,151.168881617777856263274
128.550000000000011368684,-0.328873489519124484470325,-1.23393870173487929520206,0.232506220611600922243412,-0.0204124146532284507504773,-0.0319863624541506103016175,0.0221120799128202635830398,-0.00419056416779445099762835,-0.00585588685638489467311096,-0.0327424767950824924245268,0.999437405585632876459101,-0.0207807421361747846066947,-0.0416088300407445321749123,9.61595344059327850061436,0.0327603991875760405805273,-0.0162496851707580290680166,0.0490433650904451221008706,3.65172437932956528428008,1.81402779570693706290285,4.39658473787748071970327,1073.24961533073133068683,1099.56865679417046521849,1085.32493477315370000724,1081.31967172843201296928,47.8442464746857183399698,-722.585035790891765827837,-484.62462495211605073564,-248.925242868016482589155,151.17071622039506451074
128.552500000000009094947,-0.392497395780323110603405,-0.908229256056973577315716,0.336986593876477669162739,-0.0224504615818577370200959,-0.0375379417491211175850196,0.0235272915367941357067672,-0.00428075066170493026551647,-0.0058333452848760465603295,-0.0327030648218037053864826,0.999438455272552928043694,-0.0201566468251508090769875,-0.0456610117560354300536574,9.60642175024967492902306,0.0328469375292338647276402,-0.0165398117519693667321068,0.0490686253713604192405739,3.65179638737508005519317,1.81397472461977371516184,4.39672506719929412355441,1073.24820767759956652299,1097.54561053780116708367,1083.96646558410225225089,1080.61724855787906562909,-44.7206726405918004729756,-741.672618935846571730508,-507.849263708938337913423,-273.045835550531649005279,151.172878140455793527508
128.55500000000000682121,-0.411792183122802413208774,-0.569274158774768501700692,0.419733493894661802148249,-0.024435781183465180715908,-0.0418123677735259755006147,0.0250010327708437285476606,-0.00439748414249735170705735,-0.00583102337020232047021251,-0.0326660763517441707359801,0.999439174094239546342067,-0.0187218128863905486358732,-0.0495452708451034340431107,9.59369286596911940989685,0.0329494430314604680454238,-0.0168226244889478973587593,0.0490430682815133078822356,3.65186842728190796947274,1.81391767996747099722654,4.39686933631996623716987,1073.0260119675285750418,1095.86029369949460487987,1082.78568845461131786578,1079.95444255068059646874,-115.07548202968344241981,-650.28620560456170096586,-471.295184534502652695664,-284.810652972359832801885,151.174643887512729634182
128.557500000000004547474,-0.395288314247302929871353,-0.194686611607198023499166,0.486453389701902549902002,-0.0260443011713384110772385,-0.0436152634509320638600549,0.0264095739725162190203456,-0.0045247332797660536063411,-0.00584898917999175562559833,-0.0326278247240019761421514,0.999439753994209922893788,-0.0165360476369276476749093,-0.0529719161748245515042299,9.57788883247553890498693,0.0330697027116023042903059,-0.0170901266436653542779567,0.0489451187636150489290721,3.65194095609375501965133,1.81385820888233584291527,4.39701355568914031834993,1072.67283026745167262561,1094.29417950978131557349,1081.60998966143188226852,1079.19319529301856164238,-150.664747526662409882192,-638.955438717211109178606,-496.076209017061103168089,-356.125503667732232315757,151.176369536216867572875
128.560000000000002273737,-0.350749478647356838223459,0.220548387781662802442639,0.544136148497921912081665,-0.0270673142070877795206663,-0.0422285191811863219735201,0.0278983929455031733068981,-0.00465119729343678109390048,-0.0058781882054581542987326,-0.0325849556123344527569508,0.999440410862671657632461,-0.0138373523698214484500824,-0.0557674815346127505932827,9.55920873942154614155697,0.0332078798793867743799346,-0.0173366911815592376899797,0.0487567372398318224502312,3.65201426468204681796692,1.81379866368247766317268,4.39715441643665094773041,1072.27268822989594809769,1092.66551650591145516955,1080.30530740952826818102,1078.17381503234355477616,-117.331084949425829222491,-545.513979607945202587871,-443.005219653053245565388,-386.951912184292211804859,151.178391263820941503582
128.5625,-0.309407414581465367575674,0.484473885764711897916612,0.573055281498389135208527,-0.0272339885052536763432318,-0.0391393926909404041292184,0.0289976976575690818804798,-0.00476681895934267987197108,-0.00591353602404439977063833,-0.0325356630421151510335065,0.99944128092635753368711,-0.010790279300123467587369,-0.0577964741994414776815603,9.53791877956849987185706,0.0333638992084008614846802,-0.0175586835857953205142223,0.0484624828882701114141085,3.65208883281699936418363,1.81374171498582970052382,4.39729009661913483597573,1072.08617484270507702604,1091.56660961174407020735,1079.39496356316863057145,1077.25843573209886017139,-25.9940797728868275839886,-383.382895860935036580486,-305.032487216526590145804,-371.101272251163322835055,151.180033641357198348487
128.564999999999997726263,-0.277532096875993672391303,0.628071764530325982178738,0.579554133253094350131107,-0.0271785855388346486716244,-0.0357689696805632909026862,0.030052461653850268130661,-0.00486538415705879429690173,-0.0059628905954384392104628,-0.0324832554648493559978917,0.999442234010207930516856,-0.00731138482995916105799949,-0.0590010753501273577104058,9.51433999172797939536395,0.0335385309431155478887554,-0.0177541873952656477364531,0.0480482857106253324896983,3.65216467221515816987676,1.81368778101608785213728,4.39742259458979312114479,1072.14271783103163215856,1090.74860202660852337431,1078.78014497344702249393,1076.31830867108942584309,60.6201683062050662442743,-284.501553586628233460942,-181.020983293029559035858,-371.5672787019880729531,151.181630722622230678098
128.567499999999995452526,-0.255232199560362915669032,0.672843092685319832391144,0.56208250313438379297537,-0.0274069275305935805553403,-0.0329767908234282827728556,0.0312314574852752095679431,-0.00494482396987324518411455,-0.0060306964685743723320055,-0.0324313579782126923389818,0.999443133068446787348194,-0.00338150654698896047101186,-0.0594140027544310667106942,9.48884443520288201057156,0.0337317123555783693333865,-0.0179229136721886679606275,0.0475020057162968203923192,3.65224169945386378799412,1.81363652132350328116672,4.39755479466759258144748,1072.38927568423582670221,1090.14410184381222279626,1078.48985864670430601109,1075.40059933859060947725,119.900261310676711445922,-199.031447466767559717482,-22.7226486376118579357808,-350.294867631146473740955,151.183189662376065598437
128.56999999999999317879,-0.237787157580761271402636,0.624369649250332670042951,0.505384257163356664932508,-0.0280540660614681802709214,-0.0311541797267860243181303,0.0327454768846485166911009,-0.00500571356064660223650353,-0.00611733434271108985486043,-0.0323812203854080202236609,0.999443931535142326971766,0.000942823944742765540638629,-0.0591266258163890001675611,9.46184553791658089494376,0.0339424810304804272509394,-0.0180657271580602560301365,0.0468134118696173426310558,3.65232010956305019888646,1.81358664668661773156089,4.39768824521079793044009,1072.74221913758447044529,1089.75344478927559066506,1078.66653173025906653493,1074.5668343329352865112,127.946125679480203984895,-135.777594295437467053489,195.022302006095770821048,-334.256853068094869740889,151.18470233383894196777
128.572499999999990905053,-0.210949504786258207333915,0.505311483849302467419307,0.379773050007157775276312,-0.0289327862368448374130736,-0.0299634306634833369464843,0.0349658651052464145014831,-0.00505140948885661727335572,-0.00622253097783129639070099,-0.0323345168348533676394574,0.999444559636224583165642,0.00559703213543538691254753,-0.0582845204159688490275215,9.43378552818060889251228,0.0341695089348577202281732,-0.0181840806025693260683518,0.045974220441042767948403,3.65239958937374220582228,1.813536220002020193931,4.397824479525077379094,1073.02900631263264585868,1089.46521387233565292263,1079.46497015673389796575,1073.72931507325165512157,40.300268324781697515391,-86.253323005745414775447,387.112211559667343863111,-272.936006017765009801224,151.186463842735037133025
128.574999999999988631316,-0.177041071573991209975318,0.388837274098721596971018,0.225493155678119366891465,-0.0295557907710701957271215,-0.029573941564822802535728,0.036830919791141912555954,-0.00507957383312015661736005,-0.00633620767592257567307756,-0.0322912502224071834566743,0.999445088964906802608823,0.0103325473426248148900441,-0.056930213656190692406156,9.40512962723727774516647,0.034410285226808265401921,-0.0182792630787498508460054,0.0449796015228127663010405,3.65247972862642322766646,1.81348441347375710641643,4.39796347726285219437159,1072.9437204792081956839,1089.32217817424725581077,1080.60209278805564281356,1073.20215430284770263825,-140.765514507630513207914,-51.4548530519094668989055,535.363241031190568719467,-171.638434666873678224874,151.187886649418487650109
128.577500000000014779289,-0.126233792167509351056509,0.285247881460330865444064,0.033759445466840558303101,-0.0299866266198091716010943,-0.0295264533112521918023496,0.0377841438902463411242394,-0.00508382199649204651742407,-0.00644853969608612243025192,-0.0322516237184641701984944,0.999445607206887354223568,0.0149109854766420191207743,-0.0550260335610776307735392,9.37634899272875266262872,0.0346622508293193340445093,-0.0183525111385271673392072,0.0438281765622959562644922,3.65256038213901224054325,1.813431833908268009381,4.39810366630054438985553,1072.32517874009113256761,1089.2079396070748771308,1082.14178636190263205208,1072.87112289991318903049,-411.587489854299917624303,-62.0810899038352346224201,735.409005471036948620167,-102.960100273693981876022,151.189261819922364793456
128.580000000000012505552,-0.0424599194811774924285253,0.196173123812299954327187,-0.204812012236223028871507,-0.030274319521575502461852,-0.029597767940091522509416,0.0370676534317455480538328,-0.00506243148867656280603944,-0.00655371563231092312679094,-0.03221677464312711763883,0.999446127020625740833282,0.0191808062789810829240622,-0.0526129032799849127854941,9.3479032100173888863992,0.0349232207631585550577924,-0.0184058617665193262336043,0.0425220971418965726362771,3.65264152015840348752818,1.81337902358356028997832,4.39824357685693279051975,1070.88578302992686985817,1089.01177272472659751656,1084.27913781542838478344,1072.68735380147677460627,-631.938714239260661997832,-94.079031183122495463067,799.784274248713472843519,-38.2288733649040537443398,151.190855548787681073009
