t,ang acc x,ang acc y,ang acc z,ang vel x,ang vel y,ang vel z,quat x,quat y,quat z,quat w,acc x,acc y,acc z,vel x,vel y,vel z,pos x,pos y,pos z,mot 1,mot 2,mot 3,mot 4,dmot 1,dmot 2,dmot 3,dmot 4,vbat
0.0550000000000000002775558,-0.536512217327528739829745,0.276047878429259374577498,-0.0358786625336989239976049,-0.00360458043151649920599056,-0.00229665965242720204742,0.00589081985582658174127602,0.00118732308713789510082326,-0.000867773297277516799351493,0.00925262089441453682014949,0.999955823400529353328636,0.0224957121422817152289753,-0.0378202556149124999307354,9.76065691403528923331123,0.000589434201767786839810948,0.0134481619395207183109697,0.00670986974338986033594701,-1.79491667600503412849378,3.2169923101012587451919,1.23760109870465773163062,1092.31898580217466587783,1111.00785738733998186945,1090.56681534537028710474,1106.46186948749186740315,-1018.99681505724311136873,-1147.11499939103214273928,-94.7751369149499680588633,183.897811586666477978724,164.034420577023951182127
0.0575000000000000024980018,-0.394415384329974250121609,0.291192776746552306477156,-0.185620915734389962947759,-0.00653523721089700401765121,-0.0010517713019766361439572,0.00439103118997963021846731,0.00118407271312030194787557,-0.00087887364452980134242599,0.00926411281936409709836244,0.999955737564709123965656,0.0245819450814828976970006,-0.03524352836526527948946,9.75263940613842983395898,0.000359109507467580144415842,0.0134361874786214589155842,0.00646640610254103909149137,-1.79491395149075527726268,3.21703012943178867644178,1.23760869259367245476255,1089.53522237899665014993,1107.74389347408714456833,1090.45209982337951259979,1107.08774513515390935936,-966.480851593860734283226,-1185.45090561792744665581,15.0845005394330726744556,249.828173530750177633308,164.033543853277308244287
0.059999999999999997779554,-0.161446401085621332738285,0.261339866492851236046135,-0.275587068807933988079384,-0.00866443563741678239586985,-0.000298298487687653562320383,0.00319202714661848130361932,0.0011816046197457206155812,-0.000870435273959024652032368,0.00927172460847651772053446,0.99995569459881172846849,0.0264529631974119994186623,-0.0330246348599571581949874,9.74521747328792464770686,0.000135139236501160420059545,0.0134256033473019089491407,0.00621945672737964517368114,-1.79491362804431742183908,3.21706877650996903028613,1.23761076966474448113331,1087.48658154420536448015,1105.08060285925034804677,1090.64223784806745243259,1107.71101035514561772288,-710.93798300880769147625,-986.585487158845808153274,132.264942097754158112366,240.383362941929703993083,164.032767281414294302522
0.0625,0.168432962669836483460273,0.195199267436606788139741,-0.332614468226097359515592,-0.0100579914112053862146334,0.000173932742052447931839498,0.0021068314355169358645381,0.00118309068891997047276443,-0.000846999965207409738314481,0.00927406945703714187534406,0.999955700707238936963961,0.0281807656738611439495301,-0.0310931892238451128285259,9.73838053476638521033237,-7.98414082162043800246568e-05,0.0134124886570924951867401,0.00597670534574504253022553,-1.79491549678796924460755,3.2171076294735381218004,1.23760959071784548690687,1085.98053246395261339785,1102.8109660382929178013,1091.11342453386828310613,1108.28966194986355731089,-506.443461839944120583823,-846.726312351619640139688,252.596747600818844148307,216.243010217112697546327,164.031946912956414053042
0.065000000000000002220446,0.620841577921499299108632,0.0831400330511931906496415,-0.377383546575449035920258,-0.00982702244013467472727452,0.000492168934520433444361476,0.00112888422336234199756799,0.00118844993603386809601086,-0.000815344650953385994066047,0.00927540641592999870468361,0.999955711317517925706966,0.0298761919255748700785524,-0.0294318236631640750555761,9.73210529733887952374971,-0.000283096078133670690964163,0.013393672840180087524331,0.00574362304460382909476746,-1.79492002591835286828825,3.21714581201351190742344,1.23760764167342895980539,1084.95436423500564160349,1100.84697129749224586703,1091.9052215860715477902,1108.79222540623118220537,-246.489621993350510820164,-563.2945373331035625597,302.25281172338299029434,139.131059901683215684898,164.030917255882997096705
0.0675000000000000044408921,0.989250296335119294610649,-0.031754864730716959864143,-0.407713574819911883651002,-0.00763186922656225886357761,0.000587450494254344586335381,0.000599654154268735727247031,0.00119888061620224465296525,-0.000779932629543849775637099,0.0092807219074022510169053,0.999955676876972843203362,0.0316022048415963013878738,-0.0279891039156078755278934,9.72635901312403738927514,-0.000472270234073040250620534,0.0133667865894849663410682,0.0055231156524435821159047,-1.79492693025374849824516,3.21718350109229067612659,1.23760639021989793384648,1084.74808435398585970688,1099.99449335162739771476,1092.62468859248519947869,1108.98531724937197395775,27.4000491116566742277882,-160.840744675397075980072,260.067633932612579883425,24.4218685943905953195099,164.030026062774112460829
0.0700000000000000066613381,1.27886526645662002010795,-0.162639153041164885582504,-0.442258765837684530985996,-0.00371425095643659669217285,0.000489422128968233869500404,0.000222345307153988156704388,0.00121208945109504734501116,-0.00074581741487437938978311,0.00929042282618322730336491,0.999955595158625532015151,0.033430910358492993417201,-0.0267752222620129542995926,9.72110394226306517850844,-0.000645799252088377910736849,0.0133301352553210766815894,0.00531571528067216296509212,-1.79493570195987639515067,3.21722060184129521331897,1.23760670534141037357756,1085.09136448056392509898,1100.04276757411525977659,1093.20555975573461182648,1108.91433474920313528855,228.822822476150093962133,223.383038922111580859564,176.150931279153496689105,-88.3393714117120794071525,164.02910656645340736759
0.0724999999999999950039964,1.47007900141155412043759,-0.329137799134079422902488,-0.490863602972289536641171,0.00227803531562938057358769,3.57582720180372104143429e-05,-0.000329708722163741900761796,0.00122641556035019941468811,-0.000721783586549042772625984,0.00930040802594046638052117,0.999955501925360867865322,0.0355066302746273668167198,-0.0257840189972053379641181,9.71630191894145056608068,-0.000803115061181230733416969,0.0132826780262485302785969,0.00511973270586172073820519,-1.79494483708706065172578,3.21725779435388448135313,1.23760963267255186259774,1085.89219846636660804506,1101.11140854623795348743,1093.50544324888096525683,1108.54362039231341441337,317.495051260949082916341,536.840505821920601192687,17.6491992291176167384492,-175.462526258661796418892,164.027978406253197363185
0.0749999999999999972244424,1.47180019381204485462433,-0.466685345610113155867538,-0.529870208409384257919328,0.00777389889765784606462384,-0.00075312329796994609970584,-0.00109352723911021443813085,0.0012442280077840585546245,-0.000708754220836450713263965,0.00930672169424774133050793,0.999955430495526043088717,0.0378225674783621360064423,-0.0249262805632457958016079,9.71191700555355907908961,-0.000944737988130956904929414,0.0132240489393860884137499,0.00493154886688024728103041,-1.79495313278429047265661,3.21729548888431171604907,1.23761567220075052730976,1086.67883973686866738717,1102.72697010322485766665,1093.2938057518801997503,1108.03702211790982801176,294.605674322201309678348,746.98654546291368205857,-191.948586583521148440923,-230.212570778121317971454,164.027024002078888997858
0.0774999999999999994448885,1.30805431250969217416014,-0.589284298147195628736483,-0.549236182746241863306125,0.0129358147329292350047325,-0.00212506836763255236091852,-0.0023897484690058572870397,0.00126496242150032911499835,-0.000702731487986962529215806,0.00930719269421875772252406,0.999955404403798264745262,0.0402784624341436664485272,-0.0241674334673847093779564,9.70791925373590380843325,-0.0010721122109470624002292,0.0131545377524183680628678,0.0047463023665954189381222,-1.79496079377898554163551,3.21733317815034691733445,1.23762465101203744666236,1087.36522683797761601454,1104.84634127355252530833,1092.54570031596335866197,1107.39255753842280682875,233.443316149259572966912,881.726832680350639748212,-378.869379901970773971698,-268.828172709072305224254,164.026062764578711039576
0.0800000000000000016653345,1.02981168137112821803214,-0.688813180366587674008372,-0.535681561168221187507754,0.0171042017807228330372737,-0.00401819666372274248572483,-0.00417643268188749600816623,0.0012892762431897402709835,-0.00070478940243401671118112,0.00929938142143440713005553,0.999955444770029955314783,0.0428768377402032330181214,-0.0234507431101419611119141,9.70428827969434948386152,-0.00118740172660801489648574,0.0130751766303219309206529,0.00455835127745190474973791,-1.79496766061044144002778,3.21737014582668168216628,1.23763750772918079690044,1087.84605631761496624677,1107.13560426662661484443,1091.39945885237034417514,1106.69288125436446534877,129.7820854912059758135,891.271052158435054479924,-524.069413909819104446797,-277.921209044870693105622,164.025101811164688569988
0.0825000000000000038857806,0.665009360906298918614254,-0.751290340428606651101973,-0.466131719711900482927547,0.0194672380537190617411092,-0.00632344665625145501558491,-0.00631119052000893125675685,0.00131686206259937947996019,-0.000715056411946753990582781,0.00928565892961272752736956,0.999955530485599153323051,0.0456066071090300492740788,-0.0227399296522424604338752,9.70101421011326614518566,-0.00129325122427540340624974,0.0129876883226804611809468,0.00436194210885319875320443,-1.79497324081798503847551,3.2174048690146515028232,1.23765537245743684202637,1088.01413726543364646204,1109.30269653434470455977,1089.925353246414260866,1106.00295149319845222635,8.61109833413137693014505,848.619190837052087772463,-671.657937618419396130776,-282.198847837798666660092,164.024148278700181435852
0.0850000000000000061062266,0.208987493249123190697247,-0.781059931917576610871379,-0.311349930018889609062427,0.0199888303659238389387021,-0.00899509000397641020341233,-0.00847234545523390877863612,0.0013479315173821576449853,-0.000726086620118493800135617,0.00927107080895020821409425,0.999955619171842946535378,0.0483155572175186023842208,-0.021990975101883164510852,9.69809774546065561651176,-0.00139269462706457982509312,0.0128943064906132300734276,0.00415187760395086154219246,-1.79497731772560742413702,3.21743734174156603700112,1.23767609036806880418169,1087.88911180928562316694,1111.37870022081187926233,1088.04116916427824435232,1105.2818870151754708786,-80.5983275688048905749383,631.752017319740275524964,-670.624004828050033211184,-234.505218871163179983341,164.023021612355819343065
0.0875000000000000083266727,-0.128275353026365085407079,-0.773319682899837768097484,-0.130865356879914046528413,0.0187347713615127718644882,-0.0108606752942522807175996,-0.00946484486844575284569814,0.00138045778467029800311294,-0.000735603189582576455149421,0.00926173803628007642763098,0.999955657534337460923268,0.0509574361825816668503109,-0.0212092726058041233794249,9.69555090574203681796916,-0.00148883608617307009076847,0.0127974556510457547486848,0.003924270859214344306376,-1.79498000040820904210648,3.21746804546403319946535,1.23769753607013743845755,1087.6111456275896216539,1112.46145662094340877957,1086.57223322227400785778,1104.83042539884263533168,-114.473621996785581700351,271.576922101940510856366,-527.364564400023596135725,-139.119840861303856627273,164.022103823163064362234
0.0899999999999999966693309,-0.368873986116652341493705,-0.741293604520207094488171,0.0826466859884330412588938,0.0164167843765183965598631,-0.0123822476046438045144127,-0.0096555780557288240634195,0.00140856506044993289722411,-0.000746917318792649116698801,0.00926065822985213185636333,0.999955622209574568337587,0.0535994820984710199085477,-0.0204820229543428225515989,9.69339569919331189851164,-0.00158469700070363846491905,0.012699463760213943255839,0.00367694665759035581309444,-1.79498045217571000620183,3.21749793908240944162458,1.23771706710774642701267,1087.31674369930169632426,1112.73658483132157925866,1085.40434634227813148755,1104.58628781086895287444,-96.2656771368076107364686,-65.7521555590848407746307,-415.410396473681316820148,-54.2895281692836846332284,164.021215515687543984313
0.092499999999999998889777,-0.517563548370958637079298,-0.683078099354500256623623,0.346894748017801624051515,0.0134099555520547763370898,-0.0142363285411828341398,-0.00930319255114827638186714,0.00142831058725403372243468,-0.000758972790491323667967649,0.00926700929430260451902246,0.99995552563801570755686,0.0562296859734077725256896,-0.0198647170649840186518187,9.69166143227263177095665,-0.00168299766907591867928784,0.0126024376735186325465543,0.00340927037689161020403428,-1.79497897095873248929365,3.21752735203651507589484,1.23773352444771789215849,1087.12981724190558452392,1112.13269584314798521518,1084.49518123990560525272,1104.55897775799621740589,-21.412824672643164802821,-358.087247999582928059681,-242.898994000870288800797,32.443910708707306866927,164.020192277370142619475
0.095000000000000001110223,-0.526101070941619397558497,-0.62103462519217778048386,0.549144359713472529627154,0.0111188733500364334699784,-0.0160403738405180545933959,-0.0083035085057898642274532,0.00143488715555214097104042,-0.000772221935679288516880814,0.00927744021839364309267584,0.999955405487348403248404,0.0588690804606027406897795,-0.0194363793108515633956124,9.69038289960507093212527,-0.00178574538486866302156031,0.0125081528370959201706958,0.00312198756429489044164627,-1.7949772234835272843867,3.21755555730417119875142,1.23774755589171991942976,1087.20967957593848041142,1110.94614859132366291306,1084.18985137227377890667,1104.74850736441248955089,90.4986084332903431004524,-576.534458993909879609419,-31.873993648423464719599,110.785443755912538676967,164.019381397572288960873
0.0975000000000000033306691,-0.436927469782204869197528,-0.549099426616448837989992,0.701228411929078920827862,0.00947123863324587748901973,-0.01776446978887206984421,-0.00609272533550067954544183,0.00142761762436095676447045,-0.000789615956738077564257272,0.0092885017220400503679123,0.999955293349767626587266,0.061590287979676722196487,-0.0192025701404173951281074,9.6895978715978667850095,-0.00189397217441027339301929,0.0124179987286039423405315,0.00281680171827414270804835,-1.79497625591000664613262,3.21758323523261680065843,1.23775966592523922749081,1087.58231028407203666575,1109.25002354817843297496,1084.33581127166348778701,1105.11290497677578059665,225.012721445773223649667,-805.475175300443197556888,151.802125686435687157427,182.901670483351892926294,164.018621060779963727327
0.100000000000000005551115,-0.258490523086030987709449,-0.462060467931105278704962,0.796315934422247240220827,0.00896599506127343862105228,-0.0191768184018696538628568,-0.00245183850947105303960671,0.00141295354740421006366213,-0.000807600431734372650911802,0.00929801285476713861022358,0.99995520143360516751585,0.0643418677028737423517768,-0.0190352203389774314590266,9.68934408287233495116197,-0.00200774647826976052403247,0.0123329146489692953458928,0.00249602330534058744135328,-1.79497693444793893213784,3.21761169493508480954347,1.23776906120870999750139,1088.33474318316734752443,1106.91877271482144351467,1084.948862000705958053,1105.66301571682924986817,312.069551952435801922547,-860.237928474133809686464,280.899768814742628819658,204.385207154063948564726,164.017774478310002450598
0.102500000000000007771561,-0.0809793962365036312789357,-0.398904007384680958647749,0.794967699168160013556417,0.00962177075345137765294279,-0.019694345747700674198466,0.000473744046102323953812557,0.00139797006709181334017933,-0.000824901398305797587014176,0.00930568700828911417322065,0.9999551226410550164303,0.0671156521534099076431445,-0.0187996902478020887217181,9.68965750863656971603177,-0.00212623040816286093535048,0.0122533955099030193724996,0.00216250475377204607121961,-1.79497899338823874160198,3.21764144951372443870241,1.23777477166387850360252,1089.14265804383421709645,1104.94883390580775994749,1085.74031011573720206798,1106.13483101254610119213,336.653446243145197058766,-747.752829536604167515179,352.807468898618708408321,171.220720024666974268257,164.01712845978394739177
0.104999999999999996114219,0.10252900804962578051871,-0.352846100818237529139765,0.719709305430633938804874,0.0105310158357392151529108,-0.0198077327019987314837834,0.00246815610440175546569375,0.00139256526623547649545998,-0.000844918347183015901180614,0.00931266336090894909782723,0.999955030266470146216307,0.0699918013105667036199975,-0.0183119327946663565387375,9.69057023384874227645014,-0.00224786245247281159936881,0.0121796744970355634574144,0.001819256857975510080494,-1.79498188394481128504765,3.21767233601289426303538,1.23777840091650270792911,1090.01801041438307038334,1103.1800085671384294983,1086.71289934519904818444,1106.51911931695258317632,373.781752891773749070126,-693.406833411974275804823,444.830986743091614243895,127.619018689529426069384,164.016548742137103999994
0.107499999999999998334665,0.322392984409352323371678,-0.31239458485389648423336,0.567990655061578864071237,0.0115351423925130758263435,-0.0200155060647406457530195,0.00409573400536737686206123,0.00140582308960573131029204,-0.000867874965384762180400924,0.00932298356516599383003729,0.999954875623166095088834,0.072984505010934244695342,-0.0174067474147808071149868,9.69210823599006232598185,-0.00237049309329974162291466,0.0121119163635181950611219,0.00146921095767477724418348,-1.7949858616490910190322,3.21770359477893475030896,1.2377810536509705752195,1091.01156680829308243119,1101.48179973874789538968,1087.96446504945265587594,1106.77292610599374711455,341.596533189430999755132,-535.5016192370835597103,455.77916122097082052278,46.6189906961971729515426,164.015933867245678356994
0.110000000000000000555112,0.508438406976896462019511,-0.277603871724388273634077,0.407917330837828995271366,0.012372280381684405692333,-0.0206509845338801352465641,0.00512410750558581207236841,0.00144130526521822990328181,-0.000896265400673585820208455,0.0093377021837230556738918,0.999954644857337315855261,0.0761454972139851693491153,-0.0160295791929797835917437,9.69429003685702816994763,-0.00249161454119995037434498,0.0120503192676634438007532,0.00111524150300413389322318,-1.79499103667420301100321,3.21773411430862177340373,1.23778367727613303195255,1091.7259930803302268032,1100.50250047095300942601,1088.99179515130390427657,1106.75221427043356925424,257.344788891259440788417,-294.242955915933350752312,387.704939981722077391169,-64.7156421532599210877379,164.01549103759487024945
0.112500000000000002775558,0.702673964616327806353979,-0.219928767115555479083611,0.230901761366466201641501,0.0130396345286529144469334,-0.0219167862340747844618338,0.0059772813813835142665587,0.00149259622992647445795245,-0.000935850158453444490834483,0.00935547008654746652112077,0.999954356345935324590357,0.0795816439963874661112087,-0.0143223515370495112913884,9.69712539917460603078325,-0.00260848084902749613803175,0.0119951242573412830694224,0.000760342836347273668372304,-1.79499757365802548036982,3.21776282937956992213913,1.23778801726139731087528,1092.298290752749380772,1100.01058495916822721483,1089.9029897493612679682,1106.4493478952274472249,208.521435050442761394152,-118.479468374562102894743,330.155969967563294176216,-168.777880226707424071719,164.015122178662181795517
0.115000000000000004996004,0.902330501330746215238321,-0.130282732934542150315949,0.0527334852462040606924099,0.0136808132713136590408176,-0.0233281063402409755136446,0.00672087945109164659057699,0.00154954421758265949334021,-0.000982849837554115521309761,0.00937044621859241082251213,0.999954081769215741282153,0.0832071636019411919882316,-0.0124996460049127764563304,9.70061393767935342680175,-0.0027183346163507974245499,0.0119464947113234049025365,0.000407652014135891560195346,-1.79500562646498007524087,3.21779037387898947386589,1.23779318358753465112443,1092.76860025558244160493,1099.91010312908019841416,1090.64257500114172216854,1105.90832486930003142334,169.929025270084679277716,43.1644394661816122038545,236.889496001640310396397,-267.758636868211169712595,164.014815299740035925424
0.11750000000000000721645,1.09153684002928041962832,0.00127770387886044431424715,-0.107601519976293732994144,0.0151776526297743713511679,-0.024199466343568159371058,0.0068325103419056409242982,0.00160724332688539934405059,-0.00102551961683935511163157,0.00937654153185439945272783,0.999953893824353512442826,0.0867752673329199586405025,-0.0106739064342100224702659,9.70474433522399770879474,-0.00281845577459976549816734,0.0119043722638864819807214,6.05272553971631941728028e-05,-1.79501560285015848705825,3.21781783603490278977688,1.2377975980330448990685,1093.14793587909980487893,1100.22640715649913545349,1091.08743722936947051494,1105.11055471088639023947,149.341177231736139674467,211.273226757521513263782,109.698338235830519238334,-393.52850093946545939616,164.014583272876620867464
0.119999999999999995559108,1.26422649409495635453027,0.195654899562051565187204,-0.249248336741455633891462,0.0189903338504074960246815,-0.0240500563193256911009854,0.00562019389723671103364921,0.00166363722578964428819304,-0.00105707832241685095384098,0.00937232132315221969087737,0.999953812873345393441582,0.0901286399982292180110832,-0.00890337432159751113180945,9.70949383241753061213331,-0.00290625187837283615807649,0.0118684126116420738533686,-0.000277184346430027657437467,-1.79502755435347660650791,3.21784562095476411869299,1.23779979610950752189069,1093.51530614174112088222,1100.96646926286780399096,1091.19106669232087369892,1103.94068236460270782118,116.162440163179994101483,306.861631650463664300332,-39.7596072466968379899299,-446.301700247296082579851,164.014391208454355819413
0.122499999999999997779554,1.32832523602702012865961,0.373548415022553814690554,-0.305801241288552683172952,0.0234779219297127361709698,-0.023072820418873724729325,0.00391375645881540754761341,0.00172027541084033446829038,-0.00107981559551006771856263,0.00935691535783110886481673,0.999953838512053105880284,0.09328024104875998201436,-0.00717753968502375314097996,9.7148274882107692462796,-0.0029796318848952451328882,0.0118379866924505361414077,-0.000601211071528998152249668,-1.79504079258173132593868,3.21787409717264072384069,1.23779943007760895312686,1093.72874807991570378363,1101.76071531475145093282,1090.88863919313598671579,1102.87904620964991408982,54.7778333195764801644145,319.894904733700684573705,-196.887363745145023585792,-416.311181249011099225754,164.014302942112550454112
0.125,1.28329301701877263042206,0.552538860130997955266707,-0.28929136174756175936551,0.0282046578975317825677127,-0.0216816553449309563916803,0.00232769952346071132276428,0.00177743699496198072004804,-0.00109624080157016989302277,0.00933425810684850899845433,0.999953928488675813923692,0.0962418934357342076291175,-0.00550948793118785987155128,9.72069812428124890857362,-0.00303712875337279475385088,0.0118122951328720714181397,-0.000907017904907347709796139,-1.79505444351077736442335,3.21790317004789283572563,1.23779600313694104762874,1093.78919530833900353173,1102.56594378653630883491,1090.20662987359514772834,1101.85912645835765033553,-23.4584892670227205258016,317.041145186248911613802,-365.90791785483781950461,-407.026492275644727669714,164.01428890773109969814
0.127500000000000002220446,1.10415445977365056506869,0.756796332338146138241086,-0.194298993544558901147568,0.0333011143700031944647755,-0.0198035817158426843964669,0.00103996624740282589752227,0.00183126988893186773768584,-0.00111275362205414860526653,0.00930835789844378612423181,0.999954045248635070564092,0.0990965667584561421543654,-0.00399184410851333854042267,9.72704680641569652266298,-0.0030781272053386427370314,0.0117904527221740981768328,-0.0011900201885137477644111,-1.79506802687956068531605,3.21793216524661973565458,1.23778991083488554281189,1093.61145563358059007442,1103.34592104068269691197,1089.05909960386179591296,1100.84391374827168874617,-112.152686673380131310296,231.711747867848117721223,-450.721289021975792365993,-317.023740043304940172675,164.014357484330702163788
0.130000000000000004440892,0.872479326741685823343175,0.911555677161152821952328,-0.0687746390107414756753812,0.0366074583659054125783783,-0.0180870817951068567353001,0.000564582179817814063839398,0.00187711952689929763987697,-0.00113555098969890327052779,0.0092834997153656857032944,0.999954153959210167990079,0.101921101884839632178981,-0.00273103854289510894481907,9.73380366902882698809663,-0.00310286265860525460255626,0.011771535110465990159323,-0.00144599739269391761205263,-1.79508077006825494947861,3.2179607039322903894174,1.23778218057073230440324,1093.2284318749721023778,1103.72450252587555041828,1087.95302342848526677699,1100.27400775814112421358,-195.208887486614742101665,79.8181621433740673410284,-438.701136396820913887495,-154.994793529794918640619,164.014485470565887226257
0.132500000000000006661338,0.600438997974564347970272,1.0402084679044925064062,0.0802708818268881019175609,0.0382124646205130799603289,-0.0161021934507803929359504,0.000651454841826622286886372,0.00191412421445725199065091,-0.00116203783455516400369145,0.00926382455322101276695701,0.999954224850276629510404,0.104621299169711995391552,-0.00175596590739181615536957,9.74088937067584481610538,-0.00311230752740799350083978,0.0117545357913282390305287,-0.00167148923543467020115527,-1.79509172461751509430883,3.21798915236336391387795,1.23777284100274265199459,1092.63541119614751551126,1103.74501185139956760395,1086.86559392187768935401,1100.06893978062271344243,-282.241267410790669600829,-71.5130679166576896932384,-436.396199531736385779368,-4.06242973649568384075792,164.0146865183737645566
0.135000000000000008881784,0.287779172118167891891716,1.14647504475402839396736,0.25687357377086872389782,0.0379829082439684037608707,-0.0129342249357027629097505,0.00127155634085437214617076,0.00194561574654701099039433,-0.00118675856166197452208622,0.00925045005379036486270472,0.999954252719691072393005,0.107048475133978499007625,-0.00101070593056882748750347,9.74821683533413185784866,-0.00310803305115490849722115,0.0117383058184490924463761,-0.00186392318309742022371112,-1.79510065048715583557737,3.21801800654990355354812,1.23776282067313081469706,1091.81722553791814789292,1103.36693718629226168559,1085.77104243082658285857,1100.25369560945864577661,-287.425105144438703064225,-190.29060474822455262256,-346.271730759007994038257,128.841021853349843695469,164.015011615011985668389
0.13750000000000001110223,0.072993735259791844849353,1.17951999006105423539736,0.381938851417204849880704,0.0365767839551580722923241,-0.00952080850282983372212531,0.0023455285063856529635673,0.00197420358117992526120199,-0.00120938569442974081132036,0.00924742441378825774656036,0.999954198156365881011709,0.109155638300502622062282,-0.000451478136534573526450487,9.75569333644624947510238,-0.00309181336848691817528745,0.0117216213639684957437126,-0.00202152710076021003074431,-1.79510790094849870257576,3.2180471376263661831274,1.23775303510746681467936,1091.19828567042532085907,1102.79355882765844398818,1085.13423526808264796273,1100.71314488988946322934,-193.377919723798015638749,-250.601264721126199219725,-186.713951300953169720742,222.50566076722842012714,164.015351797396931488038
0.140000000000000013322676,-0.0795093547124922361835075,1.14209992096618728751878,0.463685458551858942222168,0.0349438536912917430132808,-0.00587843162941329051840444,0.00415597616309937994971691,0.00200741138562340664872052,-0.00122064879868444557849128,0.00925489767217562916967744,0.999954053379153218195086,0.110725273248228880951238,6.60065592055121552750308e-05,9.7632231536106370839434,-0.00306546970011631293370757,0.0117031712474889790231991,-0.00214351955965832010123084,-1.79511485627347755489325,3.2180768715498246912432,1.23774375964080651790766,1090.85033593929915696208,1102.11393086268662955263,1084.83747267432181615732,1101.36622391329478887201,-66.5010787759910613203829,-258.780785387670903219259,-64.0668592502606202288007,269.648505001532384994789,164.015762778059524862329
0.142500000000000015543122,-0.191242630035338950778012,1.04595293002314448926882,0.501011393507942215386208,0.0339032641327834463607083,-0.00252719128946578969197034,0.00613168549377718103549073,0.00205270996794792732337287,-0.00121258689984312067848549,0.00926854429648241856520841,0.999953850645952102560443,0.111569149129663619524067,0.00068793561565119731859852,9.77070999408645057826561,-0.00303078499235978973680439,0.0116816583431041572105347,-0.00222983458595625268564011,-1.79512287328129782615349,3.21810794025266666551488,1.23773376916015154236561,1090.86578027654536526825,1101.49965490072008833522,1084.81390097183134457737,1102.06138741489712629118,115.280611499293257793397,-192.893197860940745158587,45.2914205426625215977765,259.546859984130890097731,164.016231291672767156342
0.144999999999999990007993,-0.284429725057676274779794,0.890791459674949215319373,0.486453856173574561427841,0.0337974963118418403329457,0.000438600024683105476058093,0.00751138639246114181435843,0.00210859527144254639205445,-0.0011882825860048749737341,0.00928512580913787126390968,0.999953612996439811233529,0.111718138354362228614747,0.0013857116608248475075893,9.7780595415311459817076,-0.00298947349072547705062242,0.0116560344381039012601198,-0.00228083842000241857062015,-1.79513196280019360351332,3.2181401843721100242135,1.2377220890686346788101,1091.42673899679562055098,1101.14946487338193037431,1085.06392977703512769949,1102.66395821321543735394,377.432228680028799772117,-57.0354460909132185975068,153.76944530257858900768,214.586408514061162122744,164.016767319944165137713
0.147499999999999992228439,-0.41522558246777796497895,0.665209317986317105741989,0.420317176736572095663291,0.0342891214532530935743537,0.00354446149570365395820026,0.00819158388610266748053323,0.00217192542779430725410905,-0.0011572181200994245513225,0.00930162838768867558658648,0.999953357978835333241818,0.111334248101169985822878,0.00209921343982661517957311,9.78518192663842789613682,-0.00294333561539093487360863,0.0116256612524459571750279,-0.00229766941843662477265586,-1.795141272602927218216,3.21817334757199358108437,1.23770905105414508184936,1092.75294141994550045638,1101.21447767026552355674,1085.58274819834423396969,1103.13431945746742712799,579.273415917804754826648,116.035574346506010101621,213.518198646852198407942,118.246575768080120383274,164.017485639342737613333
0.149999999999999994448885,-0.557410961454559927830132,0.475420292727215754169379,0.330473160100290208607277,0.0344486056628229078691028,0.00522855136165429820738204,0.00862653065957158689258666,0.00223671292804931629016885,-0.00112487050641798006986316,0.00931751462861380927438226,0.999953093519863278615389,0.110507754465827390255583,0.00271430523422222166884943,9.79199495129864594389346,-0.00289427429240218629657999,0.0115904902133316407147889,-0.00228246722532509304856574,-1.79515120331136590614562,3.21820641748014812932865,1.23769593632666619065219,1094.32310607638464716729,1101.7296427451144609222,1086.13152077026938968629,1103.25519109205583845323,684.649652955294527600927,294.492843442457967739756,233.833321315387166805522,-9.99297539037796944683123,164.018144239099257220005
0.152499999999999996669331,-0.7334652324727145566996,0.329314172501606328147261,0.20310535576394372903053,0.0333999918630811451492058,0.00527432544246552413580442,0.00972051308925495072266187,0.00229633512950666194771254,-0.0010940436313574763375206,0.00933176578119275686173939,0.999952840496630912525688,0.109283881241914793136516,0.00310528882311466095100805,9.79842634218251617994611,-0.00284445194786259961811092,0.0115510940836746536092283,-0.00223850920111158839184706,-1.79516121578463216934551,3.2182380967724246723094,1.23768409098513387789353,1096.17618968472197593655,1102.68694188747781481652,1086.75191480492117079848,1103.08435458051553723635,816.805018756030449367245,493.436678526631567365257,287.297963123228100812412,-130.756715051665992177732,164.018861567485004115952
0.154999999999999998889777,-0.964293244527534620935683,0.250900457475664140361005,0.00534586355593391626683797,0.0308283853438238372723923,0.00401725417271503546651212,0.0114522301203389062496107,0.00234650756995628817502819,-0.00106549029891605780487329,0.00934712516050492311925346,0.999952585164801677208857,0.107675755986470875202876,0.00319258429948535496500917,9.80441559567693587950998,-0.00279625171492792548577633,0.0115085741274441218096047,-0.00217018572756777364599068,-1.79517036042175037735547,3.21826751755131512666708,1.23767496484417560687064,1098.40713117016480282473,1104.19682613774762103276,1087.56801058588553132722,1102.60140751679750792391,770.356656855801020356012,584.497809559933898526651,313.790249071871301111969,-207.868412068000736780959,164.019785527225735677348
0.157500000000000001110223,-1.15604600771314447449356,0.281655602072183819384321,-0.186262007378258487300116,0.0279966254872573462597618,0.00292984375460665158810714,0.0123919349880899139909607,0.00238472079589112243361293,-0.00104079723746244618039214,0.00936208853371555023425987,0.999952352516127906945087,0.105720846264446055595698,0.00293126816088486175093664,9.80991544823200101177463,-0.00275243100205475486538798,0.0114642711076679438414461,-0.00208269306963538083921073,-1.79517765221029312883161,3.21829531739539076440337,1.23766843104432511246671,1100.02797296900098444894,1105.60943093527748715132,1088.32086605028052872512,1102.0450125201755326998,550.426624644932871888159,561.515992723070212377934,319.603842550713750370051,-232.232344728890694796064,164.020604311808966713215
0.160000000000000003330669,-1.3309694657805448692045,0.401668571183864953066944,-0.373612779818820239796651,0.0246354904213630446219163,0.00274627390434957615802936,0.0118880656729666248777599,0.00240765630796789921810874,-0.00102170675995311697505097,0.00937125656261976816563397,0.999952209428612293073968,0.103467170420908055605835,0.00226050964590260652919973,9.81489305663887456887551,-0.00271592872443313960995059,0.0114195065076404967535639,-0.00198160091481538059438039,-1.79518295341822331501191,3.21832176648398560203646,1.23766500319812378094753,1101.15926429338946945791,1107.00440610136297436839,1089.16602979863910150016,1101.44024579315305345517,352.071664857748714894115,573.018743672946129663615,391.47490257178071715316,-252.395160670857649165555,164.021468971905818534651
0.162500000000000005551115,-1.51014206783994620053591,0.608363080171700154608061,-0.542770098828952329839126,0.0202065806239087042417424,0.00413796605478937949695872,0.00935387054205759349567728,0.00240859990157876865599085,-0.00100845109227982554327141,0.00937650600416238370893307,0.999952161612536194468248,0.10093989202622503931206,0.00105312100247626633242604,9.81933052021303787171291,-0.0026893385631197143717519,0.0113754245240536948358123,-0.00187239151644041207887825,-1.79518647898084382497075,3.21834673450985508935673,1.23766455410227482758501,1101.78833129328972972871,1108.47452465364222007338,1090.27824056313943401619,1100.7830367168212433171,104.222494919940700697225,482.032335661142042226857,417.347847831478759417223,-215.140313046776810779193,164.022553919450331250118
0.165000000000000007771561,-1.63050329414106198733236,0.7960647683846909794525,-0.60622738458527702931633,0.0164538318838129103693912,0.00671654391326164269121479,0.00628816191591932086707439,0.00239365745378437378212966,-0.000994390022948924172038754,0.00938182898588259435446179,0.999952162445189585149308,0.0980382057502449388852739,-0.000564363269849457033222606,9.82322375148942228406668,-0.00267474424703257598542883,0.0113326969074387697011819,-0.00176044307723391760256426,-1.7951886731229786953179,3.21837063480810225968298,1.23766580145799776069282,1101.68037676798917345877,1109.41456777966868685326,1091.25276903779649728676,1100.36454422791916840652,-159.273364612090375658227,294.290600609792534214648,386.272775224142264960392,-130.236112865031714136421,164.023493297528631273963
0.167500000000000009992007,-1.71956872614164790746827,0.963648236686724724009423,-0.574896138424134672817445,0.0128095294750998726918123,0.010299466183552766912479,0.00340151480668806011423144,0.00236885721654080940931641,-0.000974048422517438173585946,0.00939101891102170870107013,0.999952167007942538390353,0.0946898412416089796384,-0.00246544957201755982056923,9.82658200388040548034496,-0.00267359254456783854841939,0.0112913956925714455831189,-0.00165037045918240169936619,-1.79519098444581426399225,3.21839412460099483226372,1.23766818882447715566286,1100.99196447022927713988,1109.94597765669118416554,1092.2096044392601470463,1100.13185615249608417798,-347.264653828960661030578,132.98685429517706779734,368.060388778030414869136,-60.1075470678096621668374,164.024464170671109286559
0.170000000000000012212453,-1.7799408716465914270799,1.10225610235283588700383,-0.474236899543589496275331,0.00898087103226030865343876,0.0139483902754696572484638,0.00116757416902940895815644,0.0023365793789946955223702,-0.00095326972682715821645616,0.00940488805007380634926051,0.999952154211707466835435,0.0910491473045866861468767,-0.00459512578769688539992444,9.82942652173495368117528,-0.0026867056521109257578861,0.0112509026070504065952793,-0.00154569245162419939554344,-1.79519450372438083007864,3.21841839237828608588643,1.23767188878713652044894,1099.94405349884436873253,1110.07950205114457276068,1093.09307098168665106641,1100.06400649258011981146,-466.362371526610843375238,-48.535196463171772052192,322.778493751502253417129,9.69417600122141287499744,164.025457292083274296601
0.172500000000000014432899,-1.79732669057947536117581,1.21110355870142494261188,-0.3197019184100819422234,0.00469279962126747246520253,0.0170427364943745648928619,-9.5034627073313453064253e-05,0.00229961341936821403106328,-0.000932991121067451405213244,0.00942178417163814369006403,0.999952131361898532979637,0.0871781614144480632155876,-0.00688662550496858816284629,9.83178884391064222825207,-0.00271429961655396618028235,0.011209937854034464355113,-0.00144886784280158606615097,-1.7951995886229377141774,3.21844367088749461203179,1.23767614287035421227756,1098.66015261259622093348,1109.70330167437532509211,1093.82349690801765973447,1100.18032703250219128677,-565.02616630273178088828,-278.538244326864287359058,273.901860343357611782267,85.6985080852609115709129,164.02647248239520649804
0.175000000000000016653345,-1.75502965554896794841966,1.32784885135612529261095,-0.122072628196900817565407,-0.000685175514405119518920873,0.0201339122106855075711174,-0.000441271735841545272721609,0.00226669671302411925017939,-0.000903948982295845696738334,0.00943952140849199303196393,0.999952104403017294487199,0.082942402900311879010431,-0.00915098665951173326216228,9.83370828846589262184352,-0.00275612938272789013624542,0.0111667030254009192608011,-0.00136138307865428000165142,-1.79520647426831825299587,3.21847025247847184914463,1.23767815959222438060294,1097.11892266733070755436,1108.68681082951025018701,1094.46258028340344026219,1100.49249903300642472459,-529.060259599102892025257,-453.565666498163693631795,190.108040872565624113122,135.656356255049729497841,164.027709971670674349298
0.177499999999999991118216,-1.65912401142885279625716,1.4277124608977544983901,0.0155975864609574545877058,-0.00526004793997022698781585,0.0225281711885151648966374,0.00027652692572608181123886,0.0022464749348095310391149,-0.000863753229067623249856633,0.00945248039065216434650996,0.999952103881551535025096,0.0783446123212319378570356,-0.0111986950645355746308818,9.8352299013655120063504,-0.00281184564425377954768881,0.011119087080938009487463,-0.00128369666961893925949401,-1.79521495906523642638319,3.21849851571806455652336,1.23767670972001853080258,1096.01485131460071897891,1107.43547334188451713999,1094.77403711238048344967,1100.85860881377743680787,-371.525802655516486083798,-557.495424072388118474919,78.5354242966153890392889,158.369656445484736195795,164.028752662574817122731
0.179999999999999993338662,-1.49684773587540931316653,1.53593131997188714343849,0.0902485233105340678427808,-0.00975944675059763414037839,0.025166434820098899927121,0.00196076706736545737508326,0.00224149009587695791090312,-0.000816140490557954747206926,0.00945949571546776321606664,0.999952127136559121289849,0.0735082246846357756364654,-0.0129575842838590537392518,9.83640265238689792681726,-0.00288105461634064179826664,0.0110649636860744339517115,-0.0012155321721558217870629,-1.79522520219210646175156,3.21852789923406312766474,1.23767330216380222474015,1095.26129365405313365045,1105.89933370914832266863,1094.85525740488651535998,1101.28434731523384471075,-231.040003990119458876507,-699.831785686046146111039,-10.8469462085395118577935,189.452088070038200839917,164.029801900308655149274
0.182499999999999995559108,-1.23456770347399835685565,1.66336986401868935914194,0.0918620164583821147141762,-0.0144877277139793293747605,0.0289796739664565095040416,0.00424213043299958431076035,0.00225100237490805836840235,-0.000765644638831299278319831,0.00946205182991068441400451,0.999952156802094371812473,0.0685724035078293520095727,-0.0144165380958123628268863,9.83727729421703322998383,-0.00296357250566077912862228,0.0110024042128981664606657,-0.00115639994441778335559912,-1.79523635471572973187904,3.21855823240823024633528,1.23766863996622578092399,1094.85965129465012068977,1103.93631441345428356726,1094.71980238133778584597,1101.80586925412762866472,-63.5015956897404407754948,-705.551816871456367152859,-80.0789346695636794493112,186.291797776811847597855,164.031062736288703263199
0.184999999999999997779554,-0.976479100495160068362566,1.7479124296791637149795,0.0316113458071971345497708,-0.0174940383663841070305267,0.0328329926167116245561139,0.0053420547129028883581725,0.00226991884747655909074227,-0.000716246530368469655133956,0.00946021765464674299628278,0.999952201929622863652014,0.0636647422469446694348605,-0.0156469644583961224604263,9.83790446038139698714531,-0.00305967664947974548120269,0.0109298456325410912187701,-0.0011058705841446086690083,-1.79524740969737783835569,3.21858931597179998007618,1.23766342625056768866898,1094.94378567560443116236,1102.37157462479103742226,1094.45486273153869660746,1102.21580630411790480139,103.305050850758476599367,-570.806586130265259271255,-125.962771817830684994988,156.22482146450224149703,164.032110907876244709769
0.1875,-0.705864442277238435252684,1.77965285495006853011546,-0.0567604199299916595267135,-0.0193071335021724535541132,0.0374421668839383450788638,0.00488172336341072526239016,0.00228866635859391190713219,-0.000677269653254634397022971,0.00945410052909504902696192,0.999952276041258469874151,0.0590166395160572759825968,-0.0168071184655089328474631,9.83833325056106033912329,-0.00317011023340874704620762,0.0108462466030432198860201,-0.00106368261071168135160903,-1.79525714637644484561463,3.21862031222925848439331,1.23765981963773197271905,1095.37617654890391349909,1101.08228148280295499717,1094.08998852224863185256,1102.58699336145014058275,232.196392492687465392009,-462.686065680145077294583,-171.624321677472693181699,161.781939387401365593178,164.033152009487167788393
0.190000000000000002220446,-0.401527364059625524461694,1.72365832656794171207082,-0.148410956232602586624125,-0.0201916516592635514326659,0.0434415159141648271612368,0.0032240733444962926465549,0.00230301389645073918341356,-0.000654827374787868461691875,0.00944344568952404025963254,0.999952384309020558816883,0.054796220090657009327284,-0.0179482426251151433449493,9.8386091413527960725105,-0.00329592085151308219342914,0.0107511369494979087957365,-0.0010299266171337299879962,-1.79526435077344936885879,3.21865062646255539746676,1.23766007148704182405652,1096.10476763806786948408,1100.05814429639031004626,1093.59674112315133243101,1103.0247160010549123399,266.561391538152520297444,-265.232452335157859124593,-183.116744997960097407486,172.442279543611078906906,164.034388375145312011227
0.192500000000000004440892,-0.185149024169183856747267,1.58309417719238787469749,-0.18960942336304800748259,-0.0200047648806311040292627,0.0482378255785834708646576,0.00165576150972469534651543,0.00230873299014803124579176,-0.00065170484537875573386595,0.00942954482651982631158383,0.999952520688332735510073,0.0511041468328459064229818,-0.0191205605957498643576731,9.83877241193863305568357,-0.0034380981723044013245727,0.0106446160296806407313808,-0.00100454110080343186200968,-1.79526935263209264093121,3.21867964977222387190636,1.237664779328318642726,1096.70898350659467723744,1099.75611922112716456468,1093.17440479725883051287,1103.44920475916819668782,197.709197004632926564227,10.8219785714481897542782,-163.959652318771844647927,205.165098458200930053863,164.035404640242177265463
0.195000000000000006661338,-0.0190204593035242369714055,1.34048196291204524399632,-0.18608358770178010099805,-0.0190609067161270386014937,0.0524682819014355220077483,0.000389287242519484734219748,0.002304018149387306469561,-0.000665920508731942932013903,0.00941463581815455731460762,0.999952668843462677550349,0.0479447838229055331438211,-0.0203265999373646449877029,9.83885638012350405290363,-0.0035971913106112051762564,0.0105272385592447299124119,-0.000986777356658968081079553,-1.7952725599546519585914,3.21870776177519468674859,1.23767343860123735233003,1097.09331362309103496955,1100.11225418924755103944,1092.77694286155747249722,1104.05054149334591784282,89.7379021676441936961055,255.495174144198017529561,-148.624401505139616119777,288.782688760238386294077,164.036402753135178045341
0.197500000000000008881784,0.109586149795217038804829,1.0198825364671744164724,-0.15207939246314172709873,-0.0178081662074566805797904,0.0561608523968623596367422,-0.000441172945090680286572837,0.00228942588790510088633812,-0.000688057407939658889108048,0.00940004139305924794889346,0.999952820214146886890205,0.0451725813153187188975224,-0.0215232978173216342454577,9.83888570118649496976104,-0.00377298884337377718814488,0.0103998816665095139555319,-0.000974619813010030853518695,-1.79527504270218196680275,3.21873523805320171931044,1.23768332794191437962183,1097.15767301743289863225,1101.03359509184815578919,1092.43128278973313172173,1104.89311820296939004038,-72.2861537071366200279954,497.51560191571070390637,-116.201421215327982849885,413.382271681575389266072,164.037383392390978542608
0.20000000000000001110223,0.215407451010344586084244,0.625489099223058064858094,-0.0986859597656322973247001,-0.0169011520722798826155131,0.0588416624022775683333641,-0.000589125964763677172075784,0.00226351143225135076689214,-0.000704814143989042807443568,0.00938520321298702379919643,0.999952991575671301660577,0.0425599405237584854644339,-0.0227098571792290482296295,9.83887549978966724495422,-0.00396429866791799239561511,0.010263661465642934245146,-0.000964324498043747429729122,-1.79527809474461519378963,3.21876196696376304373644,1.23769065277673928626712,1096.73188285455535151414,1102.59983219882610683271,1092.1959357554808320856,1106.11745285175379649445,-305.650905083802797435055,812.659758246035607953672,-64.9665630715389283977856,635.143702752520198373531,164.038340529285989077835
0.202500000000000013322676,0.360225123247944867266312,0.108253899246723697680217,-0.0365155542002550057012478,-0.0169690765726825121273436,0.0600112961256695498502012,-6.05378103477327838156247e-05,0.00222703179763459333320719,-0.000704889077622481026973167,0.00937054918576872564184299,0.9999531851674772209293,0.0399124452797056730735115,-0.0238469915252728925647574,9.83883127344793884105911,-0.00416882436456885406561579,0.0101198859187992991348626,-0.000950587341890183506500078,-1.79528315985415543032389,3.21878825551990921383094,1.23769181632636038337125,1095.62941849201388322399,1105.09689388307833723957,1092.10644997437543679553,1108.06883671673199387442,-488.814819155003988271346,988.987160655596198921558,6.19222384270869419253813,786.218877138752986866166,164.039459571609256727243
0.205000000000000015543122,0.526259621484992723416951,-0.323318092472651585911336,0.00132461259060348557348163,-0.0176333705424760907309878,0.0590948173716454791537522,0.000506625437227689406037567,0.00218553587367039401159752,-0.000681005816204733618011991,0.0093573288285815538894985,0.999953382733217877031962,0.0371081203449392243998162,-0.0248073415297771875109856,9.83874934300691705857389,-0.00438330030961919542981109,0.00997001927113069785768573,-0.000927237053025667216921146,-1.79529121913368383545162,3.21881464776777059810797,1.2376846464594892793798,1094.28780875878032929904,1107.54476800210409237479,1092.2268968746943755832,1110.04854723744756483939,-588.649698539438190891815,1010.40120068755550164497,88.5377586020239562003553,834.053588785581382580858,164.04036636533098203472
0.207500000000000017763568,0.755180546832673438295558,-0.717650287135961573170562,0.0201833181516074058881038,-0.0178944236678300477860759,0.0567523300866442301226833,0.000825964693374386222345096,0.00214734881666498074459515,-0.000627291570924262058099596,0.00934764737705088590014046,0.999953551503692916746502,0.0340447068422666115905528,-0.0254155281009123615310052,9.83861776463224479982728,-0.00460378730231658737231948,0.0098157117267806057170354,-0.000888277794000600761509245,-1.79530242523089755835031,3.21884077680290969780685,1.23767046564007854314582,1092.68616999931668942736,1110.14889988651611929527,1092.54913876738555700285,1112.23910466065990476636,-707.507077813219098061381,1123.96316892928166453203,173.061449914440231623303,958.061306843232955543499,164.041245758065883819654
0.209999999999999992228439,1.08418666212511194402168,-1.12239199473927775407844,0.0252239191895986814007102,-0.0168001240539253533790021,0.0532126644302642615169674,0.00106274548745782793091053,0.00211657080921895954586653,-0.000545843632847887658132713,0.00934027554886734945327476,0.999953692067127364317969,0.0307674313720556411033691,-0.0255883844618279357452373,9.83841909121567503859751,-0.00482615656939478984699399,0.00965880644843608755778508,-0.000828817644372025277843541,-1.79531689744093370109113,3.21886570296515506228729,1.23765248867287769307666,1090.75027336971425029333,1113.16458384675047454948,1093.09220412426657276228,1114.83885377166370744817,-667.96577570408169322036,1046.66551061296127045352,203.693052403378743520079,904.938770489893272497284,164.042269411351583130454
0.212499999999999994448885,1.36849203015076970046948,-1.39678114147603715800017,0.0210124166825406410996635,-0.0142900455213498603357358,0.0499338632132213730563386,0.00124933252984388439531249,0.00209798122715471697594114,-0.000446256280583552178767293,0.0093323283894194107579434,0.999953814109564742551584,0.0274606830161908399556836,-0.025238832313814539565211,9.83813340548379500205556,-0.00504645913332268762629962,0.00950131082287984825296423,-0.000745994673896262835283144,-1.79533413058891522240401,3.21889038217891698678841,1.23763334038119743318873,1089.34634112079629630898,1115.3822274395809017733,1093.56760402940244603087,1116.76379851310935009678,-473.174168781360606317321,785.841463296036863539484,161.704295988283632823368,675.004494068161307041009,164.043096711061537007481
0.214999999999999996669331,1.60771247164171215970896,-1.60774326604294781617455,0.0177625950928456885491435,-0.0100637308845959016351257,0.0462011848856980905653202,0.00141620200927963725730241,0.0020937103804487986954963,-0.000335325318501342682902394,0.00932185435253052481485714,0.999953927857436530857171,0.0242453502097272760584801,-0.0243395765951671672056023,9.83774073814947591642976,-0.0052612262745034901745278,0.009345401950122072740057,-0.00063944160360090691961471,-1.79535326546441731387915,3.21891538851163616641315,1.23761436520299472618944,1088.38440252580744527222,1117.09379116323066227778,1093.90072560420799163694,1118.21387624200451682555,-289.343314382631149328517,609.161999966772214065713,76.5460756950232479312035,495.574003732871915417491,164.043898663095376377896
0.217499999999999998889777,1.7810282602943727781053,-1.7944369382835942960952,0.0288055755673966330798752,-0.00375244834592250312357842,0.0410947160293892443938546,0.00138244190323968691586076,0.00210205310105391089334215,-0.000219950082364031535920104,0.00930789481727010981071402,0.999954045766814680895607,0.0212367943972615463854581,-0.0229471257900824392172989,9.83722514051717844552059,-0.00546774755944429841081345,0.00919349277508445424100803,-0.000511372867563229219385612,-1.79537374791809622998073,3.21894080872447974073225,1.23759666296069781310507,1087.89962454888313914125,1118.4280374394147656858,1093.9503344078775626258,1119.24166853177371194761,-59.9906791276679953739404,365.35025035968794782093,-57.8086756710035345463439,250.217533673594289211906,164.044833859032053169358
0.220000000000000001110223,1.79883053709531437469593,-1.90191767076948559100913,0.060863687024370539957463,0.00185994097903260480024457,0.0366265798380780160936609,0.00102846066950969326596332,0.00212470600911007475100623,-0.000110795370790732982356486,0.00929127364357634939751041,0.999954156389989634590165,0.018619647010830298050621,-0.0210598549068282576979261,9.83657885036107337839439,-0.00566421779965695527253589,0.00904834643016565187689793,-0.000366601262802342857741178,-1.79539425979264777311073,3.21896644054737190998594,1.23758220292283138697087,1088.08444913016910504666,1118.92054241502910372219,1093.61168222585297371552,1119.46496391037248940847,184.864749550842873304646,81.1461527529444737183439,-215.943310550619372634173,-32.8170184957343451515044,164.045591980319642289032
0.222500000000000003330669,1.66865660822533823370861,-1.97033590028928973225675,0.124590844668081679458282,0.00734227887768586565120366,0.0324169960409217000618654,0.000565102402924195362787785,0.00215877881749660044743977,-1.30271560663855592897623e-05,0.00927820588378785310323948,0.999954207216106172317893,0.0164656926482056598093351,-0.0187725426143205212370368,9.83580422062984638387206,-0.00584968222984224260618813,0.00891322131334824387105531,-0.000212187697648310994499171,-1.79541388734873064159103,3.21899095959595404892184,1.23757265989223186331003,1088.82394829663735436043,1118.83376820317948840966,1092.87061785512446476787,1119.07758343929504007974,369.349372713622528863198,-111.491864802701357461956,-347.702430343224193620699,-237.207862066224862473973,164.046329191703250671708
0.225000000000000005551115,1.42029367428257802252745,-2.01262614115323890118248,0.213530358435834261010555,0.0122837497351654615501682,0.0283585491351435979578977,0.00025859788058831928133155,0.00219767200968085064591295,6.97154667582606558939862e-05,0.00926962442297296455862021,0.999954203859285795097378,0.0148143792523260098281668,-0.016260536485598470202163,9.83491650891222768393618,-0.00602411570650232281592951,0.00879170949495350524671711,-5.684884130500140146788e-05,-1.7954329264564365953305,3.21901257312711752689438,1.23756982558516792636283,1089.93119599373721939628,1118.3630830910155964375,1091.87317007413685132633,1118.27892460004136410134,503.845879889649495453341,-251.745429908350843106746,-425.540037528935101818206,-386.197444978824591999,164.047049427288669676273
0.227500000000000007771561,1.05437280318517756505514,-2.02276886835290881094807,0.321140503284863543242977,0.016038523700781171649199,0.0241123228319544066766689,0.000373071235451403809477156,0.00223286944727218474027186,0.000128166777979581966500841,0.00926634399228885158317226,0.999954157285444011904474,0.0138154182959504129302175,-0.0137438448306752697414268,9.83394606046019070788589,-0.00618815676444166816450032,0.00868752839195622954260312,8.99322376540811395601374e-05,-1.79545135550512013900004,3.21903031451868626433566,1.23757460592713730562764,1091.34317769608560411143,1117.57504105363773305726,1090.74291766747978726926,1117.14659621440091541444,655.901404878658809138869,-384.18202584703033153346,-473.839550930369625802996,-530.676712642479742498836,164.04774907113522885993
0.230000000000000009992007,0.531011515423172708594279,-1.98494067918336325462292,0.444974062189740560135931,0.0187081902131749251705362,0.01852236072019916926501,0.00124351989797844052557108,0.00225470065480733693197291,0.000161412824933628370896802,0.00926924776771652358942077,0.999954078517806599357698,0.01345562453776733002897,-0.0114678161045383159716282,9.83293597445215183938672,-0.00634295206587360063665848,0.00860406582803153151262077,0.000218737321633648496487998,-1.79546933085860849210746,3.21904429088373333911477,1.23758536480295133763718,1093.21070301813051628415,1116.44217296178044307453,1089.50397231948500120779,1115.62554103682896311511,689.618415479662303368968,-426.89474161415961361854,-399.264154728052403697802,-556.116438311027650343021,164.048563963173421598185
0.232500000000000012212453,0.070457725001154006272408,-1.8975609670020976427196,0.519046813857819810955618,0.0192804464822980241300865,0.0134342797056944338041085,0.00270338972271933972169045,0.00225702248785524840768435,0.000168860841707796458400354,0.00927599269673990735329827,0.999954003220736353796383,0.0137192492497057449973852,-0.00961077374421681965288577,9.83194131958358852330093,-0.00649009433145940079629144,0.00854380170026768602509204,0.000321203255751410223992059,-1.79548739653840971897125,3.21905439686454863945642,1.23760048282810553033073,1094.79126977348391847045,1115.44056734556693299965,1088.74659689383952354547,1114.36601402284577488899,611.547885357094287428481,-400.534919748360721314384,-218.630306479781012285457,-477.692091951348231759766,164.049221314947516248139
0.235000000000000014432899,-0.359943075285668712126608,-1.73806279967701238220457,0.53458595489711147052958,0.0182032913902859111443533,0.00814756023858743960719409,0.00489984292453934239253144,0.00224417892640409264576329,0.000149766699753527815757587,0.00928496956012324001217273,0.999953937272423987181469,0.0145996496767046846088078,-0.00814404920161007975232259,9.83102572028181143082293,-0.00663147701401714875779625,0.00850782399182417430061331,0.000390704206759381010832105,-1.79550548324780212539054,3.21906175969968311179059,1.23762038102467530897854,1096.26844244491599056346,1114.43949836303863776266,1088.41082078708609515161,1113.23708057707221996679,600.319595509017176482303,-439.496195141282044005493,-42.9714548946776275784032,-452.489597822932012149977,164.049854116695257744141
0.237500000000000016653345,-0.786624181405407796319196,-1.46177373881736527572173,0.466020125581018351823559,0.0152629060280593305959362,0.00241588440245552428867204,0.00788176321270337917890281,0.00222601010592781561880926,0.000110939017719253774389362,0.0092934484451139658112151,0.999953884638792200867385,0.0159478573670040618681654,-0.00692610758304108148353251,9.83025595721625045086967,-0.00676928449791839356025624,0.00849534855880640545067184,0.000423025115966745534051147,-1.79552310366964595900185,3.21906841435110457894098,1.23764439151652716475382,1097.79286775102900719503,1113.2430863698605207901,1088.53173961936613522994,1112.10356603373111283872,502.717726133371400010219,-441.525903804360723370337,121.656587879397761753353,-377.212739675043792431097,164.050582027276163898932
0.239999999999999991118216,-1.03965234438435749630969,-1.1732235816125331506754,0.337605837431633748479953,0.0118537850936786676170343,-0.00138239764810521993491921,0.00996241146904044104493092,0.00220953109194744383783626,5.91727525909181215741338e-05,0.00930107820776058906442341,0.999953836738963541819203,0.0176203849083147040532893,-0.00586402192074426606427373,9.82969831725036335967616,-0.00690584427409258148899962,0.00850351922328496101499695,0.00041722717322765048072325,-1.79554025557956631331535,3.21907668571930383194513,1.23767004352229070818225,1098.78203107558283591061,1112.23186884401684437762,1089.0191037264830811182,1111.35101687869700981537,326.053833491734337712842,-409.523257326647694753774,250.095269868462565909795,-266.583170537206910921668,164.051159811870007843027
0.242499999999999993338662,-1.17264990025395432482469,-0.852167242950330527939684,0.156877206830219578792551,0.00817422528783210561309502,-0.00393945964684662766619461,0.0110493438216188333972356,0.0021931208155427663573922,-3.56433330825750821057446e-06,0.00931017735525741831070778,0.999953777126272647102212,0.0195729599365156436974189,-0.00502574302998296321143279,9.82941406443559451133751,-0.00704349319306578694477317,0.00852748422009689047151859,0.000376224032474673593298004,-1.79555711313202182033422,3.21908884748958312727041,1.23769476548794665760056,1099.42313691848767120973,1111.19547008322729197971,1089.78221596870844223304,1110.77065018104508453689,198.56592456703748439395,-454.143848515058891734952,363.66217957583978659386,-225.253255885536219693677,164.051704356869578305123
0.244999999999999995559108,-1.20154349084757106069787,-0.470250867643887349167642,-0.078401604590908585690201,0.00405606569321605332778535,-0.00547822457065491423555681,0.0110678926442690853115813,0.00218045391547423087624802,-6.87587579907460649331422e-05,0.00932323766224730024476663,0.999953671414372746717447,0.0216392568778391858330679,-0.00436222884178906825103361,9.82945194463066762580183,-0.00718450120998558039442372,0.00856079178663154451156547,0.000306422615210440196266417,-1.7955736176638255052751,3.21910663528500951002798,1.23771444917671180618868,1099.77486069841802418523,1109.96114960144154792943,1090.83741462436228175648,1110.22475059926932772214,63.9760172682144343525579,-437.300006506529427952046,386.46197584494041166181,-180.591694247232055658969,164.052315250756919340347
0.247499999999999997779554,-1.13379646376797360574074,-0.183830477075278525544988,-0.256067086343054139963016,0.00112713948217702539592033,-0.00563229319576098730326663,0.0100234912780821153188704,0.0021737868301345813354386,-0.000132009511541880729477288,0.00933790024514181103698629,0.99995353425728061846911,0.0237385207422090849238572,-0.00384056134154300496397205,9.82984514128556341461262,-0.00733101237565699469234115,0.00859601617767116570056896,0.000217516951105642820495784,-1.79558903163665006808003,3.21913041902170027341867,1.23772541901005017628279,1099.74301700482874366571,1109.00897005069464285043,1091.71452584793314599665,1109.86769170980892340594,-68.486210445462290863361,-343.051715945830153486895,330.951855830744250397402,-124.972768906036321823194,164.052785674713305752448
0.25,-0.996988321026148982539894,0.0428513254307984758906258,-0.380747455544027002538598,-0.00121596786994201044515562,-0.00497661860645591969803947,0.00810131196583128813937247,0.0021744974148809946383476,-0.000192417504799711211807556,0.00935225483991445651066332,0.999953382937873613833801,0.0258626046377747748072906,-0.00343196082042450389959498,9.83060743888180432747959,-0.00748476049087542366633485,0.00862568760496552032479567,0.000121476778303864418537272,-1.79560256948910823560084,3.2191595217998036915219,1.23772757914816011748371,1099.4324296461907124467,1108.24589102171239574091,1092.49217390351600442955,1109.59988675473914554459,-159.66845510156403520341,-258.97398203805983030179,288.379460087435006698797,-91.5413263128811252045125,164.053211966077668648722
0.252500000000000002220446,-0.822337073824838449276342,0.209014245513536117693221,-0.447205246855055638111054,-0.00314858190143563676163807,-0.00396850449487724105113173,0.00588217951525581411037491,0.00217988108242335616726582,-0.000251090225204394015823262,0.00936922480323225739806681,0.999953198884511396116181,0.028044673860785788999106,-0.00317449724916623113313285,9.83173097358993963723606,-0.00764670224151667559525647,0.0086431941981892513454655,3.13078032883635782842105e-05,-1.79561439713149328945008,3.21919217382595279630664,1.23772194237176380582355,1098.94467472932092277915,1107.71410014050434256205,1093.15642314837032245123,1109.4099850782445173536,-225.072663601849654924081,-147.842625914245076046427,240.241770209240485201008,-55.1216334326454173719867,164.053598508154976798323
0.255000000000000004440892,-0.622120898502929731144206,0.300370627854100902265344,-0.44412777078984311263099,-0.00454819485542426460433774,-0.00275744968801918842113419,0.00392360603164357366751114,0.00219359760565652388633606,-0.000301809496562089891579655,0.00938712817423003470507226,0.999952991215358188981099,0.0301760598265164367570712,-0.00296872479428501173659427,9.83318429923158277006223,-0.00781685712761501054479663,0.00864330477868197923074778,-4.05163452623486213931975e-05,-1.79562590636178431857672,3.21922673286082661192609,1.23770975626757517851217,1098.30706632818146317732,1107.50667789214116965013,1093.69338275456220799242,1109.32427858757591820904,-299.156061189614490558597,-19.5812373195621880483941,216.802872525204094245055,-12.0794201066018906942645,164.053933113505109986363
0.257500000000000006661338,-0.372602601638904518122075,0.333595057790985194401401,-0.381108631857849378121728,-0.00557447979565899032206033,-0.0014306909812849492175113,0.00246528122356330734593621,0.00221581628785292791827821,-0.000333647962159047868375278,0.00940358767098896895786364,0.999952784767360824957905,0.0320541271963811144618539,-0.00277369687091078703788938,9.83491470597108197182479,-0.00799403508223457334724849,0.00862264097200947376986591,-8.29450272146980917189335e-05,-1.79563931078345540015562,3.21926188472084628955372,1.23769195657093034057539,1097.44889442337284890527,1107.61619395390653153299,1094.24043751099634391721,1109.34958797771150784683,-317.14045210073862790523,88.1257399214972849676997,192.622279461693153734814,30.1414151692369784996117,164.054269249845447120606
0.260000000000000008881784,-0.16717929652585486466343,0.311442983724618149832253,-0.302317409115533397567788,-0.00626366179185483540337032,-0.000618553944428132797088427,0.00207841336722277073012499,0.00224288829825426390754406,-0.000345116024423533366335265,0.00941428812680539413293435,0.999952626258297061490055,0.0336587969640918457936429,-0.00261912512597104601974607,9.83685300758483371907914,-0.00817591997475535479933395,0.00857985647464396504469075,-8.7045569449357396390847e-05,-1.79565615842453452088989,3.21929622894889577722211,1.23766969747391608613896,1096.7213640676777686167,1107.9473065917486565013,1094.65649415187067461375,1109.47498566342210324365,-274.828614254647391135222,162.891291214691449340535,163.164101548863840207559,69.376178833181199934188,164.05449112094817110119
0.26250000000000001110223,0.0260676819658980860050512,0.257083459161343563792457,-0.221957005621020192487336,-0.00699062168697005964501656,-0.000136352881610153842594987,0.0022973350596596727769827,0.00227026358522813657969674,-0.000335507022092040895541037,0.00941929489672459728522025,0.999952524453631030887379,0.0349815982815336878886114,-0.00254895325284141410770999,9.83891692793434380348572,-0.00835929481993705203457523,0.00851572758140269406301748,-4.69346395415470686389957e-05,-1.79567703071934237080143,3.21932800779130889878843,1.23764548783061378856019,1096.07475135209961081273,1108.43065040997998949024,1095.05625801874066382879,1109.69646887187741413072,-241.778588531451305243536,227.703472471239166452506,167.366333936706581653198,114.551243777077516483587,164.05464861678461829797
0.265000000000000013322676,0.226471558421089680379623,0.175555521667915270800364,-0.140168860697642755352987,-0.00718832893391213936795658,0.000149033229926795831622732,0.00260260981051116955034552,0.00229090159743656693325242,-0.0003126524714607300083416,0.00941755376459365786678823,0.999952502484952709949084,0.0361770524093174422608499,-0.00265796753486478506967039,9.84101762384354650237128,-0.008540626409783119710184,0.00843282471377399846235168,3.98979391488559604304898e-05,-1.79570117182676414202547,3.21935581002721304955116,1.23762156596554517840048,1095.51247112502051095362,1109.08582395410485332832,1095.49332582155420823256,1110.04774188230749132344,-155.485869139601931010475,243.422896919218828770681,143.237664035313969179697,136.908247803557856059342,164.054759426116930853823
0.267500000000000015543122,0.34699790756481724285365,0.105931081547906133510928,-0.0854452667892334205568261,-0.00608585717989261736765583,0.000223776388665103024644756,0.00240560826961885203603697,0.00230137550439150082373652,-0.000287752073426060755827194,0.00940916753721956003464477,0.99995256562747192319307,0.0374617210175814605022104,-0.00297336721114705229696007,9.84306503105468166836545,-0.00871650218120039940727928,0.00833508617797431954066223,0.000172267732556737827301005,-1.79572732241499877225976,3.21937930244288494918692,1.23760058487051649578348,1095.29732200640160044713,1109.64776489457608477096,1095.77244633891723424313,1110.38101011089520397945,-24.3129359478643678471599,222.884171424902689295777,79.7371547179863426890734,129.961755569274714616768,164.054784389640559538748
0.270000000000000017763568,0.394617665441309606322307,0.0440923615151642411813526,-0.0396371350176861966807529,-0.00394525477297133064097379,0.000210446135669442162827517,0.001886062873056736696048,0.00229663787367971779229681,-0.000264442843804638236162446,0.00939887885053542967983553,0.999952680653430125978787,0.038898043002434844195303,-0.00355774041076806560313095,9.84497326881076340043819,-0.00888392323816021914351104,0.00822728980432570200509446,0.000345405381452592891589753,-1.79575482826986143614079,3.21939845878643193799462,1.23758412960238417532821,1095.3909064452811890078,1110.20024481122936776956,1095.89201159514414030127,1110.69755066015386546496,107.609678181461177359779,237.417320456688486274288,6.26886659388218880906152,115.960114554354632332434,164.054737382782178656271
0.272500000000000019984014,0.356230121668073995699899,-0.0148686959248731844634994,0.00785106686045577290000708,-0.00156192124198923287456409,0.00015161879814754768494578,0.00142578736323656146342542,0.00227588686123612014833295,-0.000246522992247796672322241,0.00938492633688476837749981,0.999952866015375252395359,0.040547761084454694846535,-0.00439788297107257183937712,9.84666704055729269384756,-0.00904070295278721139387024,0.00811425121263124882187157,0.000551501307151618623547673,-1.79578308306733536170441,3.21941453527496612707637,1.23757316556648144789676,1095.83537039730890683131,1110.83485149685952819709,1095.80379067188664521382,1110.9608106836669776385,205.040666400827660709183,223.613206007848731360355,-67.0536521500252433725109,61.2294660086262751974573,164.054596190012091483368
0.27500000000000002220446,0.252651040662208559162138,-0.0486214966680254892517077,0.03818099375042142279435,-0.000217634846534074986130688,8.69380266128451335361574e-05,0.001389738945610919165774,0.00224110144065530793311414,-0.000241141994698657237015602,0.00936762503192397656681667,0.999953115605518139119567,0.0425352002086617775322708,-0.00543419166429194577805362,9.84808689362970390845931,-0.00918542283540443697809064,0.00800046002555343180318026,0.000780511243336747245064045,-1.7958113352377778060287,3.21942850967070803847037,1.23756932748756143247704,1096.416109777285328164,1111.31831084126861242112,1095.55674333439401380019,1111.00369799019699712517,252.864423476785077582463,174.485997674446338123744,-114.859354373947908811715,-34.9574446453970892889629,164.054407238911238664514
0.277500000000000024424907,0.0983256149739724638614291,-0.0637984328566748581934576,0.0516576080512271551548054,0.000443269911337278036192466,9.24530037684123575780076e-06,0.00176494076487699615672644,0.00219559274716156060253125,-0.000246255292306367173579829,0.00935135333835380999634168,0.99995338348406015427372,0.0448008448832480019041746,-0.00658699135997221213445485,9.84919173144777104766945,-0.00931742869653911717775507,0.00788976498848400521757274,0.0010208457433297448042897,-1.7958392514564314179637,3.21944116154300319365689,1.23757260354056519702226,1097.09969251469283335609,1111.70728148523176059825,1095.22949390001690517238,1110.78602346043999204994,271.546677418154786209925,129.848844789830650370277,-120.411699397618463081017,-135.039586317952739591419,164.054144070562529122981
0.280000000000000026645353,-0.0748365383914512682927977,-0.0612138766778239085120106,0.0465514492285998005005609,0.000589390779933378588899273,-8.58864923338977957409379e-05,0.00237198085631991134256125,0.00214684048809525747369964,-0.000260588175137703567316172,0.00933614856626428790686845,0.999953655109605321626987,0.0472991394162727563088566,-0.00770301675723317202937324,9.84996178700362179370131,-0.00943689603395125517493192,0.00778501055829863841672989,0.00126050999723810821552539,-1.79586691646382545783922,3.21945306450931267860938,1.23758303245382039747824,1097.77384316437610323192,1111.9675550652177662414,1094.95468483740592091635,1110.32850005860723285878,246.825612796146515393048,59.1495485978156878559275,-65.760284887392060682032,-234.925114603038110772104,164.053819334449457301162
0.282500000000000028865799,-0.239912597422250600809335,-0.0334740785914439120674047,0.0190910987831860202990075,0.000133590381737381342849846,-0.000210851017004225085946928,0.00290695806973516844562422,0.00209885236972750990197545,-0.000289613921217813220874288,0.00932208582069695909644302,0.999953918432980426445056,0.050115956068881341300969,-0.008705799085087919525483,9.85039972543218844691637,-0.00954464338347568025389123,0.00768798234547478625405814,0.00148836481939185996843655,-1.79589381381043478036474,3.21946448403162266416189,1.23760078379053939379162,1098.33382057867356706993,1112.00302922822083928622,1094.90069247557994458475,1109.61139788742480050132,200.195157380630746501993,-52.3818979958832144916414,59.2933123708007272512077,-353.688014273484100158385,164.05342017043128066689
0.285000000000000031086245,-0.388849185970997157646423,0.0340892058998456815022138,-0.0305964539256930109778487,-0.00115723457607607772314184,-0.000390950933989972374080907,0.00285820330703545144937494,0.00206059173581178093487276,-0.000327901281349657184888829,0.00930851579035751539037413,0.999954153933863221226375,0.0531234171062105048344293,-0.00942541428274592044123104,9.85052763729565228345564,-0.00964205604891163123304487,0.00759937835937257374907539,0.00169465804376660875499305,-1.7959192444182838777067,3.21947745307359056710084,1.2376228063197034501286,1098.77481895127925781708,1111.70564557523834992026,1095.2511513992599248013,1108.56005998723981065268,115.098862396916857164797,-172.0921743173674656191,208.27294827454332448724,-394.993692990419390298484,164.052854627557564981544
0.287500000000000033306691,-0.445638259721462592910513,0.121669291781878505243064,-0.0763306491336949860526673,-0.00288654542533277802193736,-0.000537648687693324757105873,0.00226206692439998675522861,0.00203690704132237923942861,-0.00036429793312931581282868,0.00929628270242121614030939,0.999954339062853136965714,0.0560811396842449821908971,-0.00977673969763281566769386,9.8503852292699018988742,-0.00973085216384853880777772,0.00751895478775293450018902,0.00187203236288403860980434,-1.79594382052740741961827,3.21949294835175736650967,1.23764631607058062101601,1098.90931489065815185313,1111.14256835663400124758,1095.94205721695266220195,1107.63642942247270184453,4.23557427843665923461458,-286.80592174942216843192,352.412914765731272837002,-352.987583026246227291267,164.052310667816783507078
0.289999999999999980015986,-0.409993895928989160459821,0.241072547322282282333816,-0.119368015987477232853209,-0.00517771867059132247929076,-0.000595881712303010773607026,0.00156301971582437668022159,0.00202667807229267972826681,-0.000390701137502869955738655,0.00928711032040058573344687,0.999954457758984283088921,0.0588093289375528904816548,-0.00979643257159032096459406,9.85002660372652805165217,-0.00981285048262501603810737,0.00744581873768810579422572,0.00201610939832381130462635,-1.79596781262292104486278,3.2195108847345328406675,1.23766999515614384286266,1098.79599682267144089565,1110.27161596649125385738,1097.01321597308856325981,1106.7951220721085974219,-98.6185182342534147892366,-430.921912935313969228446,528.161533618418502555869,-329.999220158882678788359,164.051690395555112900183
0.292499999999999982236432,-0.255410136547647825810969,0.411749567905299707071265,-0.169281525145811739818669,-0.00794200174346730569663322,-0.000376937880712032802408423,0.000921214445536831230340602,0.00202746489257949738180264,-0.000403651989073052614408199,0.00928251782405436001721633,0.999954500222380082696816,0.0612214079240456579555918,-0.00955056248219167402968566,9.84951539702801781572816,-0.00988980470302713333963229,0.00737881173113803193880367,0.00212552745152927956284739,-1.79599109919110055955116,3.21953059366477001290718,1.23769223456287380535912,1098.41622229948688982404,1108.98795879195745328616,1098.58286488504472799832,1105.98643332167830521939,-169.225075918120495543917,-480.473004201712228677934,589.29814486468728773616,-256.48387288365461245121,164.050856550252007082236
0.294999999999999984456878,-0.0493008959478109867746731,0.562267077995772468490543,-0.215053046758722637976646,-0.00945158877902402966286743,0.000244976990204624506947129,0.000605766164536653711238101,0.00203940544900499225178248,-0.000402810803831042229649489,0.00927817722308347560267183,0.999954506381493857247733,0.063294793968306589659889,-0.00905688299292670834228502,9.84891941703022766319009,-0.00996334014851835668424851,0.00731675591066306869880709,0.00220169235306089594236822,-1.79601367328526517752607,3.21955102663068259971624,1.23771099390532524076036,1097.94987144308083770738,1107.86925094548269044026,1099.95970669741200254066,1105.51270270769032322278,-203.577580317869262671593,-411.404721533972065117268,519.723813650943611719413,-148.512456581920417875153,164.050085957142869119707
0.297499999999999986677324,0.196267840549147781770145,0.694774841023270139928059,-0.272302923125423201877737,-0.00943659150475051854145558,0.00160398741306962046987428,0.000451488465920907593078443,0.0020613529245929887792621,-0.000389993611559775468170669,0.00926835753825329920763121,0.999954533707320569746457,0.0650509566604723088456552,-0.00835960702642269543050091,9.84830566727779554980771,-0.0100347415622493701253815,0.0072587422236495367094955,0.00224839467757106123771416,-1.79603534497508965372958,3.21957150016040838380604,1.23772508420473248413884,1097.39833439789754265803,1106.93093518428759125527,1101.18148395329944833065,1105.24387103876870241947,-248.573997549919795346796,-316.158663499026886256615,452.729100857777268629434,-75.6568344632341194255787,164.049235238321614360757
0.29999999999999998889777,0.475850785561309996829493,0.795165597465331774884589,-0.356563827020989376759275,-0.00752481583184154857041337,0.00434316777227401924765804,0.000266603128715520252406401,0.00208816908165722738346948,-0.000364285208580091457615524,0.00925238546840037069662888,0.999954602714188012235752,0.0664582410554781510825251,-0.00758085729560178944730353,9.84773565614882073759873,-0.0101047384094634096207699,0.00720432952682978789554769,0.00227111149998003971142713,-1.79605698994028517567756,3.21959107839772995518501,1.23773472244915572204604,1096.70700145533123759378,1106.28845762798755458789,1102.22335220170089087333,1105.13441853537415227038,-251.097268361126907620928,-123.457613341042701904371,283.867428741768662803224,-6.34780976470210056561427,164.048120068028424611839
0.302499999999999991118216,0.656295399922396494041266,0.80482379693249439522873,-0.434194838771313762482151,-0.0047158956870708207062548,0.00752530511996190882434421,-7.28145785502244495806384e-05,0.00211914857574822205338316,-0.000320085348679202490694562,0.00923243947585284698009733,0.999954700384021677450619,0.0673944953916195826915114,-0.00675406508448243500519759,9.84726123782562190456247,-0.0101734624828624577869141,0.00715350271499817867010274,0.00227613500567874424418413,-1.79607924602866075858287,3.21960965372199314771251,1.23774045628098727789279,1096.14284805609190698306,1106.31364711758237717731,1102.60082109700829278154,1105.21213198994519189,-216.73529733116063766829,144.605645312685595627045,31.3921368045612041441927,69.1757264115039447460731,164.04711137313270796767
0.304999999999999993338662,0.753662109122837042818333,0.72252353046901651723033,-0.502958091506664484171552,-0.00145466571227022105350368,0.0110471275459590352607808,-0.000858926135698297090609321,0.0021514322793479007112083,-0.000257012770226385477406045,0.00921452133363613590244512,0.999954781848871210314655,0.0678404293684674447595384,-0.00595501666566661605473065,9.84692228427084792485857,-0.0102404079442790785225981,0.00710653940013686834242801,0.00227022917788444623249378,-1.7961025759477844410128,3.21962638821795943400161,1.23774423921553244909433,1095.62332496867543341068,1107.01148585455098327657,1102.38031288572369703616,1105.48029716743167227833,-211.086052446171180463352,453.775065137414969740348,-234.123453406027493883812,171.096577665093576570143,164.046019964316201367183
0.307499999999999995559108,0.773372661042813103193794,0.531031330312201288457175,-0.546290837341487200973233,0.00220074853882282249831204,0.0142748617344296314934926,-0.00258390643949746659502331,0.00217785373202159697816893,-0.000181701196539243688479748,0.00920144871331600444630539,0.999954836941641445058337,0.0679141633372760400444434,-0.00534439508324750789380886,9.84674482044510135381188,-0.0103046300858860261084882,0.00706365652258129830126654,0.00226025839529835981603356,-1.79612724807838364249335,3.21964111045433432067853,1.23774795031567053094079,1095.08741779386105008598,1108.58252244326945401554,1101.43020382997815431736,1106.06761487827066048339,-175.399093285068232717094,673.314107679788662608189,-448.140848747288657705212,266.560356960462513598031,164.044615099210602693347
0.309999999999999997779554,0.727634328783661854522791,0.32440435152684132802392,-0.527513144730162863993428,0.00458081806567566581639417,0.0153925662641451969220308,-0.00474935936396909605394789,0.0021958436024072502251725,-9.62748488162229774456682e-05,0.00919527484643350989657051,0.99995485253257365698687,0.0676455748801358947019935,-0.00498964329920962429421039,9.84673922630870457339824,-0.0103649339788923836036538,0.00702484162865604864350866,0.00225264580728983974597379,-1.79615383823637730920098,3.21965471698495475649793,1.23775158184127875848901,1094.74632950225009153655,1110.37805639294992943178,1100.13960864198725175811,1106.81309895223398598318,-105.218399326486078848575,773.786943598405969169107,-590.038481442615534433571,354.246541089605329943879,164.043365937547065414037
0.3125,0.6546132795040164875644,0.115367028227596146727763,-0.434198216507552969822825,0.00571200161681178521233537,0.0147579623516956529721833,-0.00741509365490398367898317,0.00220185316583287925620849,-6.77103471054087201023985e-06,0.00919239518245430764498138,0.999954869897026199510037,0.0671410845772126563257842,-0.00497593736311268547423126,9.84690073969376555851341,-0.0104201332614801897569201,0.00698951298076046396989813,0.00225357394657551115060845,-1.79618213286674910378338,3.21966798064961556846697,1.23775357269483454736303,1094.56132579722861919436,1112.45145716126148727199,1098.48001142276507380302,1107.83884758371868883842,-41.867286653223310111116,836.210195306056562003505,-697.101060351405408255232,451.187152769034184984775,164.042037044345875074214
0.315000000000000002220446,0.588024388235853456841085,-0.0667841700417721728655351,-0.28053986816599557618801,0.00590159752809915876675673,0.0130810703238619392002606,-0.00985252180596408316803902,0.00219689758539468862549859,7.59724636537933479705706e-05,0.0091905978846551442812407,0.999954907666360193196908,0.0666022940050278039469944,-0.00529630935906980418459433,9.84721013643325449038457,-0.0104691847897177420234627,0.00695659760637610397049357,0.00226877633121155917322875,-1.79621096090630594233062,3.21968215834598536773115,1.2377523517102677619306,1094.53699306898397480836,1114.55910736948021622084,1096.65410334023022187466,1109.06903471607915889763,30.899492193202576117983,805.474723403084908568417,-734.960120516142751512234,523.015152330890032317257,164.040643781554678071188
0.317500000000000004440892,0.550698174708924015341438,-0.203295365387127807688117,-0.0789550278687991546888725,0.00579000400513810832558992,0.0112373484362103502609553,-0.01091085246017706525401,0.00218301256442218327008531,0.000148830343979027902075879,0.00919292685013050302200721,0.999954931745503428075494,0.0660793264037661809418012,-0.00591851626393391852531956,9.84763504494897290442168,-0.0105113402992659914214624,0.00692465570738711941323196,0.00230294591585970039732123,-1.79623988181486549109422,3.21969797890732278844439,1.23774659220122140723674,1094.71582325819463221706,1116.47883077827691522543,1094.80521082018435663485,1110.45392334537314127374,114.385543959315228335072,751.730556160463720516418,-777.272324972545220589382,609.743415016418452978542,164.039175589542139732657
0.320000000000000006661338,0.540453389127986905116074,-0.328591819436231058482178,0.165984093095299767295359,0.00642140676100189707747878,0.0101975602963764750558129,-0.0100662644765146004621759,0.00216862667994463737333732,0.000210885072428711043465016,0.00919622249913659879638761,0.999954948328346970853886,0.0655808192412432877649309,-0.0066803400559334452646354,9.84813237656226370120294,-0.0105463236198854778263856,0.00689186727883268467759192,0.00235920993239815968145479,-1.79626916026800076409131,3.2197158845568716323271,1.23773842808218237365736,1095.10892078878055144742,1118.31776015028253823402,1092.76774171536749236111,1112.11775179116125400469,154.171356261303884593872,570.579269244989973230986,-693.268571915586448994873,581.412688665022301393037,164.037331022697458138282
0.322500000000000008881784,0.545522603011195372779696,-0.42342923562155859729117,0.334204005508371315702476,0.00795877387547266022804759,0.0103784987220476663388746,-0.0081559317701376879417019,0.0021587138073870990560843,0.000257436250301695378900346,0.0091985395468870065349698,0.99995496146019757777168,0.065190837646774218994139,-0.0074841403586352363286327,9.84865196262796160908692,-0.0105742174851073556657299,0.00685643438848690042752843,0.00243889585394005924123828,-1.79629890949461379356933,3.21973564772171272352352,1.23773136089290369810101,1095.48668003950115235057,1119.33172712450186736532,1091.33886796060642154771,1113.36098678869825562288,128.878589578607602561533,279.294519811173586276709,-498.119409721538886515191,436.889829389701446871186,164.035727736841749901942
0.32500000000000001110223,0.542250141716255074086916,-0.528162598675852579255263,0.435673008195233801842505,0.0101806818396213798194605,0.010582437267881585063467,-0.00597507451839168323565188,0.00215385143536896313254392,0.000287853887119724329100162,0.00919833833910981696346809,0.999954983335371583308415,0.0649148420138664083989255,-0.00831410904197132580306651,9.84913949998634308258261,-0.0105955508329614415952147,0.0068168625291699942031487,0.00254124915392029641220129,-1.79632906572847805826143,3.21975622095124869304072,1.23772744199333351033943,1095.75331373667359002866,1119.71423274933840730228,1090.2771446667597956548,1114.30220093810976322857,55.5115559336626986919327,15.6806487377252636861158,-375.200063920828711161448,320.365277190375934424083,164.034058968190066707393
0.327500000000000013322676,0.514760844874089795730754,-0.663234919343503981359333,0.473030301197844560423533,0.0126386816174340957386057,0.00968997974572179295027485,-0.00378800380771230835175167,0.00215231461062060985475752,0.000301652751605686886282598,0.00919199402706778571914281,0.999955053753155076456949,0.0647582274765280407891055,-0.0091961364816398431798472,9.84953992776392794894491,-0.0106113664096352481452934,0.00677213033868874752368994,0.00266376254365467560539238,-1.79635963008185006728468,3.21977655799317519225156,1.23772837893674103604269,1095.76423781916946609272,1119.41013036819049375481,1089.4628676410022762866,1114.96281317465013671608,-62.9599298184529629907047,-234.174913702736176901453,-224.047486794961315581531,155.68232912733023454166,164.031984223179620130395
0.330000000000000015543122,0.474149544991781357605731,-0.767966867053657353814344,0.442466133155100582730057,0.0140623096573028096706315,0.00791701233446615547373337,-0.00257590672188835918821059,0.00215070244107023501867193,0.000295657634669976572376615,0.00918292093251847282853184,0.999955150770791223457934,0.0647829737766530411313681,-0.0101860399437445243997491,9.84980059245842909376734,-0.0106231293932958492653995,0.00672194470810967819457415,0.0028027915379871073432716,-1.79639002243910073097766,3.21979538393454856048947,1.23773465083020250965262,1095.43851408758132492949,1118.54335818082472542301,1089.15690723278498808213,1115.08061258374641511182,-197.681177875801779464382,-457.39057811283561250093,-53.5785089787168047337218,-43.1429868900522350827487,164.030197496017507319266
0.332500000000000017763568,0.426171283735464756503575,-0.840887211856153005129499,0.365164050000602813383921,0.0149696398013341586130664,0.00556970182483687570318409,-0.00182542957777736408742086,0.00215456363808022707470591,0.00027326149897260223467152,0.00917699551642939086171236,0.999955204453549795218237,0.0649278558803221550466134,-0.0111592268919861979659114,9.84987313537858177880935,-0.0106328464263387850730069,0.00666659742046502978157774,0.00295392393343163039282073,-1.79641934822231807977744,3.21981236706258933111258,1.23774476795408072682392,1094.77583192979045634274,1117.12317747762631370279,1089.19497509610869201424,1114.74709824019987536303,-340.739710733077743043395,-718.559377011342121477355,81.7197004133503668299454,-241.829325036087311673327,164.028353536635876253058
0.335000000000000019984014,0.373788324405794181171103,-0.869186667045626526473256,0.237529549964910907666749,0.0155941278806812876067678,0.00261825161589774365461514,-0.00115981434841975756915022,0.00216953881464102904877422,0.000241093456264131352460856,0.00917691694353649917159643,0.999955174912045441359965,0.0650729989056807595071419,-0.0119864617608607740284477,9.84971604486722718263536,-0.0106430355797993477645624,0.00660657617059341468329636,0.00311280891867385172896987,-1.79644696998578834445937,3.21982731437772828897437,1.23775711969842316939605,1093.73481553391593479319,1114.95056129576801140502,1089.56550573485174027155,1113.87146595856597741658,-389.632684350180738874769,-840.32074245046635496692,177.905674071280202497292,-388.352920699389528635947,164.026077620720457161951
0.33750000000000002220446,0.340366292233817369083937,-0.832840811825476756702358,0.113445902210751792260623,0.0157034768835101930239961,1.83726855254520201742464e-05,-0.00084599358216611920176925,0.00219655836494627712193739,0.000203816694464453582657723,0.00918320020232436980134327,0.999955056825121313401894,0.065141720528354513097824,-0.012629763675829488306368,9.84929651522252846973515,-0.0106564735027640609260624,0.00654228820409987355671833,0.00327574696783248207887507,-1.79647225274616140211492,3.21984118903260396749033,1.2377700513408378402147,1092.82766850803955094307,1112.92157376537397794891,1090.08450346646509387938,1112.80533363670292601455,-327.840802774016708553972,-808.29806801093513968226,236.913526724538115786345,-477.609580376701671866613,164.024130498742380268595
0.340000000000000024424907,0.31478020582812410443907,-0.729802572575601216087193,-0.0179731900093072285984341,0.0157353404378417181808114,-0.0026272590942962668197902,-0.000830524818477700239351125,0.00223078356968956035416563,0.000165961087504271493893795,0.00919421270869265859493336,0.999954880488586939080164,0.0650641592089689774214278,-0.013163230441314391003238,9.84859133545944764875912,-0.0106758998578473790486143,0.00647384039683398301162631,0.00343982504826744134654448,-1.7964954321286223937193,3.21985521068182167780947,1.23778225678977160661987,1092.09561152004584982933,1110.909070955713332296,1090.75007336847443184524,1111.48341805668246706773,-236.479944795791908518368,-764.317427682043899039854,280.87523590170326315274,-555.779141415177491580835,164.022133673993550928571
0.342500000000000026645353,0.284253535649323485490214,-0.576448247146913450578154,-0.148578472064295974419679,0.0160508698649656812718067,-0.00496790897292203811885791,-0.00100928730248436827020286,0.00226302901782283712520116,0.000132337675772415649987426,0.00920164309678395651859173,0.999954746381516379472032,0.0647690328947225918421182,-0.0137453472125765273348375,9.84758739138570149407315,-0.0107037472103468558198847,0.0064008837120999671072008,0.00360281007040054966628073,-1.79651753601840447061022,3.21986991291140745019561,1.2377919827535164287724,1091.64526878406059040572,1109.09998662696375504311,1091.48887964597361133201,1110.02643792962703628291,-93.655920242781490969719,-633.143327500419559328293,302.802884380025432164985,-597.619429153200485416164,164.020098141585890516581
0.345000000000000028865799,0.22535768286078350364221,-0.380111182116287582566372,-0.270398973978207224355685,0.0168702297442862511611672,-0.00653153384349919492735115,-0.00126477696761976253492232,0.00228985879025807694334138,0.000107399717593026740791382,0.00920055377617290913450088,0.999954709635525462729788,0.0641971160734649548551545,-0.0144200300739107927644467,9.8462817386790906226679,-0.010741751018396146488687,0.00632296616251262159208446,0.0037627254067193502233557,-1.79653916339782937505731,3.21988533763121331787715,1.23779853225237612690535,1091.62733191883194194816,1107.74335431821123165719,1092.26408779037456042715,1108.49532091091646179848,92.4222172973258295769483,-453.080518588012239433738,336.397112417489267954807,-670.589072567781272482534,164.018019637286300849155
0.347500000000000031086245,0.0920299741812744404034774,-0.128904628685128419540717,-0.39344652095890442211612,0.0184949141378080786357607,-0.00718296036525282489970667,-0.00164996220631259899250254,0.00230689876389039878745724,9.10938990853516774269527e-05,0.00919014232346582887744901,0.999954787565843328245307,0.0633806538837948102438347,-0.0152492950936387820087825,9.84468203529305796450899,-0.0107907773705251050500031,0.00623962450278176504470107,0.00391755442330344889195759,-1.79656154691855407534717,3.21990079739599410757478,1.23780278691277945135596,1092.10737987054721997993,1106.83458403402369185642,1093.17086520806105909287,1106.67349256678812707833,243.578128813532885033055,-200.491631240265462565731,318.147529019597357091698,-651.977424052938090426323,164.015481403388292847012
0.350000000000000033306691,-0.0848026310575379915768224,0.0659129727540061355339773,-0.461979022606084421820327,0.0201390722497994563433554,-0.00658191435666757602290788,-0.00235037624402259026981654,0.00232153261496226975824086,8.36812566811869667279117e-05,0.00916959271662984472250901,0.999954963884741143687052,0.0623495826847388773250813,-0.016062907880090300516418,9.84280596073314839600243,-0.0108509101586603783073937,0.00615049097103313822249016,0.00406453029282687408607622,-1.79658501750823207387953,3.21991670203150714968388,1.23780698831321012143292,1092.84522256289960751019,1106.74089616200990349171,1093.8548254354725486337,1105.23543379065176850418,332.487655383287119548186,92.0470904642125162808952,244.783784670837803787435,-542.424973541761687556573,164.013334270190483721308
0.352499999999999980015986,-0.324484563753364041449601,0.21917389840254108968054,-0.471009790107906056721987,0.0209859842350797430599041,-0.00527762489786377363837344,-0.00375065539214992091712753,0.00233859809408840275957164,8.60220888180626024922815e-05,0.00914154184931343857800634,0.999955196678542601596007,0.0611219825530964905313525,-0.0167402673931415640895537,9.84068114765335444360517,-0.0109215252564053878769901,0.00605534657722314566263844,0.00420008326968625018277281,-1.79660995300575021538236,3.21993306234706011537128,1.23781332118464404423719,1093.76981814746363852464,1107.29481948634474974824,1094.39478413141523560626,1103.96136769907934649382,405.88184005342060345356,353.916092407511314377189,188.275833675154103730165,-503.168770206371505082643,164.011160411723182050991
0.354999999999999982236432,-0.647660506724131890265994,0.3414586414907075928582,-0.384797001252735748622058,0.0200121138004325273274109,-0.0037682248034247934134755,-0.00617277494091362198547213,0.00235642027688477521951693,9.71727566683843190257705e-05,0.00911229674007218819198339,0.99995542803369430462368,0.059749435368512911204153,-0.0172892658215553149392285,9.83834458572511394436333,-0.0110014454011488384266304,0.00595418748559639783579645,0.00432003375029427899578494,-1.79663665019660334642992,3.21994940033310594884597,1.23782332592566790552269,1094.87463176316668977961,1108.5104766240474418737,1094.79620460384830948897,1102.7195899396199365583,375.891873864156536910741,493.495944511050311120925,97.0716648989308907857776,-394.433683573879193318135,164.008529305225465577678
0.357499999999999984456878,-0.907696183411930035411785,0.392753750800268974785467,-0.220351829249775227337338,0.0174924748227135717915104,-0.00272783464877391149117081,-0.00833031665650699019998182,0.00237102444809868164593558,0.000115337708661670439516667,0.00908807341202464737117683,0.999955609487802599133488,0.058298063609043410115973,-0.0177637824665464599815934,9.83584122947654293511732,-0.0110892108911718276914593,0.00584724529565948218656768,0.00441989995558135159714475,-1.79666494871081616757635,3.21996522312918642683144,1.23783777091631641553704,1095.6492775167844229145,1109.76229920890000357758,1094.88014245590989048651,1101.98919928120994882192,257.029336553068560533575,490.00847202623799603316,-23.6548039962144471815009,-218.415589638925467852459,164.006324733578054519967
0.359999999999999986677324,-1.11485024392081499833296,0.39864239952858682158876,0.0341719280772942862745012,0.0136703692835227937074638,-0.00176695737843446496091737,-0.00976696881817598269726055,0.00237915237005702825262565,0.00013380623857186407267561,0.0090701628226090135614923,0.999955737930859678286311,0.0569282390207648952840103,-0.0182058775820787104027243,9.83322236790465176170528,-0.0111833219964850485300678,0.00573490659667657675518937,0.00449552744388480567810928,-1.79669450351318382708143,3.21997974180580248670935,1.23785715520458561300643,1096.15977844593203371915,1110.9605189841786341276,1094.67793058386723714648,1101.62751199142530822428,154.804485773774871404385,449.910255115127768021921,-153.926597037661707645384,-71.4789052958621482503077,164.004116039574398655532
0.36249999999999998889777,-1.27399334692433408022794,0.363416524851154276731791,0.409133856074164636851265,0.00859858788124296530286372,-0.000759809470820829334011814,-0.00985224635416835116397127,0.00238286501685284687890309,0.000145899447630426683112162,0.00905835053324141777075784,0.999955813351802169641758,0.0557972278159248880058385,-0.0185548651205078470038945,9.83054285360813828731352,-0.011282420711491594408904,0.0056177455513391526611966,0.00454361818659797678937595,-1.79672444351200044643235,3.21999309855338333719033,1.23788164256122046325004,1096.42329994565329798206,1112.01185048447564440721,1094.11050947072158123774,1101.63180475473063779646,41.8755217051966255326079,285.267393194680835222243,-257.372002957208451334736,69.4578624656059560038557,164.001470084424511242105
0.364999999999999991118216,-1.33092985233935334754563,0.30579087899313350806807,0.741464772503227842470608,0.00483918938538730174919733,-0.000107041184967101728176507,-0.00826055030390188821387554,0.0023905160554418525796494,0.000151791892279355325858295,0.00905355658554168538088014,0.99995580865980326912279,0.054924676330506266852538,-0.0186275476333955976315782,9.82785762706818744049997,-0.0113854128028170551584219,0.00549646992814809085686756,0.00456229454423246263972125,-1.79675377976346539732333,3.22000591036296590630172,1.2379092704191714258144,1096.36915605445801702444,1112.38685595015203944058,1093.39107056908119375294,1101.97480130375333828852,-67.9749623059705641026085,22.718493218553682311267,-329.262466998852403321507,195.162199498417805898498,163.999275210840551153524
0.367499999999999993338662,-1.32495430434884653436711,0.225149583437597944346464,1.04631052348796682593957,0.00193737422029670639488097,0.000379941729974832547323677,-0.00535601521618127122958963,0.0024039470111226553424022,0.000155405974334929395308177,0.00905497784051400092519835,0.999955726570501690630977,0.0542512718490322440323403,-0.0183712952111704727609087,9.82521862264183099000547,-0.0114914336499959083420785,0.00537165812291530864880373,0.00455189307941541651536532,-1.79678246859350854158777,3.22001869539288376742547,1.23793712602006333867166,1096.08342513412344487733,1112.12544295056841292535,1092.46419713572731780005,1102.6076157522227276786,-144.00431379640380669116,-211.769534504128188245886,-395.201024390052793933137,288.964026705934600158798,163.997097944554695914121
0.369999999999999995559108,-1.28162435451034117939173,0.128259078652557756416996,1.29835845400204785704545,-0.000482462963431231999216625,0.000768532496139160727077755,-0.00183600364713806113448058,0.00241950950022239760078824,0.000155487009491330136542325,0.00906325396038112733598791,0.999955571408134735733597,0.0538139903527115812109649,-0.0178457222190573604192476,9.82267185817798349489749,-0.0115996096883575899871843,0.00524384402352932529889351,0.00451539851085088622673069,-1.79681076104367520862581,3.22003238067686936574319,1.2379626909272902768322,1095.64913448547599728045,1111.32800827763139750459,1091.41506544713092807797,1103.4196214372830127104,-200.944669626005463669571,-432.782383216908385747956,-434.572501435331616903568,351.585764538412774982135,163.994940278354675911032
0.372499999999999997779554,-1.20408772102572814155508,0.0138041330212721521236707,1.46173509539591139905212,-0.00284470071559383193976478,0.0010410476463314048689579,0.00220263019302835080792669,0.00243442097841500273633364,0.000153382443830100821018439,0.00907961458783106308001454,0.999955343409310026814296,0.053594163055281418550635,-0.0170969247497474649555294,9.82025363824774899512704,-0.0117090119051608872874359,0.00511367192133103335566213,0.00445803489402079710507421,-1.79683839783394083688961,3.22004740536785760696148,1.23798283080855764382022,1095.07870178599341670633,1109.96153103448386900709,1090.29133462855065772601,1104.3655445749147929746,-273.055036268351386752329,-695.790255504516039763985,-490.943327060221690771868,425.73145508654266677695,163.992811904030077130301
0.375,-1.07309960060440445772656,-0.140396090929752415110698,1.53744279148531060030791,-0.00618457534991691086634358,0.00111642105203737574715961,0.00757795258889010225900051,0.00244614062655283247965654,0.000151679878726861453158009,0.00910171618918910463325034,0.999955077420747184824279,0.0535441953377096477306729,-0.0161708088322177687135017,9.81798802898043021514241,-0.0118185602457460420949831,0.0049819971665716420577974,0.00438672747980435075165762,-1.79686588962141380321214,3.22006331537714141077799,1.23799616421476699201776,1094.28385930413423920982,1107.8490570001088144636,1088.96034881182981735037,1105.5482787127157280338,-302.001086123663924354332,-818.302091214081201542285,-469.188630769667327058414,427.190624439981149862433,163.990298540729952492256
0.377500000000000002220446,-0.929760272432586298840818,-0.278149748447825861941141,1.4986277717959326505337,-0.00945738328324208059327827,0.000769731326034132803774745,0.0121766984216076842167942,0.00244498130284104926365774,0.000147150452824489519788181,0.00912781032067992020850866,0.999954819064918232207617,0.0537246342569210819095638,-0.0152596184324009561533719,9.81588575004656505029743,-0.0119268250108291503502889,0.00485010725576440031303616,0.00430945330402113854079138,-1.79689426684089981200998,3.22007820215810225406017,1.23800318951099064257448,1093.56869635537509566348,1105.87002057841345958877,1087.9453914747023191012,1106.50149769711470071343,-284.128888175973543184227,-790.945348174908986038645,-367.006948360312549084483,360.35874522722190249624,163.988242639885271501043
0.380000000000000004440892,-0.755657744205680215188181,-0.41693288031610370447666,1.36755080715593213547265,-0.0125789729412701736799285,-0.000208964465521132181525382,0.0161301356526040821914858,0.00243085039086455559007027,0.000139037202761781408496058,0.00915463502765921817438954,0.999954600345948296791221,0.0541445313522526672223023,-0.0143722861799078505118388,9.81394264342216615659709,-0.0120321315045564224133212,0.00471985215994307275022557,0.00423393577328789148805921,-1.79692373735993426997481,3.22009132540396558752605,1.23800631472810640509863,1092.86321486325437035703,1103.8943302592342661228,1087.12531407002825289965,1107.35007243885183925158,-288.184573216085198055225,-816.311403502367511464399,-294.165914476206751260179,337.251807384427308988961,163.986232282896878587053
0.382500000000000006661338,-0.537401058080111515558031,-0.574719460075168164792103,1.13501996342040234466708,-0.0149619606691577707036078,-0.00177131340671710796330629,0.0197094123196052718738347,0.00240818029925224169271458,0.000138128269630760403029537,0.00918142831893014113586737,0.999954411445592161733487,0.0545827340665450133627701,-0.0134324394589538237410054,9.81213955058295361766341,-0.0121327085581769793243279,0.00459355333687243641560549,0.00416672310725444989404354,-1.79695516503957097853572,3.22010316417850184222971,1.23800686024177397648316,1092.12777348929466825211,1101.78846356090161862085,1086.47456190232128392381,1108.18775673403683867946,-234.656053383878116846972,-695.612250724570344573294,-169.89441544337736900161,271.151898816878883735626,163.983879344300277125512
0.385000000000000008881784,-0.377950910588998434391783,-0.693500993072131755035059,0.905148097677401342053827,-0.0154443782498199094765923,-0.00298316150476536081845302,0.0218156193227247441335237,0.00237732811211077438989792,0.000146996573869354854764702,0.00920599783767759791142105,0.999954264478243426417237,0.0549748468018804725687687,-0.0124509993295347197450607,9.81044534807526780184617,-0.0122267554567107045865315,0.00447365700163394972715958,0.00411324227377273150818571,-1.79698848575809377869916,3.22011354478707323423237,1.23800529095139655311186,1091.68993459633497877803,1100.41626900561141155777,1086.2758419928113653441,1108.70583193293623480713,-120.602587940220359996601,-443.906122159932749582367,0.976841279953077012976337,165.662910444643642904339,163.981973509472794603425
0.38750000000000001110223,-0.276267089762026296639874,-0.791353880301620238313376,0.666373167035029356775055,-0.0146403027484822804982212,-0.00423314618911359210468026,0.0232093377526190504378523,0.00233974562594221197064925,0.000160928276237612145329811,0.00922729939079133289203671,0.999954163156162367798174,0.0553964478672969995454167,-0.0114240740243430911188272,9.80881915720297037353248,-0.0123126773939681091740717,0.0043626707181891764483761,0.00407738700208565545829442,-1.79702304273569546388956,3.22012228806125921920511,1.23800222736824161451352,1091.5247605495935658837,1099.56893295010195288341,1086.47944610872104931332,1109.01607128626005760452,3.37522820259436828749244,-244.320844744288251604303,180.513914131733884005371,87.062754606631571618891,163.980131584614724715721
0.390000000000000013322676,-0.238053743670384454489408,-0.867201530226332395479005,0.39415855812599809304686,-0.013313999642946853715908,-0.00654386349918724755103661,0.0241907216127923568871338,0.00229409602015376605163577,0.000172237003908651178235578,0.00924889477914330078445193,0.999954078220452680092478,0.055978545298148219000467,-0.0104075651188783070699717,9.80721321756444375239425,-0.0123893037064367987631908,0.00426302228872457548980446,0.0040611971887398977398842,-1.79705844358709043717681,3.22012885815953664447875,1.23799868686588676602867,1091.70681073734795063501,1099.19466478188996916288,1087.17841156347003561677,1109.1411457059693930205,130.200060294055106169253,-40.621059737213691676061,320.244548473419570200349,6.09652125403953881743746,163.978003737516615956338
0.392500000000000015543122,-0.265364775834466826154312,-0.878982717246583944437077,0.190854809815345971557576,-0.0130578241337739112126748,-0.00931980091525204910885005,0.0245075391522624995432889,0.00224580546312671582021014,0.000171899059634127024864467,0.00926938144389770520004124,0.999954010388620861959907,0.0568784633514019255517979,-0.00932920628113657543489801,9.80557597645950629328127,-0.012456119803265941481385,0.00417665691370856795305855,0.00406462777089663506585593,-1.7970942451801847905557,3.22013348988779490866818,1.23799736138985427835735,1092.17576085106384198298,1099.3658276514158842474,1088.0806688510881485854,1109.04655389253025532525,239.075190745279343218499,141.27354235442896879249,401.251974639899003705068,-74.6379454997167357532817,163.976305911306923235315
0.395000000000000017763568,-0.319929655517991240465392,-0.822628953767611914571489,0.0187922169629395202639088,-0.0142681008236381044740337,-0.0123840720971942191280801,0.0244663953466520284196761,0.00219990937798400249675312,0.000155014502984708032540598,0.00929053749307167525683937,0.999953933505360104128101,0.0581724515360702992827768,-0.00812626592295660407638813,9.8038554916648656956113,-0.0125133052365296384977889,0.00410491178516218541832972,0.00408563734825041248444055,-1.79712960925053311100896,3.22013645948653604023093,1.23800088109993700058453,1092.90218669107434834586,1099.90103249366211457527,1089.1846714366695323406,1108.76795597847080898646,311.491411518454412998835,247.23067122890802238544,448.795016004578030788252,-137.073294817582677751489,163.974694760613601829391
0.397500000000000019984014,-0.368534977801499241678584,-0.70930710265507379563843,-0.126586698615963388903083,-0.0161690639789372862800132,-0.0149407589835796102833987,0.0243060184111257536476725,0.00215974377216944599805482,0.000128498878565791463130658,0.00931597108117176997410525,0.999953804761909315068635,0.0597059052247743277108682,-0.00676852753821099301090314,9.80200250560274355393631,-0.0125617837990383961893626,0.00404824272748008189004576,0.00412051337976727157647039,-1.79716395778275606076591,3.22013892012748081938867,1.2380090636460268083141,1093.73321790865611546906,1100.60198100756042549619,1090.32464393111104072887,1108.36118741844234136806,321.220494233920987880992,285.833498301417193943053,429.494248980744998789305,-186.475160253666956577945,163.973162142468282809205
0.40000000000000002220446,-0.387254651554354789588785,-0.539746038103722902690151,-0.241189929694202470633613,-0.0181250868739614712232822,-0.0165261070997120840253558,0.0239743348833881715631566,0.00212661686169922760705764,9.54618895126934827958382e-05,0.00934659691376210112478962,0.999953612594933205492964,0.0614007419118558633863714,-0.00526634369669847640649252,9.79997454903261022707284,-0.0126030057715865555223456,0.00400598526863485057680769,0.00416495255827239833912312,-1.79719674355993075387516,3.22014245669397958238278,1.23802106572071624057685,1094.50828916224395470635,1101.33019998516920168186,1091.33214268157325932407,1107.83558017720247335092,277.413642596684212549007,288.089899129317643655668,371.040350851171410795359,-247.332817680535072213388,163.971732359377114107701
0.402500000000000024424907,-0.366757061807391704366665,-0.294632000544525429752696,-0.34389513396963933278272,-0.0200372852390358451024621,-0.0175699790474994829714284,0.0233273777743855798005868,0.0020943516719913739428105,5.36133978383488088589014e-05,0.00938377072956008383142201,0.99995335607622326534738,0.0632863409307061475228551,-0.00377624830994862173416671,9.79773876567888457600475,-0.0126386955148355857592168,0.00397644379688925908578057,0.00421477946120263260304517,-1.7972279840699114661362,3.22014761614536659806163,1.23803562211924678138075,1095.12028612163953766867,1102.04243050320701513556,1092.17984568536689948814,1107.12452333003966487013,139.97841748796406591282,214.692902058550117772029,228.628297037584871986837,-262.926198544528006095788,163.97014507417026152325
0.405000000000000026645353,-0.320039703800414077061731,-0.0725500007548369324483772,-0.398978542849833361927381,-0.0211108129371114887351535,-0.0179702523301097198682452,0.0225743663484218627657274,0.00206245400047656802719476,8.83920445243180432921392e-06,0.00942486672771891340061323,0.999953055676846669364011,0.0652364258998698876013123,-0.00233931951208907543127147,9.7952726601793589367162,-0.0126707469999913086011745,0.0039571055427458697723031,0.00426595122721683175232021,-1.7972579076511012718953,3.22015537719435673835733,1.23804955597368837594274,1095.20818124968377560435,1102.40366449546195326548,1092.47528416676118467876,1106.52094918447983218357,-72.665161912709592684223,86.1304972488141373787585,22.8144719669216797797162,-225.791144325967053418935,163.968935400016817993674
0.407500000000000028865799,-0.257719636325135170729084,0.149572850550192454344156,-0.418114631997271724017651,-0.0215632416677173852082028,-0.0179707140355010487609011,0.0215883993787950659304364,0.00203143477957653563470419,-2.7966541542373162855268e-05,0.00946661951576155229204357,0.999952738717573175186715,0.0670307064303214406031373,-0.000972347875388263754858897,9.79256592321713092985647,-0.0127009413078059078122672,0.00394501900106921949556993,0.00431478325361306196128464,-1.79728734285103697310149,3.22016583819746182726362,1.23805999322215143365611,1094.75696031207598934998,1102.47308298945108617772,1092.29391804520150799362,1105.99556760840982860827,-315.275806708131938194128,-33.0522052161995532060246,-176.366367390073548904184,-188.249834805355760636303,163.967849106995402053144
0.410000000000000031086245,-0.182661409602146523889488,0.394294786557325638298721,-0.393275831671602016381684,-0.0215616291948729534022622,-0.0172907584828763671858098,0.0201025355707412298200687,0.00200339609473315074725241,-5.02529076044695726830855e-05,0.00950302045980722272233709,0.999952459079755606730089,0.0685382425288006552621667,0.00034235232471788515362654,9.78962173624762499457574,-0.0127307314834189649194185,0.00393714366917735560796876,0.00435788970775736073798301,-1.79731718942354756762825,3.220178416620927741576,1.23806758919803749918742,1093.6318022161431144923,1102.23840346938095535734,1091.59345232981081608159,1105.57970001045305252774,-481.792666531782288075192,-128.566761222918898965872,-310.552483873561584459821,-99.7430531511326137206197,163.966693730663394035219
0.412500000000000033306691,-0.127477654253256772465264,0.562625878021722480859523,-0.330042235797213534542749,-0.02139856924234205884372,-0.0158715699196971052331584,0.0186382798187877500584175,0.00198060407731303917550081,-6.08167590125032072028571e-05,0.00952885818567059637851369,0.999952263663296037066175,0.0698148513037572526762631,0.00162829418060965458447953,9.7864573844930138335485,-0.012761140635927046074749,0.00393079359911048357989483,0.00439187727479985537404339,-1.79734811619021206396951,3.22019219880255747057163,1.23807474636084124952617,1092.34799697941707563587,1101.83024918333649111446,1090.74115562583369865024,1105.49685234265416511334,-531.096564794688219990348,-189.977872595727433235879,-350.625352677706985105033,33.9346041032058280961792,163.965857476753967603145
0.415000000000000035527137,-0.0800242141369778142712121,0.675007970701595683138407,-0.226603914388433191895444,-0.0213699702353541721999708,-0.0135525629443333291840323,0.01719185011223687067905,0.00196106030591150590908223,-6.53401909204948621147716e-05,0.0095452370896806706945803,0.999952146943405395518312,0.0709752696727083964844951,0.00282926527043668787908537,9.78310419439396206087167,-0.0127928594587419109523951,0.00392399737754344467288714,0.00441295405070288044441229,-1.797380075534632970502,3.22020616213361288160399,1.23808305219834102750553,1090.97631939216967111861,1101.28851410640231733851,1089.84032556642227973498,1105.74937303096908181033,-549.251300890187962977507,-247.462372039356324648907,-349.70557856700355614521,185.860385085836327334619,163.96515513282639631143
0.417499999999999982236432,-0.0236445384750762419012737,0.735039702625545521286199,-0.0750751794842832581577952,-0.0216126485052500830197353,-0.0102702464093681021528592,0.0159927568168150950611572,0.00195024242957631682715558,-6.62035865526675639794116e-05,0.00955492669995279542138888,0.999952071205866155345632,0.0720736787594514483057395,0.00403948713681415855214496,9.77960622851280625411619,-0.0128264659316657900905989,0.00391560173223009198861799,0.00441670645362483675622212,-1.79741212702619779228996,3.22021973371604985914018,1.23809351990573413004881,1089.60174047496616367425,1100.59293732313972213888,1088.99262773299869877519,1106.42615426808333722875,-408.601223159807489082596,-247.719306536148707209577,-236.588988896485403756742,295.279734796625518811197,163.964468673132330422959
0.419999999999999984456878,0.0303279700201014024152357,0.728508632499641595181572,0.0500358853095951641720696,-0.0219746104190480656681572,-0.00771558182272012293284602,0.0157734674604218978732906,0.00195140341095916079044992,-6.6939852558662072431854e-05,0.00956369204580275258931188,0.999951976148726218163176,0.0731884775755918259854127,0.00531215760572144313211851,9.77601992696114230341209,-0.0128624445370151899159517,0.00390521807177278326012049,0.00439853575788652900041553,-1.79744359676488230093128,3.22023259962085406371557,1.23810754983163917586353,1088.93331327637065442104,1100.04991757372158645012,1088.65738062193986479542,1107.22577170495219434088,-127.07871667339520627138,-194.235965588359078992653,-31.7820030161328475060145,337.848894266607828740234,163.964027201689390267347
0.422499999999999986677324,0.0967474980006566565027271,0.685665278658063037653392,0.138532609500954362324876,-0.0222073224589045513377439,-0.00590594445400641644000617,0.0164272630731572139017871,0.00196042751463641881301547,-6.70040976527613629581612e-05,0.00957726903568481904849286,0.999951818486528476448427,0.0743182533963972491442007,0.00655904059295732769219178,9.7724126249839464719571,-0.0129012168937750661829034,0.00389302014976523067316116,0.00435400018134700188265906,-1.79747426927296016785363,3.22024437622121206814541,1.23812550489743067316795,1088.96634689159918707446,1099.62175749519792589126,1088.83371771791803439555,1108.11539873941637779353,139.374904700252841394104,-143.137215091701250457845,159.243546121706316398559,342.793476158203418435733,163.963720832720099451763
0.42499999999999998889777,0.172672854739841202809103,0.635765789625158062037258,0.171248426956781885088787,-0.0220253461941666110746052,-0.00457955304092817327282772,0.0175918668017820238602678,0.0019717052231135760373415,-6.60713928822316695025491e-05,0.00959787234068523210928081,0.999951594328526649491096,0.0754660457745777724092306,0.00766383344508802730188357,9.76886006277532281671938,-0.0129430296805754518896237,0.00387956524547485200049568,0.00427946043377348470104771,-1.79750488719226209077817,3.22025428313122175083549,1.23814782673178913618983,1089.63018779987191919645,1099.3342314982630796294,1089.45359835254839708796,1108.93973908574321285414,399.819743110264994356839,-73.6308495902903104024517,343.149577282474353978614,281.941586572292862911127,163.96352565681385726748
0.427499999999999991118216,0.25526454377814883356379,0.604445277670839109518397,0.115049702879235063446295,-0.0212376000663881819852108,-0.00346921624488760824839284,0.0189057155570514015541228,0.00197939892363724551441195,-7.25465956927777720674236e-05,0.00962533267818136903382076,0.999951318798025567957666,0.0768048559979989664547873,0.00850473182509535810535972,9.76544353742552040387181,-0.0129877937499805144044851,0.00386561965461237801860994,0.00417293582772734501090683,-1.79753503074250131632539,3.22026258361658390683147,1.23817319502040223966333,1090.96544560715051375155,1099.25360324724647398398,1090.54946560433040758653,1109.52510667227784324496,685.039534814858939171245,17.7120432315859801519764,562.618896129333279532148,171.910409870497318252092,163.963462923304348350939
