t,ang acc x,ang acc y,ang acc z,ang vel x,ang vel y,ang vel z,quat x,quat y,quat z,quat w,acc x,acc y,acc z,vel x,vel y,vel z,pos x,pos y,pos z,mot 1,mot 2,mot 3,mot 4,dmot 1,dmot 2,dmot 3,dmot 4,vbat
2.60000000000000008881784,0.976189797979608919753503,-0.245858047313670002864683,-0.831586156297729028885612,-0.0434347449811421648657728,-0.0148829413758284935520582,0.00217779149954743737188645,-0.00153149605451216217454069,0.00771391322800369164114365,-0.08691504233925670397376,0.996183492984754725974028,0.0487009815709101429037631,-0.0408084280143208993907322,9.76278543382166752451212,-0.00344992801492500882065695,0.000506517153503347893235553,0.00089977946277501488856615,5.43726051424654688304372,1.90401438343625550864147,1.14696524177208658556992,1108.19504427234073773434,1122.50767805075497562939,1119.5389071220088226255,1123.97890890986332124157,-277.318616201552231359528,-176.838211623002422356876,734.287742855956139464979,111.332803890584372652484,159.729379409033128922601
2.60250000000000003552714,1.25989578597994511532931,-0.252127101616013316043308,-0.882446222444177030830303,-0.039895856330248558041518,-0.0166951118854376349964763,0.000124403163693700990512225,-0.00158430631131850868480171,0.00768919752520065905021518,-0.0869139497926953025208618,0.9961836961458400141467,0.0486131567783212939493076,-0.0432058204530425538081317,9.76445321496178486597728,-0.00320697480336553210691908,0.00058140765761639247831416,0.00072920126291316537340409,5.4372607310467699903711,1.90401492504869018773661,1.14697941470227693372408,1107.63517522800270853622,1122.1559754563736532873,1121.31830636115910238004,1124.19057666969661113399,-167.189748883087219155641,-83.7158478786950297489966,651.856070701674298106809,68.8490020064833601054488,159.727669873863902694211
2.60499999999999998223643,1.47733308361469317659953,-0.199384649735132618575406,-0.892029585740207631161525,-0.0357841636940334911765049,-0.0182532123139926942545497,-0.0023472768480351591594002,-0.00163854253901134314791443,0.0076533099973861090994931,-0.0869168977246304735873039,0.996183693203386066983285,0.0487817075128373217607347,-0.0453644044998094131404542,9.76619237775288873137924,-0.00297918720181512657052547,0.000649528168365172517591255,0.000544377858150235302558961,5.43725925202753757048413,1.90401574877751178505036,1.14698810163660747107883,1107.35909552792531940213,1122.08909881136150943348,1122.79818747551712476707,1124.32315391989573072351,-71.3650871455244413255059,45.6864559489541264269974,548.319188240714424864564,65.2309898720900775970222,159.725842436180556660474
2.60749999999999992894573,1.67995159778198499544999,-0.0736623384272516307236245,-0.843762463484334368502005,-0.0309258037924758852343921,-0.0193907937806645606915179,-0.00555708588866326517324845,-0.00168821870588902172433121,0.00760903689551677489544268,-0.0869237000560189043696369,0.99618346538699231729197,0.0491682955879294697476567,-0.0471482679857453401695011,9.76803603943889342531293,-0.00276477903582884052338664,0.000713961352492296897308266,0.000351080854104439984801622,5.43725647279068180495187,1.9040163114656007969927,1.14699098975172342207429,1107.2783497922750939324,1122.38440773611841905222,1124.05990230236261595564,1124.51673161905705455865,0.718574758411720582174098,166.712514602526340468103,366.363445206714970936446,93.4769561755294375871017,159.723516948032511209021
2.60999999999999987565502,1.82130055143169955478299,0.0673698966148977979040424,-0.751635690690140911840444,-0.0273074742531027696290646,-0.0196021188158606897433689,-0.00800388394026275117043578,-0.00172977194218863761232541,0.00756013241307092447723859,-0.0869332640598921430052926,0.996183060596077196713338,0.0497171931877528339160932,-0.0484797187304315674305499,9.77000452129122898270452,-0.00256113759321632350821063,0.000777566185634217458925999,0.000155782655119670080615807,5.43725299677838780354477,1.90401646970944971037909,1.14698907202719468934049,1107.36268840171737792843,1122.92266138437412337225,1124.63000470155066068401,1124.79053870077336796385,56.4154733916855661846057,256.792749470633623332105,135.433557832711755963828,144.196723577387558634655,159.721471542367424945041
2.61250000000000026645353,1.95697193177180173151442,0.220643151596719488960474,-0.612479744209432519497227,-0.0240131692401293755922964,-0.0189936494441787298570468,-0.00950137287019947249233631,-0.00176461535000305776328677,0.0075179060337918447373684,-0.0869418952488230090125398,0.996182694233286869511801,0.0502297698256113922532506,-0.0494003076095292092961841,9.7721031404595510849731,-0.00236504904031447846235459,0.000842900449436559309063233,-3.50878682518567281572487e-05,5.43724821701744165380887,1.90401668195746776035548,1.14698471148923464291158,1107.56042715923354080587,1123.66837148347167385509,1124.73707009152622049442,1125.23771523694404095295,112.713957470661298998493,343.232769710834418219747,-31.7508014201827286626667,232.806399515796073274032,159.719318393138337341952
2.61500000000000021316282,2.12108038162009782112705,0.390056460791955161848676,-0.403264309992583114272691,-0.0197082841005345107965319,-0.0173490753378181365718103,-0.0103806702332104455743789,-0.00179351872373078799483004,0.00748610259311147715338697,-0.0869474467188093153025008,0.996182510977803192808722,0.0506477996710423747361851,-0.0499353401703204330397412,9.77432304498965365269214,-0.00217293512167356919415062,0.000912138315451289385070444,-0.00021556202371290393506216,5.43724157760205617506699,1.90401762919494643711005,1.14697965705687665582957,1107.92625818907072243746,1124.63882523292841142393,1124.47125069444973632926,1125.95457069835242691624,160.620817670773021745845,345.567333168499430939846,-136.218939587436750571214,277.511015792703346960479,159.716614905150322556437
2.61750000000000015987212,2.2470080924101942798643,0.50456289479652571827728,-0.19814735536859728881609,-0.0153154788042965447208976,-0.0153759804391855187111204,-0.0110950982260427238879075,-0.00181198313279150487187241,0.00746538657091701512297233,-0.0869511048846967615766346,0.996182404341377059076024,0.0509575746060079298738188,-0.0500107414694316229630822,9.7766410470319229375491,-0.00198118690716589081549093,0.000987058514773458094138103,-0.000380366801458798453258736,5.43723323687984549934527,1.90401989807827920486716,1.14697491836367126971652,1108.36353124758738886158,1125.39620814931413406157,1124.05597539358905123663,1126.62527031590752812917,209.532818316897561317091,275.4927706581442521383,-173.461655696159198214445,253.670951942882254570577,159.714266056920706660094
2.62000000000000010658141,2.33012049072122007231656,0.587110534075683254684463,0.0381296537591881631867885,-0.0096296621701467792486806,-0.0133135232728167265253694,-0.0119732109773012709158513,-0.00182027259141180641245639,0.0074517004667974690718113,-0.0869546062343313497233765,0.99618225254594439110889,0.0512389026242348055717457,-0.0496449647304875035791483,9.77902104728445742409804,-0.00178652722357591016606737,0.0010691360344608324527832,-0.000524912120096478868568057,5.43722394011270715452611,1.90402314470151590164448,1.14696875816908505640868,1108.97392228065518793301,1126.01628908621910341026,1123.6039424159689588123,1127.22292545806681118847,310.252786754160524651525,240.292732595258371475211,-173.800672062774594905932,206.369738267044198209987,159.711822512763262693625
2.62250000000000005329071,2.33772600152929843631,0.661632436852801486537601,0.349594094627920681794819,-0.00158369582908654158923123,-0.0116384347864959339369229,-0.0125600547655050492901196,-0.00181894339884149753780451,0.00743677797365361551579221,-0.0869570277498850074948678,0.996182200652421023789884,0.0516480252919402360589629,-0.0488620816849260897196672,9.78141581026987871894107,-0.00158630018378499125508707,0.0011596555565925382221687,-0.00064536830315053690491911,5.43721512954733210420954,1.90402675708032398382841,1.14695962493215053434881,1109.91479518135815851565,1126.59767181229040033941,1123.18697203327519673621,1127.6571190072427270934,373.246671952900896940264,196.235293947124404212445,-113.063309015845021576752,87.9250804830026595482195,159.708786891700924570614
2.625,2.24577870191165374080811,0.716934166685317397771371,0.614895379740244329980214,0.00525473195377141460982173,-0.0108830537665535187485943,-0.0122066863093090033354216,-0.00181036899314028542143373,0.00742193168446964902928986,-0.0869542492102608893800308,0.996182596179251089729689,0.0521522327189704038019613,-0.0477439894574640671942589,9.78376817958979927425389,-0.00137857631780652334883841,0.00125977536446285017825153,-0.000738956298917139878072724,5.43720749459531660363609,1.90403013822112709974022,1.14694860873237147735892,1110.84015564041965262732,1126.99746555595470454136,1123.03862587088974578364,1127.66255086048181510705,383.260797401871059264522,160.484998523273816317669,-4.69890628864969617239922,-85.3315753237002354580909,159.706175823711561179152
2.62749999999999994670929,2.04714586809663279254323,0.773304819847132840493487,0.850949505189255162029838,0.0112775515378695304069545,-0.00975298613784228787815245,-0.0103685622486890220705913,-0.00179597095726413062515003,0.00740836997076718944271745,-0.0869452598473000326517734,0.99618351957309314581579,0.0527143745770168592468252,-0.0463586113103175712080173,9.78601504237887098724968,-0.00116212864700193695480235,0.0013705046382485712181537,-0.000804214197566248552816182,5.43720173307978527077466,1.90403308405661952917853,1.14693648679034554405121,1111.83109916836747288471,1127.40009680490675236797,1123.16347750183194875717,1127.23046113062423501106,391.782689910959732060292,174.615214113331688849939,96.975010555436043091504,-239.751976399934960682003,159.703486319117644143262
2.62999999999999989341859,1.77112897340794184231072,0.826885591579328949052297,1.03140389896123729762678,0.0164246573481817911832614,-0.00780816215884163212362923,-0.00735485033912920780491129,-0.00177274078545220292388307,0.00740078503684118201716435,-0.0869361396140760356310295,0.996184413130581147832743,0.0532178572028616930778,-0.0446967372282808944605748,9.78809029581014655718718,-0.000936290443517926048409838,0.00149265190253507337367345,-0.000841197741840302962330889,5.43719750924653677515153,1.90403555171597727024846,1.14692515543914486109145,1112.7990690899744095077,1127.87054162652134436939,1123.52350092366691569623,1126.46379097848216588318,363.644696516447311296361,216.339164724972818021342,192.147570367437310778769,-360.883777797251639185561,159.700736487117183060036
2.63249999999999984012788,1.42650402363780104408875,0.868048799545014571066304,1.11320425119530153068581,0.0203825220931116157796481,-0.00530272423466873320946346,-0.00368730404252073495213748,-0.00174212258755678905779163,0.00739875185037596784509706,-0.0869325192929660262031177,0.996184786782162601248558,0.0536511142221010317587826,-0.0428296031679401001390772,9.78992932464841913997589,-0.000700790563349539940424249,0.00162679797930446708512098,-0.000851429813332770933816118,5.43719366344805532520468,1.90403773795174258154361,1.14691557459974036170536,1113.64932265094967078767,1128.48179262853159343649,1124.12421535366911484743,1125.42604224163801518444,329.268737604593809464859,311.618962753142909605231,295.525000840896666431945,-467.852540880781134546851,159.697919495331632333546
2.63500000000000023092639,0.972149650124850106536201,0.897014830785763717102554,1.0752742096810958827291,0.0236101696544815560507846,-0.00244825589259024594887548,0.000777225892066461592974647,-0.00170958976532312395893443,0.00740651140070546377264238,-0.086932978399324761786815,0.996184722610876649540046,0.0539178928097870241442635,-0.040916341793750699018517,9.79147162098029433252577,-0.000455653948170688972985065,0.00177322615492374086217098,-0.000837726686260621255381009,5.43718954987611535756287,1.90403996631597616229215,1.14690757595039971583617,1114.44541277799748968391,1129.42863644028716407774,1125.00112592787149878859,1124.12452827407810218574,247.943507982319346183431,387.102450328094391807099,321.180777792120522917685,-445.747548834348833679542,159.694468197235948991874
2.63750000000000017763568,0.58760052199664247751798,0.904926704293818828794826,0.929500757367776153650141,0.0250824940643716437493893,-0.000349581520705612158739228,0.00439472483848493602337504,-0.00167692799203194762257263,0.00742373168953012422394133,-0.0869322950828926160893317,0.996184676334212260151446,0.0540055523881710144995516,-0.0390362018823460915628587,9.79266468489696073618234,-0.000201285985020711232157745,0.00193181743028040457492434,-0.000803967554856568509744075,5.43718526514799194160332,1.9040422495770428223949,1.14690034224158510234304,1114.88904019086135122052,1130.41730488017219613539,1125.73011924262982574874,1123.19730449746612066519,133.073062667611452525307,438.46253910779546458798,253.54416806435978060108,-298.424989076563178969081,159.691537577911304879308
2.64000000000000012434498,0.225215625809336211782252,0.898850979376262126940844,0.683538172033493207635502,0.0254522001314130899563004,0.00163190887465342417995962,0.00765030144565625319641455,-0.00164454176293461350362446,0.00744617172903197076933024,-0.0869287208453319720780073,0.996184834192089585513941,0.0539769129723769308659698,-0.0372328573207470897576954,9.79346677200017801112608,6.13872531172455609396396e-05,0.00210199332188755992623097,-0.000754925285446267574709922,5.4371813678840608119458,1.90404516947052737663171,1.14689351564530528371222,1115.11077809133553273568,1131.62094913582609478908,1126.26884676819327069097,1122.63240332869531812321,59.0732262247923998188526,575.062414853813152149087,150.711723273028411540508,-143.137237716749353921841,159.688555365857496326498
2.64250000000000007105427,-0.161828124122172400944919,0.876557798513830754849607,0.320688347413195851132173,0.0244496699299264277915888,0.00414594794244446847308883,0.0101690359199745564838802,-0.00161583674291018914749574,0.00747861116544963882429853,-0.0869235291257468151160381,0.996185045058934126593897,0.0537265658987958194536816,-0.0356205777418873159589907,9.7938481524017042545438,0.00033085723645809588140676,0.00228273476791412402095438,-0.000696135521086388409615908,5.43717915918210525916265,1.9040492326633320363527,1.1468886929872001978481,1115.18440632198530693131,1133.29261695444120050524,1126.48367785899495174817,1122.4816183088823891012,10.2368792616746215884405,642.474815177697564649861,-15.893321448448089583394,27.6732771547364322373141,159.684922385382350284999
2.64500000000000001776357,-0.438652501982066844732344,0.844996993750200098283187,0.0129299550103397411365824,0.0225143427164680894059234,0.00636594612321390949244426,0.0101185783035419515907272,-0.00159526864908007717618055,0.00752280659761705300381252,-0.0869190375052854014015224,0.996185090122338579021743,0.0532136334476655536995793,-0.0343244844230025311637711,9.79379376915475496900854,0.000605050565908321711511286,0.00247267131872875222872721,-0.000633712467788559766744549,5.43717923425693427930128,1.90405438372495861010236,1.14688633912388326940857,1115.16196248764390475117,1134.83332321171451440023,1126.18938016095103193948,1122.77076971446899733564,-4.60646996248225004677579,630.039043902038201849791,-227.1685705040047764669,173.955000257459744261723,159.681853207457379539846
2.64749999999999996447286,-0.678881540606716127328468,0.800478138473807665498327,-0.236109994432923603335794,0.0205862603102825378331708,0.00833457633157555673186767,0.00788993785905069307251569,-0.00159199554779040105927101,0.00758073216575476556411406,-0.0869135878702255171290858,0.996185090512208604174305,0.0524058839159218387004913,-0.0335564449792409499884194,9.79330396042963968739059,0.000881514983585702594295896,0.00267020634459062345192337,-0.000574011208693535248531736,5.43718178380710970287737,1.90405924231126233436839,1.14688700927693321141021,1115.16137397217289617402,1136.44281217395132443926,1125.34783500647495202429,1123.3513933101696693484,27.9895412233151148484467,697.860664011901803860383,-487.341606755045575027907,275.451593542317311857914,159.67874466147316070419
2.64999999999999991118216,-0.956041717593322903923081,0.734399268016380002421784,-0.41793487866051148849067,0.0193265581544405339042836,0.0102589912852987918262526,0.00441407298385390438333342,-0.00160917327533953587702376,0.00764705468301337797781825,-0.086901281712937802903518,0.996185600367914814157189,0.0514087778814938112237343,-0.0333924023615432274958437,9.79239473046874309147825,0.00115766352643945514416801,0.00287353627026410004749457,-0.000523285405559491766623592,5.43718715342674396850953,1.90406334395798815251055,1.14689138548267188788543,1115.30191019376047734113,1138.32262653177394895465,1123.75267212717585607606,1124.14802768218055462057,86.0398802361505801172825,660.248688515016965538962,-662.201656542188629828161,275.131148440056165327405,159.674972977201662160951
2.65249999999999985789145,-1.19791374176076748092612,0.668831093878843430111658,-0.464507303555158124197533,0.018577055546329403895589,0.0116912655861001798379695,0.00186226054407303913927618,-0.00164204826023202831927761,0.00771939853099360123039885,-0.086882258347615134996822,0.996186637067982272419897,0.0502610675275932880512464,-0.033751411541282638761885,9.79109592126669525669058,0.00143103039534657342293777,0.00308060672085616951698661,-0.000487205194785718853547202,5.43719506080339609610519,1.90406707849709078139711,1.14689866945839002987384,1115.5915733733536399086,1139.74405561652633878111,1122.03682672376407936099,1124.72704905236992090067,153.225038529434300471621,515.817811943053811774007,-731.495332044592714737519,186.014145044451822741394,159.671798074953954937882
2.65500000000000024868996,-1.45238291210024428323777,0.588325953695266190557334,-0.423477743165808939718175,0.0169113056820844528949088,0.0128865347987214967639957,0.000267983912441575433237978,-0.00167558475915147685186835,0.0077869623598730034960691,-0.0868639733883569409300662,0.99618765939305697898476,0.0491523454743563043001231,-0.034329576843845965861135,9.78945074215818777929599,0.0016995338681516523795384,0.0032890591705222976641465,-0.000470443781158445839020443,5.43720489271223339500239,1.90407171995514890028289,1.1469077542938166391906,1116.068035386407700571,1140.90171559148939195438,1120.09519546695264580194,1125.07809840740287654626,212.337191338960337816388,404.749920677995703499619,-784.341176449235490508727,94.5878697058951587450792,159.668593017199356154379
2.65750000000000019539925,-1.69728821886495384596572,0.489000928086436470465515,-0.339227379452029020878712,0.0138901608485917666541143,0.0139148470971399689649628,-0.00034863433605638064968768,-0.00169853969281684685603551,0.0078322565309443935993583,-0.0868561222334434807068604,0.996187976701069066720606,0.0484127040683056814041052,-0.0348777984702895310631376,9.78751425478752423714468,0.00196170945178692499380468,0.00349627025155013109250501,-0.000476275543528302785622336,5.43721577378540565916865,1.90407839504029197108537,1.14691662192813215170872,1116.65325933004851322039,1141.76780521991645400703,1118.11512084151763701811,1125.19998840089942859777,237.562904973361185057001,261.965325530996892666735,-766.748094446227696607821,-0.715531760306491126932826,159.66536487293524260167
2.66000000000000014210855,-1.8896985341711731720693,0.355063140471472693526778,-0.240138328216297963768611,0.00901359654313306155049013,0.0151491814151157623558053,-4.66532736264741555243588e-05,-0.00170939466566474179178015,0.00784866743030061125852015,-0.086862538958598009553036,0.996187302573140920358696,0.0481798969107704519454494,-0.0353477434348899305360803,9.78534925539542754791,0.00221685631560294797715027,0.00369948463694107308047387,-0.000506339718445852470657398,5.4372267060078884881591,1.90408675471408317392275,1.14692366255799127472415,1117.25584991127448120096,1142.21154221914434856444,1116.26145499472158917342,1125.07452074860134416667,231.21942883477041164042,84.7366845373489780968157,-748.508034082003632647684,-89.5980980639270399024099,159.662110941471468095187
2.66250000000000008881784,-2.00733556428211290523222,0.139281151756797672014443,-0.138657876410008873424573,0.00165521086386676593953104,0.0169379429749705184837794,0.000580593667821926681139877,-0.00170576890851667213426512,0.00783457864460895825331477,-0.086878533574634125846714,0.996186056306347378352939,0.0484952594048660631798064,-0.0356757584590461154783192,9.78302341994147184323083,0.00246499970878167424734317,0.00389597664316709618378964,-0.000560845663993270551229975,5.43723682543937858469008,1.90409664113444709876433,1.1469276372536061359142,1117.80935647422234069381,1142.19148864260318987363,1114.37258067110769843566,1124.75199791057980291953,146.320343331675246645318,-103.472106551637281768308,-616.033330084851058927597,-123.697040693926197718611,159.658178734963456690821
2.66500000000000003552714,-1.98713551776583163821499,-0.0892574078213615590415841,-0.0799744168826245077630333,-0.00480872300503166778123942,0.0180666280930189201980873,0.000957973098553957513878743,-0.00169290577130343429003434,0.00779650277451032075459736,-0.0868985476365566472667368,0.996184655326683654585906,0.0492555136717858083050814,-0.0359539715884268362700027,9.78060638834447182432541,0.00270667995161665703163223,0.00408324502203055456767133,-0.000638824096868288423059501,5.43724728719458472170345,1.90410772964644303684167,1.14692861110126842483226,1117.98745162793284180225,1141.69418168638617316901,1113.18128834429739981715,1124.45603554513172639417,-16.1502089417357446166079,-294.325834687567180480983,-383.201619704786025977228,-96.2208951812974646600196,159.654880459775881718087
2.66749999999999998223643,-1.84235950419827498869552,-0.35547392351558676493184,-0.04802989709902447112988,-0.0105821995843982594176502,0.0181695770495056210802609,0.00122146829767840001818024,-0.0016730640716457155503516,0.0077462937381032924769042,-0.086921568619641717545754,0.9961830873581773992953,0.0502478211123674883831214,-0.0362195054489497236804851,9.77816688645477327668232,0.00294276930709289757936986,0.00425917272289773503335386,-0.000738610862256775966769307,5.43725887905427729407393,1.90412026557377123126003,1.14692831969582997864165,1117.7286054295136636938,1140.7198594691653852351,1112.45657257258380923304,1124.27089343467332582804,-236.079443969043069273539,-520.801311875504552517668,-211.917270393228108105177,-34.8883888923872476084398,159.651561439036612455311
2.66999999999999992894573,-1.55298490076631212630787,-0.685774420814224239251189,-0.0291300343801518812902884,-0.0159722380398459110062426,0.0167099792435648208943633,0.00146690541742385016123207,-0.00164866897429958724104193,0.00769580823308706890584219,-0.0869494675860500998432201,0.996181095036739017167804,0.0512584896979482035339615,-0.03650827234187876968452,9.77577091186614666185051,0.00317445496627645918491512,0.00442218598503592210530178,-0.000858127819463224252374833,5.43727193288264221138206,1.90413418401902601040376,1.14692875246240189035518,1116.80705440808765160909,1139.09017512700870611297,1112.12170199233128187188,1124.28159360066979388648,-444.472995599890452922409,-654.661156114084747059678,-47.1795737279545477349529,44.5206083976709550142914,159.647556204886768682627
2.67249999999999987565502,-1.24770361772721005699793,-0.941388842020091765050438,-0.016182297526675982340949,-0.0190088416893823310138689,0.0141201221850528607637543,0.0015181659695703583843468,-0.00162272697844726560001405,0.00765304482518830778148278,-0.0869794691981052442431022,0.99617886049142745363838,0.0521486581149496891685047,-0.0368584489489250100024975,9.77347987261108208656424,0.00340334618045451961845793,0.00457138500432244156840289,-0.000994929017278704374421805,5.43728524181724548469674,1.90414918628683449419725,1.14693022230718755238854,1115.50624045151425889344,1137.44655368859503141721,1112.22067470394404153922,1124.49349647666167584248,-621.46718084214069222071,-692.591464729911081121827,87.9517697060177567891515,112.358073034639943443835,159.644201215046223296667
2.67500000000000026645353,-0.914860979952752950694617,-1.14800444235015186578153,0.0131138334539795467503787,-0.0207028775478771548401724,0.0104915471426117144770895,0.00121628438372728235605802,-0.00160491671828976801075783,0.00762520182266811404059315,-0.0870015413704790241400389,0.99617719376423563559797,0.0528045905634767845371336,-0.0374361467520355692406575,9.77134854052321699668937,0.00363149453998698251364075,0.0047066650162166986243184,-0.00114599087289145350546105,5.43729732827378775539273,1.90416433701359610886072,1.14693135278438118618283,1113.69971850387673839577,1135.62721780335891708091,1112.56146084086140035652,1124.84338396584303154668,-880.705045385807011371071,-821.368315662802160659339,160.71373755179416775718,157.691607572622416455488,159.640830520168151451799
2.67750000000000021316282,-0.516178677018089171468773,-1.32485626334381723090416,0.0873750896077724603649983,-0.0215837868916030801991202,0.00601500939850416541099243,0.000628830437566628474080344,-0.00160044986911099334191133,0.00760808483672387441537621,-0.0870069310852506355713487,0.996176882921876893917101,0.0533238960724530391965814,-0.038301822432348267555291,9.76942398287677526980133,0.00386112917700953206870396,0.00482876359224094792860216,-0.00130781667806510910889717,5.43730811610236042241695,1.90417869962169539199692,1.14693057856868274591022,1111.1027152245849265455,1133.33971211028074321803,1113.02424339170306666347,1125.28195451452484121546,-989.319368230665645569388,-849.685932487745844809979,146.606113467672400929587,146.069934588470857761422,159.636770958195199909824
2.68000000000000015987212,-0.195392837613168918187156,-1.41578676683370097144632,0.190180833271688415342382,-0.0215985619780551217627984,0.00273631497870878469605427,0.000244806123051685405132144,-0.00160483989302994669787217,0.00759790070580214881024173,-0.0869971953444701601165789,0.996177821916933381451997,0.0537762275593769295545243,-0.039329874333849837442223,9.7677431493028894493591,0.00409432845972500410181016,0.00493919434325330256735365,-0.00147652492885305360904857,5.43731772075016195344688,1.90419207924646149976411,1.14692702329239026859398,1108.75312166272351532825,1131.3787881409202782379,1113.29449140819974672922,1125.57373363878537020355,-928.338084896424106773338,-794.32366339598831928015,56.4323764142512303010335,92.4154335111344806819034,159.633378773900972191768
2.68250000000000010658141,0.116081413895194496266328,-1.45808841318887605353893,0.334437742908248569762009,-0.021177663815222215470957,-0.000155517420966751402418987,0.000247352389224130030705856,-0.00161958482366795423861017,0.00759287028758225731456255,-0.0869787502494337450009709,0.996179454755057980364086,0.054199327599458349546957,-0.0405185149827543417133668,9.76633266560078361351316,0.00433280520954059267940695,0.00504005827539731523362354,-0.00164798438338605891806399,5.43732575562028586091401,1.90420480673474235011611,1.14692046212904208424277,1106.46102480010290491919,1129.36809379330088631832,1113.30640527377431681089,1125.74403168208050374233,-868.340024748313567215519,-811.984630676733104337472,-46.2490048062146215102075,51.233386025252187323531,159.629981346448943213545
2.68500000000000005329071,0.430596035519742237340779,-1.46462890810898893612091,0.503873673841198632672445,-0.0206530418549900791902463,-0.00309564148627728069965159,0.000743004526839336713189832,-0.00164561884289693405834798,0.00759395573535124029235233,-0.0869547260549271838758756,0.996181496844149472202901,0.0545749297755891149552809,-0.0418651952086726980573061,9.76520842895704532793388,0.0045777126908032655591696,0.00513377241460997307820335,-0.00181824119496103446709523,5.43733193669347869558806,1.90421757536296598622982,1.14691050503197300436398,1104.41142153898204014695,1127.31886498753669911821,1113.06324638416867855994,1125.82990056891162566899,-719.102225020985201808799,-824.285177300607188044523,-152.014632813737591732206,24.6656680044003024931953,159.626583314556086179437
2.6875,0.764575479648306632896038,-1.42551665214058420616539,0.684103297564835677313511,-0.0201686455233060467351347,-0.00651896279787196001459515,0.00200082522792847722001297,-0.00167764408742854123982036,0.00760160375501411564314047,-0.0869225455429654542127693,0.99618417947353088415241,0.0548834152654178314412192,-0.0432518904520619029696604,9.76437617492550913311788,0.00482934439476356228843068,0.00522287580205313926862143,-0.00198401535509418148681138,5.43733710649592083541393,1.90422995271862238730876,1.14689863659766633219306,1102.86551367499805564876,1125.2466679067979384854,1112.5463321097056450526,1125.86736002210250262578,-522.192209924435019274824,-902.882387049268004375335,-265.197689356187936482456,17.9092641998526396207581,159.623189721135503305049
2.68999999999999994670929,1.19664985353992747718621,-1.31762375629830019718725,0.881610768982242776203861,-0.0192732653809495023400356,-0.0111979849366205027466625,0.00445667121948187944235897,-0.00170968420008586253523719,0.00761081218887683409735079,-0.0868787539519487728156832,0.996187857251068620279,0.0552097266785419246715172,-0.0445451422280081082982761,9.76383295676124163264831,0.00508679282452970723399366,0.00530996533302747868166005,-0.00214303835359670865820525,5.43734341825021250116379,1.90424140768421157332568,1.1468859446649724009859,1101.80046048935992075712,1122.80445305229045516171,1111.73725793738776701503,1125.91944688991088696639,-240.698869621160753240474,-871.451201742020543861145,-302.552623076059774120949,23.7064003078563061421846,159.619129976475505827693
2.69249999999999989341859,1.57100001751031803642888,-1.17521241060498726760386,1.00779436357425589143588,-0.0175654756958762876817293,-0.0149895518240597738074404,0.0071288995642560248899855,-0.00173169998864169277265346,0.00761155929601138332013521,-0.0868247545658113462074823,0.996192505664474592386171,0.0557297099841105314510514,-0.0455308368264594753860308,9.76356819606554005019916,0.0053478355361390294414603,0.00539761426691666695160121,-0.00229423907059711582739903,5.43735327921585565036366,1.90425194711081680054576,1.14687436209336457437757,1101.6620193268922776042,1120.88941189808792842086,1111.03356899432537829853,1125.98589202364178163407,105.746610127064272433017,-715.418977918003974991734,-256.130720130573536152951,26.2086509429997143172386,159.615762955587825899784
2.69499999999999984012788,1.91974379410614393037804,-0.988242103034541630179888,1.07213474333881508826494,-0.0140473567378916856795978,-0.0179214359042326187854144,0.0101457516437703926248659,-0.0017439515297136753621543,0.00759764035207107293889983,-0.0867682330343314683895883,0.996197501773148252901535,0.0565630698477715271321742,-0.0462083050366578831913422,9.76356447471323996012416,0.00560923075145319804946098,0.0054883650193515032961189,-0.00243742565358705471148526,5.43736892904377810964434,1.9042615133235369917486,1.1468645732454347818674,1102.32919353999523082166,1119.22735816270051145693,1110.4566043367349266191,1126.0504901446258827491,465.55172066233848227057,-640.857335298644443355442,-194.97900544514371290461,12.5309815492519831536811,159.612418993123554855629
2.69750000000000023092639,2.23841952613259609350393,-0.736057221972438946444584,1.0624802477857215876611,-0.0072761797530501515565704,-0.0202273179500665860330866,0.013905616824864889050084,-0.0017492274969237598530869,0.00756732153761970581518082,-0.0867201184579164119359262,0.996201903424966395128592,0.0577477598329622504591541,-0.0466398230069229174921119,9.76379858967538538649933,0.0058673654164342605929483,0.00558462480862878356269174,-0.00257307334713824387151249,5.43739020886138835209067,1.90426998146435666470211,1.14685612988356044894545,1103.98977793020412718761,1117.68512522159448963066,1110.05867396709959393775,1126.04854693138804577757,728.705756711402386827103,-470.22957062191846944188,-83.7375207725415577897365,-27.7002922336104759892805,159.60843962272585372375
2.70000000000000017763568,2.3694718809055945740738,-0.521621140173331165890147,0.978566770735424196203667,0.000126314101528521332195795,-0.021218069131459210696633,0.0169266349989505154871594,-0.00175206693783649448438455,0.00753060016877555356978879,-0.0866833140777600597015606,0.996205371552318919015079,0.0590975853791632158018565,-0.046947533872670185739473,9.76424222071185354820955,0.00611917202889993537551216,0.00568848669851777788419867,-0.00270191439733451959151478,5.43741510145228623684943,1.90427729347980712049093,1.14684922940737399343902,1105.9727223235524888878,1116.87621030959076051658,1110.03791673287219055055,1125.91198868345782102551,877.334149476537845657731,-211.299778857851322300121,59.8022349538054172057855,-96.3215761623380331002409,159.605155796020483194297
2.70250000000000012434498,2.3214436885192091253316,-0.319576559767609791329335,0.821334105438445538638348,0.00810006677336116281962219,-0.0214725920197539853206958,0.0194516552401506649661034,-0.00175395459071597207417748,0.00749843314387326799475009,-0.0866514836444671476822776,0.996208370701889500686832,0.0604026683267005204402977,-0.0472007084761837530928474,9.76486393740599822876902,0.00636271528729396868701018,0.00580157458442353592131813,-0.002824802525569582601489,5.4374413130461993759468,1.90428366625443268311813,1.1468443517371413875594,1108.37644867758672262426,1116.62862632730525547231,1110.35768514186861466442,1125.56693905057636584388,1100.08934954778464998526,18.1401164240473242728058,209.537159853657527719406,-206.93278346116571242419,159.601910400070295281694
2.70500000000000007105427,2.05601594815943489180654,-0.0977042658953617415562576,0.5642981946904677137411,0.0166685866943190319489077,-0.0213572834598068292399908,0.0217867417153674372554129,-0.00175315637517805297633522,0.00748023495061666664901479,-0.0866199814245943999768684,0.996211238651899200213791,0.0614758641440108430376021,-0.0474062766654827771883873,9.76563026627694164005788,0.00659737714599116249064581,0.00592502451840581575992495,-0.00294240770989222764908444,5.43746789896899684890741,1.90428912026504537635674,1.14684246937746636696431,1111.47316907129129504028,1116.96691089171099520172,1111.08560253214045587811,1124.87732476615201449022,1130.79664710965198537451,215.863017658925912201084,310.318426782130018182215,-295.80236680708998164846,159.598065445042379906226
2.70750000000000001776357,1.69116486815909539132008,0.0747830313890788661579379,0.30981582733805590468279,0.02215390131879105620194,-0.0211331737995387770878697,0.0231201914745421850672091,-0.00174693206384879048953529,0.00746944474694113871166001,-0.0865880689365290528991537,0.996214090697362331106035,0.062435681736374072647866,-0.0475256682540563385463983,9.7665074071598354521484,0.00682381603521779126625413,0.00605936223570871686228134,-0.00305500841878133004222984,5.43749448050849260027917,1.90429407615527335195793,1.14684117049507872110325,1114.03043191313486204308,1117.70794141559986201173,1111.90927727577923178615,1124.08792721654094748374,976.268558128433937781665,364.924454776618006235367,353.974561034927603486722,-346.571895653012802540616,159.594905924500949367939
2.70999999999999996447286,1.23617085502266843555219,0.24726908442225004058912,0.0378397741487662211956611,0.0254564844549374606763603,-0.0208590327890898104279405,0.0235839315244720064412842,-0.00173014355681004204298712,0.00745481947875210881893082,-0.08655928279110779166583,0.996216711899882034764175,0.063482687924354352926315,-0.0474650375353887488127924,9.76746074551519782858122,0.00704396721438765860412445,0.00620436637196461991672347,-0.0031621082358607105824988,5.43752042531251156276539,1.90429912365187270495426,1.14683701800846216123375,1116.35451186193336070573,1118.79153316559404629515,1112.85547533731505609467,1123.14446528788698742574,867.480851083583161198476,466.909298016763329997048,383.1464400361337538925,-385.818361443361084184289,159.591796267282802546106
2.71249999999999991118216,0.756425461103904517301544,0.430578684923603904888267,-0.228254911161600820834749,0.0268901599282078823671682,-0.0204893263630939494179817,0.0230913138855229453649809,-0.00169689531636974867169487,0.00743697006193231452408909,-0.0865376694722394257386355,0.996218755905574071540798,0.0645792925804907075315597,-0.0471335838777145604838736,9.76845417460811837884194,0.00726103969052415820079061,0.00635895588547423680492177,-0.00326228946395761779802891,5.43754414365674154652197,1.9043054706008843979248,1.14682900258630593448572,1118.3678361685526851943,1120.04248790568362892373,1113.82500947595985962835,1122.15883540932418327429,713.795342624613795123878,512.820109819323988631368,376.134563462354719831637,-379.113184637398148879583,159.588730310409829371565
2.71499999999999985789145,0.298499120029542375220899,0.635887906938634728248871,-0.464355658652272185182852,0.0264793182829652293253098,-0.0198353517395942341439152,0.0216610179907072465665951,-0.00164617672373254726216063,0.00742365865246606259492124,-0.0865274453017829403567163,0.996219804354954829861413,0.0655497255643999743313088,-0.046543745037813777365443,9.76945125597178254395203,0.00747916136040021033853931,0.00652123810976754265944511,-0.00335364581516043062589527,5.4375637439400197337136,1.90431401605029404500158,1.14681655286905770374517,1119.92348857505635351117,1121.35563371469061166863,1114.73614815462678961921,1121.24889936470003704017,572.734598403310428693658,559.807896863920632313238,367.424158612195924433763,-353.069955935210430197913,159.585719532491481231773
2.71750000000000024868996,-0.185510013942482177018434,0.908642164792546669360718,-0.69226397011379514623286,0.0248398752895535555873519,-0.0184420690521033027453601,0.0195143724088291115048577,-0.00158123936041068839826462,0.00742840594330503208031491,-0.0865302147252199338467449,0.996219616132093088722854,0.0661057261740099211255739,-0.0457955285003309175984043,9.77041625742191399695002,0.00770281889087276114280733,0.00668858971558725003830892,-0.0034343769084321830453721,5.43757898158971553215224,1.90432540322368337726289,1.1468007943421330008249,1121.23150916056943060539,1122.84152739000342080544,1115.66213026902096316917,1120.39348562964801203634,392.134412655624032595369,510.994904984147126469907,299.195878747812287201668,-260.580351850949853087513,159.582173152737340160456
2.72000000000000019539925,-0.526927627232332107531931,1.14933269389133974058836,-0.827703260072318980355988,0.0232140587296080780355112,-0.0165968973615184499370567,0.017435389452817934979878,-0.00151597475056583714039804,0.00745200419396953046141663,-0.0865442664944804235238607,0.99621830555681367691534,0.0662174860654522745573303,-0.0451684386295685136314404,9.77131663206651879249875,0.00793600421687264828696229,0.0068578884957827788981799,-0.00350355550529200636400429,5.43759259018117635520184,1.90433946414797983237577,1.14678295088498116705011,1121.88416063833460611932,1123.91060823961151982076,1116.23212754836595195229,1119.94599760544519995165,185.452959589114783511832,379.088673780014573821973,176.95391956254221099698,-120.275300005189649255044,159.579275003234926089135
2.72250000000000014210855,-0.814665564603268554932924,1.38320247105747595739444,-0.902349938924694616737554,0.0216454739816247659911497,-0.0137692219482343225500642,0.0149810049887720425632054,-0.00146298086836518966002973,0.00749485270513827132182749,-0.0865673643362276784563036,0.996216040538124514291951,0.0658541665693122280078597,-0.044909162873522742720489,9.77212323905045110450374,0.00818169771232458813148281,0.00702574261199192216797993,-0.00356145844599252197823502,5.43760774310477579263079,1.90435504677311207011314,1.14676503052432976481612,1122.15877395851498476986,1124.73697075890345331572,1116.54689986683365532372,1119.79210912962207657984,55.0200190117277898593784,306.724652709051213150815,82.334746488324469737563,-7.28739542478267221525812,159.576437873129378886006
2.72500000000000008881784,-1.1180303172098797759304,1.62372515613482404361889,-0.923727337013654503650173,0.0196610332735292075989619,-0.00885354189004636596416198,0.0118376303852474867167599,-0.00142468121097388735613043,0.00755898079347371888714324,-0.0865911339565764576198248,0.996213529001219288971924,0.0649312310607707415810452,-0.0450622038153857609743547,9.77281130227009953159722,0.00844179893867398438433991,0.00718857694652721632144754,-0.00360977273070785817724038,5.43762548717800964226399,1.9043718236269375765346,1.14674945864565880349062,1122.15926073339323920663,1125.44423150315674320154,1116.64380128080756549025,1119.90956062832128736773,-41.2788938594539729365351,221.020277231132411088765,2.47103353094649547117001,84.9573573034394797787172,159.573105382425808329572
2.72750000000000003552714,-1.34543062816343028664789,1.76932085890383850035334,-0.891942960404014328901212,0.0176258916451535463387756,-0.00377081044971458142003873,0.00934329643803656108291822,-0.0013970844116274301009023,0.00764015819894565441361411,-0.0866061898353830961205801,0.996211628885614985939867,0.0634719536672227052642725,-0.045529482300260076810261,9.77336215253702889071974,0.00871713393636519909279947,0.00734293862738975584153467,-0.0036514982910488616441036,5.43764529060373824620456,1.90439075187531114963235,1.14673834547995245891627,1121.95237948921771931055,1125.84207214505909178115,1116.55925503448838753684,1120.21689591613926495484,-116.641179806086014991706,138.183169594779656108585,-40.4126829700553074076197,155.62538697982168400813,159.570389197592106711454
2.72999999999999998223643,-1.54478977303441511459425,1.84556617437698000649959,-0.823591004627709732943686,0.0148750293672341542261517,0.001407596325089269196848,0.00723575055007639415111109,-0.00136922140110613669607142,0.00772817120270550932115139,-0.086609667677897864135339,0.996210687910457082239191,0.0616028009277114138586562,-0.0460599268796445665552497,9.77376419120849782018468,0.00900753045711566967257422,0.00748588410466488694133824,-0.00369045371558584557603044,5.43766700706326400194257,1.90441240233815767268766,1.1467316648043117677247,1121.57605483436282156617,1126.1351473511306267028,1116.44173786595729325199,1120.68768756322037916107,-176.970259534486245911467,116.255549110840291859859,-29.0696566994490055435563,206.717401389418995449887,159.567736926769526917269
2.73249999999999992894573,-1.7094326741559984217389,1.86709728653948947574293,-0.738662970156572673552375,0.0113875108041705599970506,0.00607837104708088080823325,0.00541020270028371667164757,-0.00134143255784974668905207,0.00780610830439783676820698,-0.0866078673323460029864762,0.99621028727270011238204,0.0596004594730138448355206,-0.0466054080480378316031498,9.77401390730101304882282,0.00931188233331111704649263,0.00761551634761829972231073,-0.00373041756465157178790371,5.43769064212458985707599,1.90443522452589886206908,1.14672661003482967423395,1121.06752819154530698142,1126.42334989061328087701,1116.41390675099114559998,1121.25048292308633790526,-236.55018011546010825441,131.423881256344515122692,32.6187082747317305120305,235.777103461128291428395,159.565138100072744009594
2.73499999999999987565502,-1.81005134289249758339224,1.83428284101352123691697,-0.650628880310577750734069,0.00691457440998553135580451,0.0100974475490052950643616,0.00372013096792869236983936,-0.00131892106433859892730687,0.00786396227261641420080984,-0.0866073260161379226973466,0.996209928978617265116213,0.0576187739939152884782736,-0.0472205115194012439716609,9.77411478319564608341352,0.00962850115525420297002412,0.00773107116914831509618677,-0.00377448272415559747672287,5.4377155751284105278387,1.90445768573018536784502,1.14672105004079938339601,1120.39330393378554617811,1126.79226675741233520966,1116.6048314073309484229,1121.866573080525995465,-335.756833212940421162784,193.866935925130405848904,146.893118299557585260118,268.95677038663058056045,159.562604342466499929287
2.73750000000000026645353,-1.82773218491983246991595,1.74492099815475354418481,-0.563156393581426994998651,0.000897669197094286665586371,0.0149313678410615408020945,0.00207393940356918795447916,-0.0013006417801172830053108,0.00790008130437820990654707,-0.0866073911705343840727878,0.996209683583574978626984,0.0556441883003337897650731,-0.0478508451553007821410723,9.77407642948293009510508,0.00995535953635533557570803,0.00783275345167383334199496,-0.00382500665834770115988905,5.43774106699163350953086,1.90447912871192714945323,1.14671543597471248254749,1119.38874402548049147299,1127.39268457023899827618,1117.14837234248898312217,1122.59526677501958147332,-398.625977808042478045536,246.77734417308028014304,247.768057969352980762778,256.586771851862920357235,159.55964003192923428287
2.74000000000000021316282,-1.74192787295720918905317,1.63371451556722591114124,-0.521109740556961575919104,-0.00387310828211254567013389,0.0190070741660508142623076,0.00118216582760198737032942,-0.00129081227950691448079501,0.0079236379070049892114902,-0.0866026891125415698713397,0.99620993658263889969362,0.0534690628654240496242522,-0.0485629253980544434154965,9.77391358614805838556094,0.0102901051964862308429893,0.00792174192709005006718392,-0.00388335989077634880645151,5.43776624501996597160769,1.90449908332124961951592,1.14671059177039147414234,1118.4001740447451993532,1128.02615347827781988599,1117.84367169717779688654,1123.149506939785396753,-420.152351481610708106018,271.916085976960289372073,311.941414777045167738834,202.992738680454522182117,159.557234112123836666797
2.74250000000000015987212,-1.54414945424317195943331,1.48840260827877246541107,-0.525830737259372238412425,-0.00805966700429930175964,0.0226979151284769642415995,0.000699089383104664055176847,-0.00128912773419786715403679,0.00794553971033630859754915,-0.086594688686638957020314,0.996210470890179888847626,0.0508535245910373204236699,-0.0493391683821280957467081,9.77364557417439172581908,0.010629757935465949589271,0.00800011705283672561184183,-0.00395015432067545840116862,5.43779142866079734375262,1.90451734523545423982682,1.1467068669191666785423,1117.28798226807248283876,1128.7522650001237707329,1118.70807941637417570746,1123.61023046842183248373,-507.215022885986286382831,324.25638464001860938879,393.259604166504857403197,176.565198190932392208197,159.554896143035904287899
2.74500000000000010658141,-1.17687460419676215295226,1.27924739056778280499316,-0.590347693607577772567652,-0.0127122775414731156023995,0.0265318241863721632212147,0.000270971590909963868602089,-0.00129947898419282138575415,0.00797068418696700829728652,-0.0865871956295689443328101,0.996210912674366455554775,0.047692968869862517600211,-0.050236380493410989767078,9.77329593703001542337461,0.0109706264267127612949126,0.00807057220981362809231197,-0.00402515460812724774897209,5.43781807275431283699163,1.90453362779014101491271,1.14670274803206240221698,1115.86409893031532192254,1129.64743540147787825845,1119.80996971801027939364,1124.03233293074003995571,-529.450596910976287290396,320.434023640798386622919,395.943225237632987045799,133.760274433282688733016,159.5521707167615659273
2.74750000000000005329071,-0.768447356471743447947631,1.07838501679241649533481,-0.684473156248952663283092,-0.0160887016444145637683594,0.0292733261486492792047276,-0.000272006203526048157947254,-0.00132073315421809135521147,0.00799641924594248973412469,-0.0865824681619934283238749,0.996211093597997643378505,0.0440339099124694224873799,-0.0512050183796461180762982,9.7728914200018266456027,0.0113084043989348584369203,0.00813597458448730818936223,-0.00410742451331067275760445,5.43784757984813271747271,1.90454826074501792909643,1.14669516274592608873206,1114.64072928351765767729,1130.35443511832772855996,1120.68779554256229857856,1124.27903184058823171654,-490.806759472899557295023,264.866940274174510250305,324.235679503642700183264,83.7569597873443569824303,159.549967617297483002403
2.75,-0.27424097402530445144464,0.851033748550983237812773,-0.793989776076691300410459,-0.0181126921235474323823578,0.0313548388813957509824171,-0.00141577002633334219673655,-0.00134161616469330425248374,0.00802071307672062860927298,-0.0865822957452979519166192,0.996210892361124589200472,0.0399070504734901909671407,-0.0520041153885339169082869,9.77246015776287713094916,0.0116384523277266657692586,0.00819910154059969899231763,-0.00419548415929119674488978,5.43787981257926933409408,1.90456177683107252818218,1.14668333582686687854846,1113.41006513295087643201,1130.97177010284872267221,1121.43114811552845822007,1124.45111772967675278778,-540.388863554937984190474,246.883859860696048826867,280.872538632735597730061,72.5004897828072927268295,159.547836943001925646968
2.75249999999999994670929,0.375095616721038527252574,0.545683647851301967257598,-0.895794454161237485578795,-0.0186315859566988754891792,0.0330332860394521171665261,-0.00388527728375207643748968,-0.00135884568778330059972415,0.00805018741187717851159888,-0.0865812578403341165378393,0.996210727074799184954657,0.0352021952403406279685782,-0.0525685538626200904444019,9.77202994742749275758342,0.0119562757628591045944155,0.00826246367018304908591553,-0.00428735551552645796635765,5.43791367781670942349592,1.90457442759348061223079,1.14666835533316202599963,1111.93878496574302516819,1131.58885441763118251401,1122.09215823572594672441,1124.64153428950226043526,-538.125980161078246055695,207.437046282170626909647,196.099255523135610701502,78.3355639920517603513872,159.545366005626789274174
2.75499999999999989341859,0.922241505261894745082429,0.259322600800916847063604,-0.917188700398830492055424,-0.0173656259556937385413189,0.0340261114786971977097529,-0.00696187720864226405187436,-0.0013685471618586279689278,0.00809263434283966250071263,-0.0865747842198706096805694,0.996210934555008975621604,0.0297990239450978133817216,-0.0528288106562408363298111,9.77162815056907518851403,0.0122575778461945818220702,0.00832828771241711680872744,-0.00438134959574231624968021,5.43794833958917678273792,1.90458677505309692534752,1.14665245710405683254862,1110.71943523214554261358,1132.00895533425955363782,1122.41164439314411538362,1124.84279554963700320513,-484.367477368606500931492,154.155217224300599809794,72.1090551999638478264387,98.8855146752505902441044,159.543379911056575792827
2.75749999999999984012788,1.42063015644719237151605,-0.0682172499756776434809424,-0.83455689084872808347626,-0.0140878441372044652113438,0.0347466347517621995666381,-0.0107031495995515198854653,-0.00137744017943972453868473,0.00814893132900327242518213,-0.0865630891791634715648485,0.996211474907419458624247,0.0237426619578635783591736,-0.0529147577208256211789283,9.7712825325893160055557,0.0125382233589907288867638,0.00839863082137262510762366,-0.00447639199779125643990918,5.43798475570401063095005,1.90459843750072876922275,1.14663703793649607298732,1109.51694757890004439105,1132.35963050375266902847,1122.45270351172575828969,1125.13596186287850287044,-472.940966614273634149868,133.080415266195018375583,-35.1149892633633413652205,134.201794251011989445033,159.541471156831903499551
2.76000000000000023092639,1.83835530262883928287465,-0.433050289242905783737569,-0.65271896408841578729465,-0.00921205302501529148251347,0.0349710485489600833575174,-0.0142146379777818576695125,-0.0013911938889379174034977,0.00821329737921163045843986,-0.0865501883609225558524614,0.996212036849553617123831,0.0172178560800162472332886,-0.0529290371018640015687851,9.77102135846060448898243,0.0127943698372756289177721,0.00847519728571293276542242,-0.00457223132962426576791914,5.43802337569199067957015,1.90460920381102449816524,1.14662175208381911239996,1108.35473039907401471282,1132.674357410590573636,1122.23606944682728681073,1125.51380452089210848499,-441.710405169594366725505,118.741503276024729984783,-154.321259068945920489568,167.02962496968902428307,159.539627552934547338737
2.76250000000000017763568,2.12123246691782174622176,-0.836915898310845784990875,-0.360950049908595804737388,-0.00308302387848439444356652,0.0341069694493250780142901,-0.0166369700611194090700273,-0.00140959287674953200920902,0.00827870633325032689864287,-0.0865373293769329809954627,0.996212574435192399491257,0.010434026202933863181066,-0.0528614689194357584289818,9.77087276594904707849309,0.0130228303201441290848361,0.00855904052459996109170071,-0.00466929321073934408548034,5.4380643070923762039115,1.90461912342229489070178,1.14660758524434513994095,1107.30839555305192334345,1132.95333802013283275301,1121.6810972163809765334,1125.97110998772700440895,-407.835717543375324112276,109.687653116636809613738,-326.969937619840209208633,210.201944006353130589559,159.537863576744200599933
2.76500000000000012434498,2.28005745635468981546978,-1.34472161778280119293072,0.0755601032617454204665108,0.00466682517012169222059281,0.0317359771307080332225503,-0.0179856889972433743596358,-0.00142823630359873213722943,0.00833089712971240604899581,-0.0865232783865261811939718,0.996213327745752996733586,0.00374275440019007643588367,-0.0526109832888979889187198,9.77086593489374344301268,0.0132212674129157381486266,0.00865046892125315158850185,-0.0047686696700090800207783,5.43810704418570889373541,1.90462845326203056295356,1.14659521345711779005683,1106.31555181135718157748,1133.22279567617374596011,1120.60121975872812072339,1126.56481424092385168478,-299.159006186079750477802,81.5465715413228338093177,-465.303110584146338624123,219.737629768001312413617,159.535840039374193111144
2.76750000000000007105427,2.26174937245342499991807,-1.76192563539617830237205,0.467477649151819496520233,0.0108613809502077843238688,0.0285596160940760450397402,-0.0176920289333192294611852,-0.00143728676309942487131222,0.00835595438086240115127534,-0.0865124570330563780196087,0.996214049549469904398791,-0.00251452123214337963652554,-0.0519733621567184458922561,9.77102972541718806098743,0.0133883410326633787296169,0.00874917784331352352267253,-0.00487167306754242995792126,5.43815018361458335505176,1.90463897857391817325379,1.1465850390045260187577,1105.81260052212155642337,1133.36107087783943825343,1119.35458166346029429405,1127.06979813656698752311,-112.733341291871184353113,31.9550820335286971385358,-565.135694338244547907379,201.464710181521439835706,159.534232175292260080823
2.77000000000000001776357,2.1031432365274516094189,-2.13364267106748917157688,0.827520567549238528215483,0.0163044294325858790672967,0.0238163117923468059533576,-0.0155621587316927666860833,-0.00143875536693723201329964,0.0083541925834249106813667,-0.0865116242036912119761638,0.996214141469504599335494,-0.00824998642801694215265229,-0.0510004904917386106544264,9.77138940533480848671388,0.0135239522338402098911025,0.00885439430234019435317361,-0.00497883459490429045035675,5.43819260135906556996588,1.90465152420772021457651,1.14657645057614065997598,1105.75188510489783766388,1133.3825710863413860352,1117.77554128703695823788,1127.57213779183143742557,87.999214521734813843068,-14.4809307344988518195805,-754.777252023375467615551,219.255989534808691132639,159.532706406346051153378
2.77249999999999996447286,1.77982042928804573556079,-2.47731988124248081462042,1.15476207099524375010446,0.0217889747904584721305277,0.0161591156523629014829524,-0.010770241353595541577981,-0.00143715971100212580070787,0.00832984521034911898351716,-0.0865237046391162667458019,0.996213304137251398628905,-0.0134468355962539531933686,-0.0497999978575534990588025,9.77196748524017699821798,0.0136291483309355088149317,0.0089648012794160888971895,-0.00509000029525891531378967,5.43823390480226276366693,1.9046662781371912487316,1.14656775667411992003508,1106.25259659473022111342,1133.28866622416694553976,1115.58069540334349767363,1128.16607808424100767297,278.117352668556577555137,-43.7052261517246947164494,-835.511267341389270768559,212.352788142156867934318,159.530970868266507523003
2.77499999999999991118216,1.42190763835453903851658,-2.64864409103966735870017,1.30585784973878982206941,0.0254800866799613674740232,0.0083348327166305122282175,-0.00538160609193238329700515,-0.00143262622625307573138997,0.00829196027028732303432168,-0.0865462863736512488799235,0.996211672692307148579971,-0.0181907791752166092535958,-0.0484016353744746510856523,9.77278252834925353909057,0.0137059361605853073651229,0.00907866305097521954226014,-0.00520424877962815442961064,5.4382738307732161331387,1.90468259796008121398359,1.14655858193351223306422,1107.14247186824059099308,1133.16404495558276721567,1113.5979849503301011282,1128.63390173254219916998,441.340415820250541401037,-37.6954417106852659458127,-797.031748517218716187926,168.000354849940720214363,159.529604019438608020209
2.77749999999999985789145,0.99648540103384108945761,-2.68687552985334132671369,1.32409631104371627863259,0.028215799831962054544654,-0.000168033134216030157967459,8.90041900641002584754213e-06,-0.00142434781385688841864878,0.00824556252385864538179128,-0.0865697785132115982253964,0.996210043890697005686263,-0.0224942860516644804746988,-0.0468090156979583948970713,9.77385048380315879512636,0.0137569602400968438171702,0.00919399992285897457722221,-0.00532008888551998258831244,5.4383127602317617999006,1.90469974627153848523164,1.14654825757298817201502,1108.45929867383142664039,1133.1001890156135232246,1111.59553666075748878939,1129.00607985849069336837,652.234536810557642638742,16.2461318101566511984402,-853.230016717122111913341,113.723338813489647236565,159.528319005816797471198
2.78000000000000024868996,0.433038517256039645619836,-2.60351781226683831604873,1.23388593922476186293125,0.0302758683332444190894339,-0.00934149986620134292758522,0.00444710242195039181373195,-0.00140530893203157916312995,0.0081919801737438541211489,-0.0865877662145589643838406,0.996208976534072920827612,-0.0263143507788399788616118,-0.0448982126806005965580226,9.77518401112360457716477,0.0137850955143263235319617,0.00930894323981358920439,-0.00543563925396928129124552,5.43835181789279431541217,1.90471840414780357875202,1.14653569202686100858557,1110.40364455229359919031,1133.24527561463355596061,1109.3318348667442023725,1129.20251842660968577547,749.725364552609221391322,108.834185001834995887293,-787.054196971932128690241,6.25930241558265620938073,159.526870197373682458419
2.78250000000000019539925,-0.0631232034053505058901479,-2.46870171642575497727989,1.11579525987121730423723,0.0309322029972315115653458,-0.0152332751294423033444625,0.00605454895042192246107371,-0.0013815214605666893080832,0.00813457237386634723907974,-0.0866000571663032431279916,0.996208443966911105782458,-0.0296334526048800117603577,-0.0428030295860256509987707,9.77679131650860000490866,0.0137933171685371298159639,0.00942217928646834484984751,-0.00554838208439265793275874,5.43839208111047334170962,1.90473888682996306265238,1.14651990967763128814738,1112.20792549659472570056,1133.6443599406227349391,1107.66026567589756268717,1129.03737637056860876328,727.912090566648657841142,227.605812430515783262308,-607.585227966923639542074,-156.772181927138888113404,159.525739056791280745529
2.78500000000000014210855,-0.564755978302484362707503,-2.32611911040997476618486,1.00842754895581721008568,0.0304264587058291659238396,-0.0194675533646779252983094,0.00660822118229547738471608,-0.00136060166752151432030538,0.00807530402544291356359274,-0.086606498878596518964379,0.996208426390410961559496,-0.0324133558659879805752269,-0.0406871011981388350231548,9.77867659192220983754851,0.0137848283565825090180024,0.00953288068079651690345244,-0.00565580302078712380403624,5.43843365455785399120714,1.90476114018585729326105,1.146501016393480343325,1114.04320500512676517246,1134.38330467678611057636,1106.29390872690964897629,1128.41865751697400810372,714.501511455925310656312,347.438839515878612473898,-488.729909981804155449936,-326.697159845760040752793,159.524684722490775357073
2.78750000000000008881784,-1.05165254281993125751171,-2.21264984998745006805621,0.93186596202195903781984,0.0288400172250582557953447,-0.0229958690009538953280543,0.0072242439036913465646994,-0.00134614592541976987524754,0.00802330126388275770288327,-0.0866059955466283587499632,0.996208934253791089652452,-0.0347724498726079689348012,-0.0386496203079237238275923,9.78083759831825716446474,0.0137632928422118418210207,0.00964088022225433917411497,-0.00575565452008956670443274,5.43847460763785406356874,1.90478516874262204794377,1.14648035758255728566724,1115.78043305387427608366,1135.38155413820209105324,1105.21661612598859392165,1127.40389057133984351822,643.222010260447063956235,442.132913818532301775122,-356.512139720242316798249,-483.473591347193462297582,159.523691981064160927417
2.79000000000000003552714,-1.49312987148694897854284,-2.15199714600126634778121,0.891210465723072386978743,0.0257788151983396156274875,-0.0265591343964484832840256,0.00841946890554162892528201,-0.00133815978399709077824309,0.00798109133364816904221417,-0.0865979853107588376515125,0.996209991519445670071775,-0.0367178859194950413247227,-0.0367114996096454954122024,9.78326945215121845933481,0.0137326428961916414961397,0.00974692183912029969095059,-0.00584667291859802384229594,5.43851305181853650339008,1.90480994635608502640878,1.14645970795265617070413,1117.25931505642893171171,1136.5939692458787249052,1104.51134802830847547739,1126.00128956023809223552,562.317874289386168129568,545.203984055217688364792,-220.586114633174616983524,-653.633751861766882029769,159.522770524045370166277
2.79249999999999998223643,-1.93198792143264963527827,-2.12908907001294744887332,0.857141547205543585796761,0.0204105298787660184578474,-0.0315916835335941087459233,0.0107945853439725091005297,-0.00133754416617097907603318,0.00794567027856419444420411,-0.0865806412264148728130664,0.996211779960750054563334,-0.0381590105430857362556196,-0.034905342591445169542208,9.78596505166420271848438,0.0136968727390618244532661,0.00985274655318031829243086,-0.00592855404003604386647952,5.43854848228928755560219,1.90483327498933552313076,1.14644208643636780209363,1118.59202242532114723872,1138.10757405847812151478,1104.11368555282274428464,1124.13572181203107902547,403.138346681416294359224,533.786698555479688366177,-69.2896046389265620746301,-658.968277698627844074508,159.521743193547308692359
2.79499999999999992894573,-2.19640865752891256690305,-2.12558020152503468480631,0.813839802838879133872751,0.0148058207575807818795477,-0.0366263600389637386522956,0.0134795908091185426269654,-0.00134732471462101969887637,0.00790307728096815119422924,-0.0865559018106453054164362,0.99621423890661531252988,-0.0387997474842210754442107,-0.0332916738149923799316987,9.78891710635141620855393,0.0136595016913950897258223,0.00996107008316413945758772,-0.00600184504784415963352107,5.43858209175538043211873,1.90485370135165177352121,1.14642736084735274992852,1119.27500678983597026672,1139.26290273865606650361,1104.16490000511385005666,1122.70644817174502350099,184.352535526072017546539,405.477046850691749568796,100.361011682164061653566,-472.567498825093082359672,159.520949950888308421781
2.79749999999999987565502,-2.33432622409669221497097,-2.09956324079801959214819,0.727577957959068655213741,0.00848358493166374849625555,-0.04245445162308362357928,0.016220121740849913205551,-0.00136516948045462840032049,0.00784031639905830371461981,-0.086528544876905519322996,0.996217061508276713333032,-0.0383832388178838579406715,-0.0318336029276543447386061,9.79211468228205283992338,0.0136234463488553933507852,0.0100750701126039975130677,-0.00606729949022278332998459,5.43861511065681124676985,1.90487159450317466991009,1.14641381443906298365221,1119.51378510295148771547,1140.13495929273153706163,1104.61549061123355386371,1121.7728843179056639201,20.434010853431104237643,286.33973927874535547744,288.300458440588613484579,-225.188639790697635589822,159.520219752920468181401
2.80000000000000026645353,-2.34563778495420693914753,-2.0054992539764415759862,0.559251230728814552328743,0.00068293782145174657376846,-0.0495925256957964188941901,0.0188858556282556939998063,-0.00138748630001195999428276,0.0077571083014936238753112,-0.0865013568799699594791264,0.996220009934477013224807,-0.0369133381519100023382407,-0.0304959206805130236817014,9.79554016079336342670558,0.0135911463016609220660902,0.0101978468551867217789519,-0.00612513543690092459453878,5.43864844042094031095758,1.90488772754909474471674,1.14640073787154772588792,1119.37717684410313268017,1140.69460143504988991481,1105.60640229731689032633,1121.58050497279145929497,-98.2716489858309643068424,108.399926872099925390103,434.96245294569934003448,111.399052338576197485054,159.519414802897784966262
2.80250000000000021316282,-2.23342876146106128487645,-1.8609620246394333875628,0.365078815351055352422804,-0.00541488796229763064138396,-0.0551204580566498625326943,0.0204603688790191973190247,-0.00141362249926660007992574,0.00765126241039011927708158,-0.0864759928917095549438798,0.996222955341336979806499,-0.0343615864946743843066912,-0.0293018513144371051115655,9.79917350171860945806657,0.0135644174426809809019812,0.0103321087477858519071416,-0.00617521609329354462941675,5.4386832130757065684179,1.90490275852465407169234,1.14638770356057784205461,1119.02242685802229971159,1140.67695892709207328153,1106.79030287596219750412,1122.32987957959858249524,-161.080899671200114653402,-116.302034275443219257795,542.405406049704424731317,480.359341778477073603426,159.518802891821138700834
2.80500000000000015987212,-2.015817040117183100989,-1.64784975120821908234348,0.124528916323298544099885,-0.0107204688446724712147518,-0.0600685292556265848507024,0.0213920636525735084754185,-0.00144633532734092301250128,0.00753096673295490081495585,-0.0864516173587718539383928,0.99622589972568642568973,-0.0309054345379991546316489,-0.0283620579117287545389825,9.80298905710460388718275,0.0135448093998392360415295,0.0104799060194051500000123,-0.00621660741350517961206767,5.43871962120311458477318,1.90491714892908037271013,1.14637497288766576630792,1118.57177234574714930204,1140.11309126367268618196,1108.3184293275653544697,1123.98230168168379350391,-188.941019594453280205926,-371.541715318252215638495,743.750841014359480141138,875.097009184828948491486,159.518252232273596291634
2.80750000000000010658141,-1.66621926747580917371749,-1.33087036247657763965435,-0.197904135165815842078985,-0.0162365203276761127515471,-0.065033495820675898957397,0.0217450757986510645469735,-0.00149088290744259287061435,0.00740852761478317557719553,-0.086424968605376378816274,0.996229026932213046485742,-0.02680698563291639135997,-0.0278451312520342011969099,9.80695746731695905396009,0.0135337929945309083656912,0.0106424580331339665301149,-0.00624771229085500662964181,5.43875773391560013436674,1.90493076055592780448933,1.14636285120482184218815,1118.07772176005005348998,1138.81925035050085170951,1110.50905708103391589248,1126.70536462552263401449,-158.333425438244120186937,-565.707873268832599933376,854.66673841144256584812,1053.57407771800785667438,159.517663376155894638941
2.81000000000000005329071,-1.32872245028017466061954,-1.03858781568099156622509,-0.474982871110882498566497,-0.0198398715423166067950422,-0.0679731320868986188532546,0.0212616111006796587590273,-0.00154737366797087338293748,0.00729442791023233831626538,-0.0863929559032497462744971,0.996232533367545802782672,-0.0223093954591315202229396,-0.0278167869056305458452805,9.81104688912686739854507,0.0135329107593437237416767,0.010819993933865078988843,-0.00626650731640667965627323,5.43879654457067385209257,1.90494401185794748343483,1.14635045436538396401716,1117.78010521855594561202,1137.28455189732858343632,1112.59176301962247634947,1129.25017207027372023731,-89.9004060830085194311323,-682.424823004399513592944,873.787681357880956056761,985.338328299051795511332,159.517234064253500491759
2.8125,-0.977641292753227197920296,-0.749962448839779138864969,-0.731656844602837308499943,-0.0220881209686797433389138,-0.0696529465556312704643815,0.019820862946788697644962,-0.00160189894786369902562884,0.00719001392575558360975574,-0.0863592371680167725234156,0.996236114526896088250396,-0.01750863780329567354066,-0.0280526568130577379223123,9.81522430064125650517326,0.0135437295695280089657953,0.0110117087459024147466646,-0.00627091935912652432422165,5.43883458527187269027081,1.90495860520737725352092,1.14633626755081019510385,1117.62821972963502048515,1135.40712623547892690112,1114.87799548782322744955,1131.63205626701778783172,-41.1833300496263916556927,-779.355069852334281677031,937.21714519844863389153,867.028149417201689175272,159.516870757129225921744
2.81499999999999994670929,-0.638227589146167395561804,-0.48716878280657183175606,-0.947516084669822400421424,-0.0233539837204522586489031,-0.0705177022146371568211976,0.0175270622743007413457672,-0.00164042923168664870475775,0.00708850879925614421606106,-0.0863309408590330756849696,0.99623922470993020450436,-0.0123482961745310371171058,-0.0283088599503674674673359,9.81945637619390154782195,0.0135678895760519002688937,0.0112158666230408755187797,-0.00625871624587859796962075,5.43887180512736545523467,1.90497538084728934570933,1.14631836574595480371386,1117.57418856830781805911,1133.38777654806699501933,1117.27784874561461947451,1133.58531281735963602841,-10.3247216992715422634319,-801.068921790619015155244,973.956573567350346820604,631.915598715718033417943,159.516563820732017120463
2.81749999999999989341859,-0.331819381791215839427878,-0.275155632515707571084107,-1.08756682590996756054835,-0.0237611933653564810775549,-0.0707359248608468021979334,0.0141954305285775760070432,-0.00165737389433806905914004,0.00699025994167997398454073,-0.0863112426271055860338421,0.996241593466370312093261,-0.00690156740129009571571572,-0.0285127905809971736450503,9.8237072722045546413483,0.0136072921935606327981105,0.0114298893051900801731691,-0.00622730192927002657032887,5.43890763401678345445589,1.90499455131707584598644,1.14629707519610790633635,1117.57659612113866387517,1131.40178162652591709048,1119.7477783556598751602,1134.79163426059631092357,-4.78627137636077559790238,-815.356787329136864173051,1087.08979695418338451418,338.955894517592184911337,159.516326408999873365246
2.81999999999999984012788,-0.0128688746372579293497651,-0.092103413188706462211286,-1.14608106925309094492604,-0.0233997533707788231416291,-0.0706149098798150437472643,0.00943179202647731300401812,-0.00165435968190095843664833,0.00689023446670597537050407,-0.0862978612544214457313885,0.996243449821717752534767,-0.00112756363728887254449518,-0.0287167862595917380841293,9.8279425497267425271275,0.0136637577837584057310893,0.0116505228825449502760847,-0.00617462326488823869119482,5.43894215620414467338151,1.90501610397347187486616,1.14627253246430393929245,1117.55025721142601469182,1129.31099261142139766889,1122.71329773038542043651,1135.2800922899475608574,-28.0221579112075431794437,-689.460637641831340260978,1076.66138607575703645125,32.8283715638440867223835,159.516123314388778453576
2.82250000000000023092639,0.214601668985367921571594,9.46048193560857371116682e-05,-1.10298350033279324300395,-0.0225496075969764779578508,-0.0703822082849919206104516,0.00561161454212167221805574,-0.00163616370022378536212837,0.006788474954239624888086,-0.0862901573823830342346852,0.996244843219830422675898,0.00491772545815080674991293,-0.0290358855364108714436355,9.83212817171699171581167,0.0137387326247275110696622,0.0118742357903894469456363,-0.00609946967735545183403323,5.43897542330748251515615,1.90503989032011444848536,1.146245241826624239323,1117.43648533158261670906,1127.95447843831652789959,1125.13108528603902414034,1134.95577611841554244165,-78.720622195163883816349,-444.419572733947461529169,941.404774020411537094333,-241.356065183419644881724,159.516022857458551698073
2.82500000000000017763568,0.416196905027040098268287,0.0358670835551414476927157,-0.984165431725014583363986,-0.0215055993885155290190614,-0.0701531014128860958001255,0.00273617496739951646805844,-0.00160002142664413720199446,0.00668734216030758728266381,-0.0862907605838233310313612,0.99624553707777385724853,0.0111182909941857643865148,-0.0294328194582067041717988,9.83623242892765681233413,0.0138329492827241554847584,0.0120973648998014739891493,-0.00600223917666373694979054,5.43900771201503907548158,1.90506585221224655768424,1.1462174902427373357483,1117.15665410045016869844,1127.08889474775151029462,1127.42032160048779587669,1134.07331196403038120479,-173.298514821412084074836,-266.294125331984332660795,955.485505212866314650455,-455.363169106122484208754,159.515994052348446530232
2.82750000000000012434498,0.653692276345331779729975,0.0262336620357740343822961,-0.792709229588478336836488,-0.0202674170666793766748537,-0.0699791755529932391066694,0.000490967762525983575545852,-0.00155206183365927874104329,0.00659373146553712211753728,-0.0863024657094181579797265,0.996245235415357033303962,0.0172840898890445071600652,-0.030042929634234230573675,9.84022860826180156834653,0.0139462584452097557857764,0.0123164533310906616075941,-0.00588476918206213336220989,5.43904037201287948732897,1.90509313393834389671611,1.14619228242225013048028,1116.56999275747557476279,1126.62300781165663465799,1129.90851281210325396387,1132.67896027288497862173,-260.375381984846285376989,-84.1869019326640852796118,849.130342794269267869822,-521.16485552766084765608,159.516041993846329205553
2.83000000000000007105427,0.866667189496128309578182,-0.0147283302018293826146644,-0.621573182717485850368178,-0.0192612994001766513196827,-0.0699715032197765207655493,-0.000604019419168397926796221,-0.00149915484943567147921306,0.00651306914809584094894213,-0.0863243300354427506304589,0.996243981344768547714352,0.0232564973002527403123096,-0.0310041883996763079078818,9.84409732423394423506124,0.014077539060341438467705,0.0125281920135796673992923,-0.00575055058663965536214224,5.43907445707369507914564,1.90512084541015314087531,1.14617186009689242531806,1115.85477719052596512483,1126.66796023808819882106,1131.665973314459051835,1131.46748768639213267306,-328.999712209004144369828,91.4583435131154516284369,610.895985800711400770524,-447.475489785720583313378,159.516150053208718873066
2.83250000000000001776357,1.10892092846239709302836,-0.0766160192495755204555863,-0.465775949160421087746897,-0.0181117325222052011346463,-0.07016860666196349238799,-0.00125994545894406000108301,-0.00145018671852188110911464,0.00644082627604516261277112,-0.0863491958862370595495506,0.996242423037125623963561,0.0290783934013470052315498,-0.0324682213638040131908902,9.84782888315598725625932,0.0142247456510536749579865,0.0127294126621225155149286,-0.00560445561888958145024819,5.43911196083843861970308,1.90514768098162368126225,1.14615712845891626336936,1114.92499419643058899965,1127.0802995292222021817,1132.96299274110674559779,1130.44158282395642345364,-442.643450575415386083478,245.101815751109597840696,435.436538290068881451589,-371.184761417961169627233,159.516327624959302511343
2.83499999999999996447286,1.42806587499060233525938,-0.160850448970164872086741,-0.315296246069190599925491,-0.0158232992864677443622945,-0.0707112225949359379795212,-0.00187590585143890048111515,-0.0014084715653344167651112,0.00636192744902479030005837,-0.0863716125387086336440134,0.996241138368014311765819,0.0349934039894265885850544,-0.0344513166660156827658668,9.85142299645406005481618,0.0143850620163642299587092,0.0129171770077321518971347,-0.00545221429912152739244435,5.4391551160203537307325,1.90517377094482220911686,1.14614748514228947939841,1113.64155993764893537445,1127.89346931684372066229,1133.84315600590934991487,1129.6115638793023663311,-479.40336084526393278793,336.600325777870125421032,194.101787871254202855198,-226.415545061632030865439,159.516619460462720780924
2.83749999999999991118216,1.69718731778042974944753,-0.230827173104331734299066,-0.226668819552424682939318,-0.0126005011683782367631901,-0.0714429942563725856041756,-0.00234673501154737543586415,-0.00136935465408388940856954,0.0062696909870255026347996,-0.0863929720730434308473278,0.996240066086910069920179,0.0410703755561346375846377,-0.0368201276721672743352798,9.85488592136630714435341,0.0145555974514111566980867,0.0130888758989475256083734,-0.00529915024653746652427699,5.4392036463845894189717,1.90520075597512983378579,1.14614143537046575538341,1112.52797739220432049478,1128.76330115811151699745,1133.93350168046299586422,1129.30950509864828745776,-423.917282488364378423285,372.353598402613670259598,-105.54723849700391724582,-48.9721313068468120377474,159.516927042905024336505
2.83999999999999985789145,1.93181006005535804703754,-0.294189165824583931385661,-0.178823108865415719703762,-0.0078966057927415834322149,-0.072397496958417309476097,-0.00265274693195467238526764,-0.0013355915617627377948301,0.00617041758295297417674652,-0.086418034985994179875135,0.996238755217807359088056,0.0471395782409322755546199,-0.0396022076406635434309145,9.85823040651400539502447,0.0147341946821177380982926,0.0132423994502887405061431,-0.00514905290582062108439843,5.43925490973947400874522,1.90522968871358511222525,1.14613734082037255213038,1111.52197352520715867286,1129.7552373088567492232,1133.31541981342434155522,1129.3667032227681374934,-357.774279505541414891923,406.125398083777213287249,-359.212927158908598812559,59.7383452681656876848137,159.517299913836694713609
2.84250000000000024868996,2.10821729513133515609979,-0.35102639296124632517504,-0.164554376744045438574204,-0.00239414544353958860453679,-0.0733427848125193931894117,-0.00266293685037777110025115,-0.00131181270651129899124099,0.00607425076402088887778108,-0.0864511704551611109836884,0.996236752795140012572972,0.0529625830052350282661777,-0.0428632858394540142144002,9.86147548110739435855976,0.0149198990932321549907069,0.0133761954365972327712919,-0.00500419238230747319418068,5.43930556727127889615758,1.90526122231575989474095,1.1461333993569398082002,1110.73910599467649262806,1130.79392814853054005653,1132.13743704466833150946,1129.6081968249891360756,-227.181299377055552213278,412.445030209182164071535,-581.621547228639315108012,100.613108626196236627948,159.51772572451918108527
2.84500000000000019539925,2.18646917253285177906719,-0.402400190011567793213487,-0.186071664444230899793098,0.00355567332048258542831487,-0.0739362251014906157742246,-0.00238559796857132182246186,-0.00130232385497240621928527,0.00598899501875701026354371,-0.0864926936900313747536018,0.996233921867136440475576,0.0583497181749877691370187,-0.0466553058335064801953607,9.86464510012322293164289,0.0151130442467280745599822,0.0134894248079850832128246,-0.00486545711946585312385194,5.43935383770854397056382,1.9052944287463295935936,1.14612801901050431752083,1110.38606702832180417317,1131.81746245990279930993,1130.40731207728094886988,1129.86976876589915264049,-23.7315732879783851672073,425.503086591070314170793,-833.501492836030138278147,65.5278743564863646042795,159.518213858445079722514
2.84750000000000014210855,2.14576962864877440750888,-0.45901247766833319641222,-0.236229518897929563481242,0.0107858205503509815836871,-0.0744635141422585744575002,-0.00216958492774950960357838,-0.00131013417745949167086961,0.0059161611068339866117971,-0.0865420923182375623206042,0.996230220182204861956166,0.0632356297926998101033291,-0.0509922879920903029948853,9.86776603274615027316941,0.0153148117516978179292186,0.0135822575199296049358599,-0.0047326693726026155401021,5.43939859660228108850788,1.90532782430755731617467,1.14611987910986612426711,1110.62044812823660322465,1132.92144358148584615265,1127.9699295804882694938,1129.9358361967715609353,205.914273335297195899329,367.019234835205338640662,-900.09259561554347328638,-47.5476219268795077255163,159.518869631606747816477
2.85000000000000008881784,1.99596658681626260012365,-0.496481124623747938073848,-0.276137757301776420870709,0.0165084017372137265011744,-0.0751148186828404645920543,-0.00254876024872609718494032,-0.00133383284025471765717186,0.0058498724858517623520493,-0.0865956382759796028381061,0.996225951151411881490105,0.0676954968796870393266119,-0.0557887414648556290153181,9.87086538889505149541037,0.0155267654548198220931798,0.0136557879755992376408225,-0.00460507207988629981704198,5.43943935096397712669614,1.90536001662049958582656,1.1461096927634017994535,1111.41563839499826826795,1133.65255863407878678117,1125.90684909920332756883,1129.63203065626476018224,433.21829663092114515166,233.614316188236870175388,-761.832510743095440375328,-211.359255987103978213781,159.519472905186177058567
2.85250000000000003552714,1.73485376492172016504867,-0.50818076576734316773809,-0.280086194950682654258856,0.0215772556864209583138425,-0.0760495565450069882507123,-0.00381879973216342179578864,-0.0013656845630011221065514,0.0057836735319391494383745,-0.086645329681409449795737,0.996221892913394468926924,0.0718080102147850840577092,-0.0608352843588539776709112,9.87396802704822285079445,0.0157503396203585582791007,0.0137117827362340325564327,-0.00448157555158583409404827,5.43947708425180564972834,1.90538978826953009360068,1.14609798584986810610076,1112.78653961139116290724,1134.08951516242700563453,1124.16076702677287357801,1128.87903991683606363949,697.390454817665499831492,106.85277076195461631869,-622.521063472745140643383,-421.758854971640062103688,159.520133211334410816562
2.85499999999999998223643,1.31810045640973716452038,-0.466309610082659142804573,-0.208034923128362414512793,0.0267801587389651235548982,-0.0776882989015089814310855,-0.00626288624368789674512481,-0.00139313101628317156932546,0.00571444095138095523728206,-0.0866849973285552244384178,0.996218665421526927694629,0.0755811129886179988712769,-0.0658355833610559659785366,9.87709473353766931325026,0.0159861561756007505841204,0.0137525074366031795775056,-0.00436091386369673317258133,5.43951353017530703226612,1.90541689372884071040914,1.14608633434537843243106,1114.90259066908652130223,1134.18682248788854849408,1122.79424378183966837241,1127.52323638140660477802,811.870444840650634432677,-41.3355786407928178505244,-342.276119730293430620804,-544.909908176862472828361,159.520989190035606952733
2.85749999999999992894573,0.912374872057518104817575,-0.365147913269416257708855,-0.0728006001231546323593236,0.0301988490766114218988303,-0.0796457569813847493511716,-0.00852690113891692996750393,-0.00141211541451145426891156,0.00563664617888495061981402,-0.0867117586881199220449901,0.996216591186697142390472,0.079088476922810929670149,-0.0706592561821686310219448,9.88026068713044303137849,0.0162335863501816383969167,0.013780446780668219319832,-0.00424166543887417521463412,5.43955151171349182703807,1.90544175567340690058415,1.14607587171191105390733,1116.84589183559432967741,1133.88283726922304595064,1122.4493864281214428047,1126.15449037595180925564,756.586173177099908571108,-196.944735245465039952251,44.9638410263115062548422,-552.626628539986086252611,159.521753753471102754702
2.85999999999999987565502,0.490675374205651659842431,-0.181233880635593896935021,0.125770472377250058793052,0.0322115888831332880526404,-0.081626066807356553733932,-0.00975905795539397206972421,-0.00142091179491643298735126,0.00554572935940172290214534,-0.0867213270583179068884405,0.996216097569114111820454,0.0823936054998509331825929,-0.0752269419977832920487515,9.88347360918214157265993,0.0164909126003437052354617,0.0137977171494179182836826,-0.00412225087042657634822662,5.43959328209325576608535,1.90546487139507925157034,1.14606733593904408508024,1118.68552153497194012743,1133.20209881166124432639,1123.01906298697122110752,1124.76010323870673346391,721.723768460921178302669,-365.428780781233285779308,445.719827979216404401086,-568.083765967601607371762,159.522569327441459563488
2.86250000000000026645353,0.0292044535735633409290202,0.127416641981447642528735,0.386633263785489011965524,0.0322687626997380724858111,-0.0827620684108022752756284,-0.0089250290824407305795285,-0.00142426734112965002951312,0.00544949127090984392074446,-0.0867147891340916826541374,0.996217052914380341022138,0.0853334388919134156914481,-0.0796109803121256842661779,9.88673184438690455522192,0.0167555593976963443370032,0.013806084865734435246365,-0.004000243881046467234186,5.43963921832843588788364,1.90548729384004489340043,1.14606013965976982760253,1120.45451067789917942719,1132.05569336531675617152,1124.67798556801767517754,1123.31407154611360965646,539.331292359438521089032,-451.261719687696768232854,735.555880390616380282154,-463.200338585707527272461,159.52360434894191598687
2.86500000000000021316282,-0.273490475278851064011576,0.436799513364639346857388,0.577357712785660281973321,0.0304606784613362692459848,-0.0822471889415951479263001,-0.0066111379153109038966929,-0.0014295882496812588238061,0.00535965093919051061011061,-0.0866967615081681575173178,0.996218987203441375122281,0.0876786586229090642019557,-0.0839457015779350446127438,9.8900239224824169070871,0.017024565107812396347331,0.0138067808754146429534027,-0.00387254270069684655014575,5.43968813489645697245578,1.90550976723259735123861,1.14605371866981231576688,1121.38217799676931463182,1130.94579021322260814486,1126.69684238892455141468,1122.44410154577803950815,234.09079915564279872342,-442.702490251995527614781,876.301835233762631105492,-258.764009797829260151047,159.524511810448785809058
2.86750000000000015987212,-0.455533115171137814591873,0.767029886355871326486522,0.696974625383206203288466,0.027913153380230069228185,-0.0802192974799054575596458,-0.00374859762891438475992945,-0.00143666754515166792717518,0.00527608509456296143058651,-0.0866749381081937247950364,0.99622123113854454956595,0.089427167557001141506845,-0.0881974813500709109437281,9.89332902392409252456673,0.0172949125046091001234316,0.0138004374502944185398867,-0.00373606085537546471833648,5.43973868031775520393012,1.90553296869609734009998,1.14604824101727387208882,1121.6249646736773684097,1129.84218091405682571349,1129.05949474418639510986,1122.02025149712449092476,-16.2149507633788552141141,-416.503130821920194648555,945.676193451774565801315,-92.6687716240414118828994,159.525463443947700170611
2.87000000000000010658141,-0.530748880746352957871181,1.09195784524622996336518,0.740759201095631980571454,0.0254425098548851404134385,-0.0773429274887335177490755,-0.000949320127505661327631248,-0.00144087892312119063634168,0.00518858904200022487407384,-0.0866601623521760233703759,0.996222900499880381630646,0.0907755224880101574402858,-0.0922299144253006936144956,9.89661661942337111952384,0.0175637930337345302134189,0.0137872545870921393157404,-0.00358755033650910975379089,5.43978981857558885337767,1.90555745524635522514245,1.14604130849816954196285,1121.30110324295242207882,1128.86327455911305150948,1131.42522335618332363083,1121.98075768765784232528,-243.815004761205017302927,-338.467152073560953340348,878.799610314600272431562,68.2362605651647697868611,159.526449785654392599099
2.87250000000000005329071,-0.491247548821726165435564,1.3925189411257867799776,0.691061843798694508400615,0.0233540416703020142774605,-0.0741195200865080727758993,0.00160412835245698137329184,-0.00143624111876659247416521,0.00508787530022093616860479,-0.0866561780645173779236146,0.99622372590282692872421,0.0919070732404385637437372,-0.0958833214864407146205139,9.8998463990405305423792,0.0178290225094757046053751,0.0137668604018818929030088,-0.00342325989946636521574219,5.43984034713650999037782,1.90558348255816167871046,1.14603055205718007414362,1120.40588964987136932905,1128.14984515368905704236,1133.45349279575930268038,1122.36143279995030752616,-473.988013975405124256213,-232.886874980118108169336,740.882787115985934178752,242.83865298812605715284,159.527475565567698367886
2.875,-0.349790149154262541841831,1.71036243691293310398294,0.53926254881959700959726,0.0216458108813441171824898,-0.069945970676429602974622,0.0042905839934008821109912,-0.0014199420019982845597023,0.00497707410112918028494144,-0.0866612543441972332791678,0.996223837408961365724736,0.0927723255822440473483681,-0.0990831925129384283312817,9.90296863638292101938987,0.0180889264374722545658525,0.0137385960573554680858033,-0.00323883046334283745612548,5.43988881676415481081222,1.90561023638364024357372,1.14601514302711926518441,1118.93116317307544704818,1127.69884018421248583763,1135.12963729176317428937,1123.19495095259844674729,-559.107174095118466539134,-91.4270441245681837472148,453.706430168504653011041,347.974903231768735167861,159.528748854649506938586
2.87749999999999994670929,-0.190601438857141397553718,1.92882546519134301377107,0.358891975828319165220393,0.0211038683731733338333481,-0.0658500951642423254517311,0.00595236091035619783312649,-0.00138943991119399451461547,0.00485402391272488076268132,-0.0866739559922351660015138,0.996223363463736077960675,0.0934329571280132359367698,-0.101751940082610986548772,9.90592647187827424204443,0.0183417535932913003393629,0.0137018314925873678500334,-0.00303070750105676259278376,5.43993657428082499905031,1.90563764706780935931363,1.14599620025075354945443,1117.61035377939583668194,1127.69270993306622585806,1135.72202494660177762853,1124.10130731610911425378,-487.076608158496526357339,71.2779477862128914011919,58.4646936380535109378798,379.654313295176393694419,159.529842768375118566837
2.87999999999999989341859,-0.0349320619211489352684552,2.08260591035727760100826,0.160852529746706079949448,0.0215216952153179028051078,-0.0606684745651958345913357,0.00636289800584072511718814,-0.00134126100817677962502572,0.00472187246341340162436584,-0.0866940930279091886978549,0.996222301894310602321525,0.0938502360332147123056501,-0.103803161033959187586895,9.90865804910662895110818,0.0185854263448539704095541,0.0136561052919715614911711,-0.00279643413332313463606771,5.43998500100711801508169,1.90566607134409804480413,1.14597639257175898386265,1116.49578013228301642812,1128.05522992314354269183,1135.42196075995343562681,1125.09322251907428835693,-381.608632089645595897309,226.110322004938382178807,-313.284458257346443588176,424.968503417185218040686,159.530967728203762590056
2.88249999999999984012788,0.102591325806185906799328,2.1751008887755718390622,-0.0492074974657758235085936,0.0229601942561090538452717,-0.0533728113811819254719282,0.00528577562863215711513876,-0.00127926336257378771808779,0.00458662334088989157715455,-0.0867208429896320215357619,0.996220686126318422104475,0.0939468268746172646688208,-0.105300822916005176743681,9.91109850929715463507819,0.0188174517085037060204478,0.0136012379963639205848747,-0.00253495097898059429733508,5.44003630139048333091978,1.90569472747325585615386,1.14595784853729543151246,1115.7023106189476493455,1128.8232615430908936105,1134.15560265531507866399,1126.22614983319499515346,-168.703134200939047104839,314.095705780779724136664,-576.95333841498461424635,385.103536254038260722155,159.53234989802007248727
2.88500000000000023092639,0.155781417595919263741067,2.17264188635760335799318,-0.174988908921463154344522,0.0246217861810449252513155,-0.0470720144629799205904241,0.00372312178287391264130957,-0.00121242299215722063900069,0.00445655051949578155656706,-0.0867494633735637760141302,0.996218879170595483785178,0.0936134598052941330204035,-0.106415145927882898169159,9.91318327274922594938289,0.0190351551869289113694261,0.0135373118954266510177709,-0.00224674294833008885916015,5.44009128944833086904964,1.9057222736036800725401,1.14594236839734131550017,1115.65226446127826420707,1129.62570845204754732549,1132.53719406787831758265,1127.01874020034460954776,122.519123974317068359596,319.790041222473746529431,-706.237547048520013959205,265.43705055685705929136,159.533525772392437147573
2.88750000000000017763568,0.141681169590505834365857,2.10196722049551176780824,-0.23798736524516211909841,0.0260957226015062319912641,-0.0412900198525351647127479,0.00228269156296448611290217,-0.00115454630447723639342927,0.00433869759347381249436904,-0.0867771764553659091800952,0.996217079129463223274854,0.0927769792024713962907967,-0.107410779238896345044729,9.91485136774347886046144,0.0192358862489631354808495,0.0134649056334219165836918,-0.00193378329664656723602123,5.44014976543048511814504,1.90574807810578739086793,1.14592980580400083390202,1116.31490623881927604089,1130.42221174920337034564,1130.62441492007224042027,1127.5533350859793699783,376.019629058972725488275,290.099761419930302963621,-770.553009559960628394037,160.372850329262064406066,159.534723181967422078742
2.89000000000000012434498,0.0848495736798507982356909,1.99704427712329990463047,-0.254564881541046894586344,0.0269534514063269718675553,-0.0362703505666123748873986,0.00124528944995931580182191,-0.00111696911153283395812252,0.004237471270872585245304,-0.086800086804665430029182,0.996215599684642794109379,0.0914140842720647939234624,-0.108500658401664173968726,9.91604938712076666718076,0.0194175793938815878514337,0.0133848511637834829968163,-0.00159944243550722941908659,5.44021105640526858593375,1.90577239908889151109861,1.14591995584707584399098,1117.5323626065730877599,1131.07620725914716786065,1128.68442902007859629521,1127.82060445199090281676,589.399760112168110026687,199.078510684925873874818,-740.139701818013577394595,35.9337436230824494032277,159.535935779810046142302
2.89250000000000007105427,0.00505852815954410672816266,1.88386454365016042800107,-0.232496492905168300469043,0.0269186732274867557279663,-0.0323293256692784025663201,0.000768522090513223759232486,-0.00109431735393977790961328,0.00414745284748628886828392,-0.0868144807854720618189859,0.996214790512549908108042,0.0896673902643981557414321,-0.109552325744924294870231,9.91673618326380079679438,0.019579144402059326518506,0.0132981280691328862531009,-0.00124879941057798120838951,5.44027426337762332053671,1.90579591650366442223685,1.14591285393959818605936,1119.26190503938005349482,1131.41760430262797854084,1126.92371641098225154565,1127.73300380409477838839,816.580077170573645162222,57.1515873276906276601039,-698.413429405142210271151,-119.342193185096036245341,159.537163339569843856225
2.89500000000000001776357,-0.0770047687871717734253707,1.77476824050974735236252,-0.18626165159183549757671,0.0260767142802815314606146,-0.0283962109439732240945276,0.000736801352045110330077349,-0.00107675391693854804846253,0.00406285958443076272716965,-0.0868174762947920702904625,0.996214937470091377313963,0.0876778938725904233297825,-0.110346291312700461872964,9.91688377624325134718219,0.0197208047958517262987499,0.0132058982764568060008781,-0.000887675282263327824344712,5.44033819429832288250282,1.90581917715498461163293,1.14590792740102376257028,1121.61526299242586901528,1131.36196519578561492381,1125.19236187305295970873,1127.22389348606543535425,856.027584180146845937998,-97.7694697503941796412619,-560.572805035793066963379,-245.775153360960530335433,159.538649213545710381368
2.89749999999999996447286,-0.109945413661005006455973,1.72019289428269961383933,-0.14530489398971954684292,0.0250121139504537633169168,-0.0252092552683865489537851,0.000988759096477415111436926,-0.00105406342549469920176486,0.00398671174307538810077656,-0.0868094149232388617720702,0.996216009627360343792191,0.0854093130406010370148095,-0.110672757095912482894207,9.91647830056599310921683,0.0198441857463254843485512,0.0131096034131099811737009,-0.000521898140991335491960246,5.44040095491302277963541,1.90584208565111423716587,1.14590561521188427640539,1123.54204296028069620661,1130.92875695387601808761,1124.12085238580334589642,1126.50412803729000188468,706.18501963928474651766,-234.518311850529698858736,-352.515319095489985556924,-331.635497801296651232406,159.53989470930127936299
2.89999999999999991118216,-0.0896984115306521112565008,1.70281255472821113627901,-0.109004423609321277055528,0.0240421485452632366364156,-0.0216175184772303269342686,0.00122196841731844968795273,-0.00102475871110506953909347,0.00392106638700254889196017,-0.0867922730916865364791946,0.99621782717082596469993,0.0828550638594490879151877,-0.110495161140057807092063,9.91552021580382181298319,0.0199522360450400601528109,0.0130108780277321603446872,-0.000157257354946680502454093,5.44046099254617221419039,1.90586417600278368311706,1.14590604666717643667084,1125.14618809062221771455,1130.18937363653299144062,1123.4297852775755472976,1125.56571599705898734101,588.16846521109596324095,-356.689235033771524285839,-227.558593839835651806425,-435.298688853354349248548,159.541143540937639500044
2.90249999999999985789145,-0.00144651991785185729533225,1.70896037677644141439259,-0.0666763459843020683814885,0.0234100432030488504742127,-0.0168199409355310677827156,0.00111207530403076510286398,-0.000989824721986528547473805,0.00387011938200860355907551,-0.0867656792829602369065967,0.996220406296096427922748,0.0799646771842701525878638,-0.109832204788701287556663,9.91402525655237809587561,0.0200490116113364452710144,0.0129112588403205129361506,0.000200738926130590079367766,5.44051701267851317567192,1.90588567982237799824929,1.14590889125281925053912,1126.48288528633611349505,1129.14531077870719855127,1122.98305941660419193795,1124.32763459302327646583,380.716762188350685391924,-376.488129005176290320378,-110.900440341167055180449,-448.633461053411053853779,159.542640918335337119061
2.90500000000000024868996,0.119189170925314336102474,1.72113064928417247578807,-0.0248036153874451777145982,0.023418591376243708818139,-0.0125724007518379417985832,0.00073997019114246801504281,-0.000953912231183537927259319,0.00383710615777447085553153,-0.0867335657730062825621076,0.996223390945315201427945,0.0767070917869025203916777,-0.108775798616131347262836,9.91202414851289681507751,0.0201389730288656747247966,0.012812291599385142171208,0.000546988155772728580107656,5.44056894494652709681759,1.90590695989373593022265,1.14591239976565306690759,1127.04977190156409960764,1128.30693299150698294397,1122.8752830758696745761,1123.32254869179178058403,120.566522494292300393681,-295.821112485035030204017,-0.563115287877697712204395,-366.248031124244164402626,159.543883877223180434157
2.90750000000000019539925,0.277006403659388389382201,1.72317728611034093333387,0.0317948452279608745341122,0.0239001536874943708299579,-0.00817988107935780153767702,0.000328018948528567501256997,-0.000920938361799135407625982,0.00382759334738964245373194,-0.0867028225217304632232995,0.996226161070660976015745,0.072997979488944070292078,-0.107409872189271449194337,9.90956202549463327500234,0.020226388646048462649496,0.0127153444806979206566089,0.000876921107578455165734721,5.4406167349325764703849,1.90592837661390768211334,1.14591569688910066560084,1127.08571789880761571112,1127.66620521628192364005,1122.98024384016480325954,1122.49639443740193200938,-81.9799760117820568439129,-213.932057924835135054309,83.2825256253745038748093,-288.745002083584722640808,159.545117051629432580739
2.91000000000000014210855,0.494490598387402502389421,1.6984684116506767459498,0.118704049001177869282486,0.0248306536706866948227557,-0.00309023488574117080954218,-9.57454379431014939512597e-06,-0.000885917240404190541210039,0.00384253728105896042929746,-0.0866792588448449946580965,0.996228215101399472430899,0.068823143489278260087616,-0.105637243253338744541914,9.9066981436057108822979,0.020314799466392908372514,0.0126213970680051044970238,0.00118597184562894302807534,5.4406616977902020337865,1.90595070825010926007792,1.14592037949437219879201,1126.6398720215051980631,1127.23727270188283000607,1123.29169570399653821369,1121.87882368137388766627,-223.672535805876805170556,-96.7177763434413151344415,136.749786676549064168285,-143.587734397445615286415,159.546579831814995031891
2.91250000000000008881784,0.687310852035243891045013,1.64717779773965466993957,0.202144126121622802472189,0.0259035898860128753484755,0.00090954100183187128192408,-4.94025117433514763197987e-05,-0.000841015445412871161245949,0.00387691597035133214688152,-0.086664424144783494541322,0.996229446911877536408042,0.0642769028175289580673279,-0.103296946758467844684759,9.90350326799207714145723,0.0204065566443351886771751,0.0125309504457105057306787,0.001469648822297913836471,5.44070568731897896697092,1.90597435365539369378496,1.14592818407062191354839,1125.9673552197782555595,1127.18261633456472736725,1123.6639927735475339432,1121.77845576541471928067,-309.87128665388559056737,32.4809156179078470927379,160.312762841207359088003,63.1359565607012669374853,159.547780346969517495381
2.91500000000000003552714,0.874312804452419101153282,1.55588236192554463244164,0.283967785222789315113801,0.0275346597154319597255956,0.0049419986649479477960889,0.000287886063297459126545524,-0.000778782129684660686698428,0.00392022321764708570751568,-0.0866520681457443042727817,0.9962304489206625923714,0.0595592743459314385989778,-0.100228753782764412605388,9.90005684950122955001461,0.0205025690718825051583885,0.0124440138280967668021892,0.00172383303974611538922357,5.44075031452637691842256,1.90599882380460394770694,1.14593920587175923664347,1125.09051558823580307944,1127.3996772799723657954,1124.0932595182025579561,1122.19450346417738728633,-373.575499263741903632763,117.8898809873796977854,169.568234118882145367024,258.101038833097902625013,159.548956660535679930035
2.91749999999999998223643,1.03960646899136377463435,1.42665018538913646040101,0.350392070996936311200187,0.029857439692599036656917,0.00915082979753312902859719,0.00103088606940479675204425,-0.000704090517236838093345641,0.00396293499725844638320593,-0.0866377143439506364197555,0.99623163945446546740925,0.0548716389132451534682566,-0.096519648985149947284512,9.89644252178384675744383,0.0206019643288173452677636,0.0123606171399041776109984,0.00194565269472767943606528,5.44079797458175828950289,1.90602296387803971100539,1.14595257291738317206864,1124.09947772345958583173,1127.77206573950161327957,1124.51183394414192662225,1123.06896095958018122474,-415.169168156907971933833,164.328858466573223040541,148.537724962764940528359,456.860742989475227204821,159.550109306851851442843
2.91999999999999992894573,1.15697744293703697060494,1.25252939436218202473583,0.379354340904896281116976,0.0330086264669896614631917,0.0132042361565322171473857,0.00233152599480403698029018,-0.000626210961023729653640579,0.00400324181694696867167549,-0.0866221819691278677177948,0.996232937481157376780061,0.0502726330897254880536451,-0.0923590228337677066061673,9.89274496832743643892627,0.0207021909499026587897497,0.0122810774351419342564906,0.00213392408463434525567326,5.44084939291549574136297,1.90604618473979270376617,1.14596752481603680884348,1123.01466974745130755764,1128.22132157230521443125,1124.83594814301636688469,1124.47880717912471482123,-488.040727316967092974664,187.472239728417122250903,100.864894137568953169648,721.42277328099851274601,159.551229270991512976252
2.92249999999999987565502,1.22055882630512346764817,1.00781235528481394325695,0.351080984869247325619313,0.0373765947610558008085135,0.0170425076461663028981608,0.00443378222950960559217704,-0.000547651497751692312686289,0.00404499509740837998733598,-0.0866067398380017533510156,0.996234201108041839134444,0.0457010510253325064056185,-0.0878154422373371434940026,9.88904713227986142953796,0.0207995965317778579162233,0.0122058899141717028952181,0.00228907129937214138745705,5.44090483273296143806874,1.90606889888025121670978,1.14598417643139538490971,1121.65927408687480237859,1128.70942693814367885352,1125.0161584148297606589,1126.67607482598509704985,-495.393708061067854941939,155.463082398717659771137,21.1074535546671846475419,857.992069983480519113073,159.552530354052436223355
2.92500000000000026645353,1.20247090352516550204598,0.795514608002677925391311,0.269771511543657360743254,0.040926250389243697125341,0.0191566172113219329586897,0.00627795265631178340398622,-0.000472627871107307909702422,0.00409587145620097896336897,-0.0865918328334995823780673,0.996235340705834859775791,0.0410279193919793824796294,-0.0830009336716871631844938,9.88542575679633550578274,0.0208900201190056096500758,0.0121356838282706339104955,0.00241342939222814745203749,5.44096381087190295033906,1.90609126540588325049441,1.14600260032988798819531,1120.53770120714580116328,1128.99863698429885516816,1124.94148541078970993112,1128.7687675290424067498,-430.820284272038406925276,84.9769152997793639769952,-79.7846988552865497013045,837.051507924559587081603,159.553575332336521341858
2.92750000000000021316282,1.11479036203987558195649,0.603794694206063686792163,0.138672056472487370548663,0.0437791909738883128211384,0.0203085744575346935358873,0.00738000194269116272655085,-0.000402353506882731630934363,0.00416256694969229998348759,-0.0865734782943851227665633,0.996236652077476914080023,0.0361437187074131610620142,-0.0779702187009973374243188,9.88194861766510790346274,0.0209694440631459678991977,0.0120711553651584729829338,0.00251113416442205880305116,5.44102587704871165641407,1.90611339598494500258141,1.14602139837887451179199,1119.50517266551446482481,1129.13431151464260437933,1124.61723492055330098083,1130.86133236560817749705,-412.793766481135833146254,35.1031838617935321167352,-191.001228557119674178466,848.390139197790517755493,159.554575565008832427338
2.93000000000000015987212,0.941755018228480622610732,0.425714399137347820900601,-0.04668270806897779900968,0.0464837934194072405214015,0.0209473650886904116941167,0.00709109509967813331915432,-0.000342485597050942876772017,0.00424427252988537808547909,-0.0865530054713779528619,0.996237989767934761786705,0.0310999807699761238177771,-0.0728570913484893473155424,9.87867196996583274426484,0.021034279222704670153643,0.0120135128970351740679279,0.00258805697152467845123525,5.44109062614852501127416,1.90613494312693432242156,1.14603667306921375157458,1118.4737323747401660512,1129.1741529036078190984,1123.98647926800413188175,1133.01071822503126895754,-329.572433245000638635247,13.634942749786496563047,-257.1922046062409208389,679.903288603205396611884,159.555719740357488944937
2.93250000000000010658141,0.749410336016697264938102,0.332912628400292065489197,-0.201171341584890139841946,0.0483533678166016209210021,0.0210983526802532711519333,0.00580843791424862435079923,-0.000293506052960438407976179,0.00432492802862057771490223,-0.0865368239808859268658026,0.996238816825427253576208,0.0262441138735832746320398,-0.0676724861212495559792401,9.87564006076702050052063,0.0210818334600685053370484,0.0119645473825092420183669,0.00265095400637752054429086,5.44115672397478977728724,1.90615499734534155074073,1.14604495928594452003324,1117.85731049928949687455,1129.20248622839153540554,1123.33127389752212366147,1134.26084880862413228897,-185.176597192234424937851,41.9719984640332626213421,-267.12510517336909288133,349.274654691551575069752,159.556623459777966900219
2.93500000000000005329071,0.513743056422815258521553,0.300310401099986690187649,-0.339355091457923696562915,0.0499121355280024020517615,0.0210465118619726464233022,0.00444045862431946027071294,-0.00024392757113735801313692,0.00439098688083814324423226,-0.0865284688124751261151246,0.996238823011561192011243,0.0218564553941294481553825,-0.0622014171370093849056104,9.87288124475022854653616,0.0211107092493728089321881,0.0119262471979023551571508,0.0027073070631779046907317,5.44122220475552875740277,1.90617366121770981379768,1.14604552168382012311554,1117.5478493887790136796,1129.38401289592798093508,1122.65085374213731483906,1134.75709149848898960045,-64.8579479162904277700363,150.66648965771813095671,-280.741677370821491876995,34.6577628772145658331283,159.557472305874057383335
2.9375,0.187531252070609888438213,0.317211916136717675396284,-0.485179082149041374094622,0.0513204540923276886221771,0.0210710091120147324783574,0.00330418168208808024632894,-0.000190991504528343231670076,0.00444330476622000272723945,-0.0865272852450522239609043,0.996237982013936207437155,0.0179506181499088368624939,-0.0564306204694779572905716,9.87040480358349014977648,0.0211208502102427538027474,0.0119004588499982740662508,0.00276516663272851877589109,5.44128551659476045188057,1.9061917680918041284599,1.14603993007839721762764,1117.53302075970805162797,1129.95581867668011000205,1121.92756551066804604488,1134.43413762301020142331,44.877460765429582068009,285.000126133769924763328,-236.292135105718926979534,-252.024342312966751933345,159.558424451263675791779
2.93999999999999994670929,-0.112816877499154644137747,0.357449717139915357222435,-0.593895499211112509740929,0.0520110848342259790566544,0.0214683778713569313467691,0.00271972260437364785415348,-0.000133011812542884854792397,0.00448514154415574801959554,-0.0865315589627949910411786,0.996236356087258578817512,0.0144951797198700493840562,-0.0503773800242917971226042,9.86820357471102838076149,0.0211133490025377963672515,0.0118889061836413376799237,0.0028314153476342689141898,5.44134614298112140318153,1.90621052931412426900692,1.14603159773838592094819,1117.77223669260615679377,1130.80901352659680014767,1121.46939306660874535737,1133.49696978692418269929,127.936744050978632003535,420.893961105284574841789,-145.192424275095078201048,-463.421295993303715476941,159.559160813592967542718
2.94249999999999989341859,-0.42610648133009920712766,0.391133915897371620129519,-0.687774238994500297650347,0.0519251133797813402281918,0.0224954033577413371747244,0.0019825198667268021691934,-7.65906304363531836593842e-05,0.00451871236694195363425841,-0.0865395351962602449313877,0.996234034879557639463599,0.0114921802230695258018045,-0.0442253654413588062621621,9.86625656427540675963428,0.02109011211551583067636,0.0118931431840738066618712,0.00291105992103318344382812,5.44140539866990380346579,1.90622993826306919018521,1.146023726288298849596,1118.17270447996293114556,1132.06028848220648796996,1121.20160338929258614371,1132.1170311430437322997,167.933406127307478072908,553.549774183841691410635,-75.9736315767911776219989,-575.858610241915357619291,159.55983648968123134182
2.94499999999999984012788,-0.730458067280776446317248,0.392143891635937713591176,-0.758895954741167777513056,0.050875032871234154852047,0.0240665631496003451506027,0.000533638319185179821856069,-3.0381146715273491383481e-05,0.00454920416631684511321598,-0.0865471672420836252159759,0.996231334164122794838647,0.00888598859228544035726571,-0.0382081936638811944795258,9.86453112060922698844934,0.02105357812071603773596,0.0119145136867598033791893,0.00300705501626036784956764,5.44146346410945369598267,1.90624934869754625310634,1.14601806419963914152049,1118.61190372324267627846,1133.57676239751594948757,1121.08952490872479756945,1130.61767673571466730209,161.55172573452364304103,642.817587584115472054691,-15.369623347895739584601,-567.755091728675211015798,159.56046122397881958932
2.94750000000000023092639,-0.993641010419606618420119,0.326701166798559983206474,-0.781989283866808104761503,0.0485475655380295731400331,0.0260082264260351261886406,-0.00188517142762720008204724,-9.77797985735143683781517e-07,0.00458147545591899244682432,-0.0865486012571056173570128,0.996228792269066021347612,0.00661991223881427948150247,-0.0325224709146056042974315,9.86298644573802718582556,0.021006502391196127388362,0.0119541970038303385637235,0.00312022719100350440224467,5.44151978410184966605811,1.90626823027415159828024,1.14601590231126793106853,1118.98046310863560393045,1135.27437642012728247209,1121.12475527255310225883,1129.2782556844001646823,121.223058812384806515183,747.580345752971425099531,31.3330724051390241413628,-489.471439344755424372124,159.561024323362431687201
2.95000000000000017763568,-1.22280493340848139816046,0.153773976410018664573442,-0.731530003909184656230025,0.0444775889626665421605622,0.0280195765579662296740349,-0.00510943766509227605132626,1.06692278090719493426237e-05,0.00461465942951858575094004,-0.086542393878308629395768,0.996226678215493821610949,0.00473472343332029255158488,-0.0272480216119990216461222,9.86157744076898268303921,0.0209516268477510265999531,0.0120134096305665773185556,0.00324935066337776485428934,5.44157403687914342782506,1.90628623790690632233691,1.14601727631925687234116,1119.2180190173046412383,1137.31466412628105899785,1121.24619027075050325948,1128.1703195389907250501,43.1495491831819961703332,720.075069962801421752374,41.3709912399108077352139,-296.354589765684920621425,159.561629206588889928753
2.95250000000000012434498,-1.31991871988322961861684,-0.0664699203297012819469103,-0.617980965578489027656417,0.0403841938759003579728635,0.028961032170495417531475,-0.00763863512588666259545134,1.36640454567630467670259e-05,0.00464509193855730442151986,-0.0865298339315028336438118,0.996225160748417604139604,0.00330255301465538775307351,-0.022265250457392644911625,9.86025665575817278352133,0.0208914571447196655007428,0.012093206494039554499409,0.00339167403671205777704323,5.44162692051207130816692,1.906303815212000429824,1.14602230919110814610917,1119.1962108545515093283,1138.87475176994121284224,1121.33161022875265189214,1127.79648273557177162729,-52.7557056641864932089447,567.309013880333850465831,11.9883564020258575055777,-31.0518874004635350161152,159.562075029478108945113
2.95500000000000007105427,-1.30893142098395065531236,-0.346869697684080102728643,-0.437594723286666209549622,0.036199996433223531611123,0.0288463446639328942311398,-0.00989846899155249863866413,1.99305600775386385656394e-05,0.004663192945609599335266,-0.0865159091901479687658494,0.996224280976490628169984,0.00249969195316521175520563,-0.017391002802117992709352,9.8589777616374281166145,0.0208280642095698513560631,0.0121943368011134915807059,0.00354341997269293218497666,5.4416805336381868229978,1.90632171454392351783724,1.14602984127087226262631,1118.95424048898371438554,1140.15120919568266799615,1121.30613205276063126803,1128.01506010198841067904,-138.242773188906767245498,476.741008928057624416397,-52.9984676345986756018647,205.510662375540789525985,159.562461740571819746037
2.95750000000000001776357,-1.18060256495342175142582,-0.718279118286292983519559,-0.172646302710106114286503,0.0315743124283472398339256,0.0273650134650506131339665,-0.0115102219856376246365226,3.33965314957233855427607e-05,0.00466450974602859204376504,-0.0865050145633356193375363,0.996224309703035215690647,0.00240788384471565808375715,-0.0126080861181042461205415,9.85769666009179168497667,0.0207630979269638991924207,0.0123169332429801034467509,0.00370090616466424004310509,5.44173611285969904827198,1.90634003039674349011534,1.14603939206139116002703,1118.50499698860699027136,1141.25845681458145008946,1121.06661789057966416294,1128.82403604744945369021,-168.967136076666037070027,331.889666700324369230657,-127.992122552453110984061,351.396938538262702422799,159.562859281348579543192
2.95999999999999996447286,-0.998355191617373627366305,-1.02863681969712383867943,0.0560132991662734003313062,0.0284423684584064646874157,0.025068562709009173383734,-0.0113130001803693966411224,3.99461057355170149501568e-05,0.00465126412413793214467583,-0.0864969337401701177103774,0.996225820680992635303141,0.00300127214866699465467548,-0.00826321455565101614659795,9.85637436693933821629798,0.0206980681180199931057384,0.0124602904136278391789006,0.00386113739769404842872014,5.44179373170806179871306,1.90635829423326819132001,1.14605068442296675890191,1118.10940480860040224798,1141.81065752918425459939,1120.66617143999837935553,1129.7720447946796866745,-133.475251536995642709371,152.464873832926571139978,-199.199140330397000298035,384.523321580635638383683,159.563136600143536725227
2.96249999999999991118216,-0.774026594232295028774615,-1.30814844057467016824603,0.251989034851586968244419,0.0264437635127374795485089,0.0218384838540557346675541,-0.00972365746803630949524067,3.15995443571302477101664e-05,0.00463121427212663788058888,-0.0864907111012308965625195,0.996228362948540779875373,0.00412717616955027288838664,-0.00458889562738398065766532,9.85497661968236293716927,0.0206345394435386818299261,0.0126232212022115344168816,0.00402148621417037447495213,5.44185286136676005241952,1.9063765755969594994923,1.14606262409421311154745,1117.83762073092202626867,1142.02078118374606674479,1120.07062218892770033563,1130.74665265535259095486,-63.9591810384458767657634,34.3128931699091523910283,-294.044015038577413179155,380.714358570329693520762,159.563359799704585384461
2.96499999999999985789145,-0.502352224364116084487364,-1.57821169882250256222278,0.418335351355751949853357,0.0250899632696486643568257,0.0169829381320054720316826,-0.00738099282914524406490342,1.29959365278397861542901e-05,0.00461493605066760296390393,-0.0864879231110746715671667,0.996231109825726379725097,0.00554826137891178960970251,-0.00157038989078933655108017,9.85347418434210453597188,0.0205743340638608052106662,0.0128042539075195731940182,0.00417955141648688154043523,5.44191204317287091640765,1.90639559726385354743172,1.14607504131434034810866,1117.78960890340817968536,1141.98222199503379670205,1119.19595136480552355351,1131.67561658753129449906,38.5550142140774738663822,-44.4164441940726675284168,-334.331679426600373972178,272.899668692825571270077,159.563567459854198204994
2.96750000000000024868996,-0.304072379631508293851283,-1.73429750558000961291327,0.493477692839592696483209,0.0244895481448848505168225,0.0122294043699978805667117,-0.0055811809245127144696319,-8.98823062117440216506684e-06,0.00460541821040826027111592,-0.0864926857615292699055232,0.996233250437023043488693,0.00716463260007196844902921,0.000869528155156507054357462,9.85184600343223237928214,0.0205197379473994780119117,0.0130015906834066458791499,0.00433296311041977185579688,5.44196975234013091693441,1.90641600131419686192658,1.14608833743884153122394,1118.03039580199242664094,1141.79869896277568841469,1118.39896379179458563158,1132.11115099881681089755,151.631417443185227966751,-85.4680826614127511220431,-318.393167225145930387953,89.3649745386422864612541,159.563692226865782686218
2.97000000000000019539925,-0.164336437534539137050871,-1.81332776554260455270651,0.511072295669160570064093,0.024443257169679599716261,0.00720832961919814531326356,-0.00395134190293866711940485,-3.27387365158366653184602e-05,0.00460691407761919333868628,-0.0865021805063213022890523,0.996234732028501768219542,0.00885416374561720509461793,0.00271049779689278708127986,9.8500785015023328838879,0.0204735703693949867842949,0.0132127092857355719207613,0.00447998329399938808453863,5.44202447893597174299885,1.90643748001599888652891,1.14610290301857253858486,1118.54776599062415698427,1141.5548815817267040984,1117.60398552867968646751,1132.12244146022453605838,240.288019481163814816682,-98.2605237272330640507789,-310.81717975440125201203,-63.4613653049213866097489,159.563769250354937412339
2.97250000000000014210855,-0.0896840592727429913866288,-1.83444711619839750937899,0.49461727344610689760529,0.0248870950797643562812933,0.00245664911999507852916058,-0.00249087429523089107577527,-5.7539997949357921981639e-05,0.00461357154416964457960271,-0.0865122198081862137097886,0.996235793094999655394872,0.0106882856052215174935682,0.00394023813522804966513746,9.84816683597642317238297,0.0204388070377795362519979,0.0134346785628152529806778,0.00461899823361872075011547,5.44207558162193016926267,1.90645983336641533512079,1.14611671786454705213032,1119.23183589939822013548,1141.30739634413953353942,1116.84487789302261262492,1131.79384417229221071466,290.107554315597383265413,-97.5341474218132873374998,-293.907001482199916608806,-197.620897005621941389109,159.563808548603248027575
2.97500000000000008881784,-0.104059816882116032421557,-1.80183288841408550950973,0.458792509095795331131029,0.0255130199665491441685106,-0.00185672182525109183415246,-0.0014249173365004450669824,-8.03559125476640873000228e-05,0.00461436996862953086040449,-0.0865244894475970804936793,0.996236280408272500963562,0.012829461024539828839508,0.00460964497381795984543018,9.84611301109007897025549,0.0204178747867605134280744,0.0136644755095216303281136,0.00474861076322237798952308,5.44212487391896893029752,1.90648337345353602323428,1.14612822264676128547478,1119.99830376220211292093,1141.06721084461764803564,1116.13445052126871814835,1131.1343369751964473835,321.761598815380750693294,-111.767332145748355287651,-307.639034628034266916075,-335.404958958731981510937,159.563804576790062128566
