t,ang acc x,ang acc y,ang acc z,ang vel x,ang vel y,ang vel z,quat x,quat y,quat z,quat w,acc x,acc y,acc z,vel x,vel y,vel z,pos x,pos y,pos z,mot 1,mot 2,mot 3,mot 4,dmot 1,dmot 2,dmot 3,dmot 4,vbat
131.159999999999996589395,0.0782358740657615875369046,-0.0977313512569455838940868,0.703168692009306317558526,0.0591901048462286707985136,0.0106879866329673556268887,0.00627313505191720750808759,0.00345705855855617510269395,0.00123721638568577234872092,-0.689404052582013093797286,0.724367359845378921967551,-0.0409589624630958826223548,-0.0262792476533327129528672,9.82398617514767202862913,0.00147152513659740461458847,0.0113732240097670685846643,0.00560320561833289702835526,-0.591259972004535283574,0.327546021860219693788707,3.52831844302077968222875,1109.87960358689679196686,1114.93810006610056007048,1094.84370791230685426854,1102.10581880638255825033,711.077262022000581964676,186.98335944430888844181,-941.621121402651283460727,-857.684244947138381576224,149.864162682491951272823
131.162499999999994315658,-0.249542072852385748982229,-0.151540797723310777245231,0.50342071756674777738283,0.0590899547776828279466166,0.0100356866584073826931256,0.00771592729241743057605474,0.0034890886201650052854395,0.00116812061122166521709431,-0.689398769253922405475521,0.724372353393836876378487,-0.0377372383274335726488502,-0.0236316447049604375085785,9.82215515384473292215262,0.00133810276772055669960992,0.0113522113059782957245059,0.00565008965394762138062523,-0.591230418814589153697625,0.327535553066480966677432,3.52833315321070095649247,1111.39943458924176411529,1115.33157365300462515734,1092.81835206500272761332,1100.1661117975190791185,560.022335494986691628583,115.995935469723917776719,-715.027770950123340298887,-730.571441259217522201652,149.86332449807767375205
131.164999999999992041921,-0.552233192369913528096959,-0.197060870829501300072195,0.269179522849693042552133,0.0586970647701044040411844,0.00878834986004592075281572,0.0073536532663893462713478,0.00352472327770629242915668,0.00110214254713497574605929,-0.689394590869976120472984,0.724376265741588531987816,-0.034287818848938361737666,-0.020844694543735005354268,9.82023815818869216798248,0.00120757185016686025350041,0.0113339191319009810476892,0.00568893308420051133089679,-0.591200686636025429798735,0.327526841711943961232834,3.52834688923073480637527,1112.67971526436917883984,1115.51807974344865215244,1091.2685690575594890106,1098.45296160008979313716,499.276092866238514034194,12.6751012419051001245407,-519.61381331695486096578,-664.023110022812034003437,149.86248126592067819729
131.167499999999989768185,-0.879020849657714986591373,-0.228814980587406152645613,0.0038560219617381069623363,0.0570831455736611481643905,0.00761243153436433166170172,0.00626760527344836539109796,0.00356177493237988009033845,0.00104297032462789536315373,-0.689394142224475148239549,0.724376605420174124461141,-0.030690782992454479494171,-0.0180138318060089064331919,9.8182619284551417848661,0.00108412197630146757768022,0.0113181590663263918067338,0.00572058640628133989458615,-0.591171065697061792754141,0.327521410609082297415995,3.52835924624000840665872,1113.89581505357068635931,1115.39494915921409301518,1090.22028299842031628941,1096.84599624740803847089,386.42103355461705405105,-104.896449754459624159608,-221.339336724065987027643,-497.342358362347056299768,149.86146246630374889719
131.170000000000015916157,-1.10873929372217583377846,-0.23558876919670609928481,-0.181083068674778774331813,0.0547354440540519238123096,0.00703528935663884618517683,0.00535062490569806602919156,0.00359632026381435107934004,0.0009917141721135836786305,-0.689401760443499767028186,0.724369262756036191852616,-0.0269751258067475740975993,-0.0152243362305921337007675,9.81625552161535352979627,0.000972753791185887017184397,0.0113049051295933625921331,0.00574568153587080160393796,-0.591141403477491111928543,0.327519214699294292092446,3.52837004022739630926253,1114.61182043215148951276,1114.99359749467384972377,1090.16187237393387476914,1095.96624980826618411811,216.43331802275835684668,-208.51611510107002800396,160.93325145284788391109,-248.169136357043612406414,149.860606736362200308577
131.172500000000013642421,-1.27649460924483904022964,-0.225309981712218526661573,-0.317611622829320761063343,0.051805032448998096505921,0.00661262420893240100011612,0.00429104827831003864113679,0.00363159299494979995875932,0.00094778017735272436679328,-0.68941785991615667228416,0.72435382646536150552663,-0.0232510893581860528245286,-0.0124360608331115576885573,9.81424833356461867595044,0.000878931646231986981286644,0.0112943690596877966553224,0.00576429336661758023874214,-0.591112178429390122680331,0.327520665849055314655658,3.52838065404065925889654,1114.97798164368964535242,1114.35236858370376467064,1091.02494925568839789776,1095.60515056561689561931,82.7398784727235891978125,-277.559438487630870895373,491.985606364907653187402,-59.9086577767228902757779,149.859742617259286134868
131.175000000000011368684,-1.37983115327807048799968,-0.20291538764892957935615,-0.413522952593810610988356,0.0484784050908554850489729,0.00624877785870104392879076,0.00303088449898476644875367,0.00367084715226867518492182,0.000912026013228079681857685,-0.689439122894872080671291,0.724333434873294379485742,-0.019657267308102674419068,-0.00962815052262799148108385,9.81227075520421010423888,0.000808110762101475255982097,0.0112869159280353844460043,0.00577597336209389675132364,-0.591083912203458017309288,0.327525772810575821480938,3.5283927697039234594456,1115.02551982451473122637,1113.60580030223695757741,1092.62180040575617567811,1095.66670651938284208882,-60.8673657453535881245443,-299.578227210576699235389,784.00006103564373916015,116.673812747482472218508,149.858870304931230066359
131.177500000000009094947,-1.39155141042592056521698,-0.166223427547434077222732,-0.466320259254149660499422,0.0445679638581428019805664,0.00603568060782849313133935,0.0018418975998355569846654,0.00371625150955402685365447,0.000885492705999733702680599,-0.689463941494483978367214,0.72430960652179143810514,-0.0163260013550679816685118,-0.00679861097667158048585279,9.81035416697640094696453,0.000765056280578914338352803,0.011283015510110192339277,0.00577983380731038852429204,-0.591056144284156759205473,0.327534334897430223776382,3.52840747474288374263551,1114.67364481496315420372,1112.854477447652243427,1094.94494956086305137433,1096.18851962935377741815,-242.163317742726718506674,-308.002085103642457397655,1119.89359031510502973106,313.032392081607270029053,149.85798639210852911674
131.18000000000000682121,-1.28970376798356123337896,-0.10233030327249138802248,-0.492134080019936193117758,0.0393626639745322873253919,0.00571356064873061297165746,0.000664898221876018022218069,0.00376817984174425543372755,0.000869260781745016548188731,-0.68949084041153574364813,0.724283743567350479786171,-0.0133691275479267263071037,-0.00397235488424782512417721,9.80853063391847790342126,0.00075335887102172933126043,0.0112831532104495056711979,0.00577485085950857519876411,-0.591029131252750916658556,0.327546828143816748379891,3.52842497517285513808361,1113.81470323580219883297,1112.06578987672014591226,1098.22126835732660765643,1097.23186847978945479554,-376.862790814108734593901,-263.158621214291258638696,1216.76684464152162945538,427.95689242759902981561,149.856909781419147975612
131.182500000000004547474,-1.11312059993348255737544,-0.0280903644633429816490633,-0.491001847072545960504186,0.0352550038120148720444114,0.00530143234828516201478932,-0.000188068630258062349141016,0.00382129749878092799322826,0.000859577286332426668095941,-0.689519172947341885127059,0.724256492796555906288347,-0.0107526775296663962278032,-0.00119104134037404524315562,9.80683310075058578547669,0.000774943331347283537874349,0.0112877645621117517205079,0.00576023048507133799550628,-0.59100275351980369187288,0.32756113725438945616375,3.52844407820352756743887,1112.78933086089432435983,1111.53868434158198397199,1101.02878378406512638321,1098.32830409148982653278,-455.51406675522730438388,-187.858210211095723707331,1056.68775789127425923652,450.404497579393478190468,149.855997316838084998381
131.185000000000002273737,-0.866761866839740324763852,0.0717457389229068098757125,-0.472500951446185368798325,0.032363452767021384792745,0.00508917004994916596233301,-0.00110402411568699112751069,0.00387355278833894116005676,0.000852607084544094832867511,-0.689546761786292372597984,0.724229944046325790907304,-0.00848221864240936151979611,0.0015506015344216930729182,9.80529289893027566904493,0.000829616367005710578230726,0.0112971923882930463250984,0.00573567152511615836740777,-0.590976264463398903714619,0.327574780455966496628406,3.5284634861575994158045,1111.53713290202813368523,1111.1264988256655215082,1103.50470714677817340998,1099.48389096768437411811,-580.581426797180597532133,-169.627134651563778788841,932.163336721516429861367,480.386971571697699801007,149.855066347145822192033
131.1875,-0.538306552496232493254524,0.220172455863342997339771,-0.431535377102200468080184,0.0307419601029203654052324,0.0052378918412817557920258,-0.00246774523613168313834754,0.00392278086721016289867281,0.000845828476757307318525947,-0.689571271324415646652994,0.724206340248969016037961,-0.00657289112962962385200427,0.00423746291168899252843616,9.80393942599981471630599,0.00091492728341380235874275,0.0113116143388779111927933,0.00570158569697040793627929,-0.590949273242171391196109,0.327586422100860474859729,3.52848157172095300282422,1109.88642372691106174898,1110.69054866832493644324,1105.68960046766846971877,1100.7302389493461305392,-616.571443012404984074237,-161.638193875943784405536,632.004814263002117513679,409.442183931068427682476,149.85392464565262571341
131.189999999999997726263,-0.273643629389426046305545,0.363626177558534824374448,-0.381455654085959328103428,0.0307429797828784323598938,0.00538094614046201891871535,-0.00382742505258849710983449,0.00396587107735038579825471,0.000832880709485029138705592,-0.689589833941474328327104,0.724188439737826983311209,-0.00496113380882358401269272,0.00689197703238914050061226,9.80279950520553811088575,0.00102640991045956585757393,0.0113311049881132785283055,0.00565895724554562641606115,-0.590921192155914765109515,0.327594196235764134605972,3.52849753614304884052899,1108.45427568696891285072,1110.31830785628653757158,1106.6647312180903099943,1101.53110188733785435033,-573.667853219306948631129,-158.972129387174362591395,201.288050595168243717126,256.99460302758507168619,149.85295060599628413911
131.192499999999995452526,-0.0504928964132223406791056,0.516481504986976647231245,-0.318125983449310145712019,0.0316448260526374439138841,0.00557312458617721315223825,-0.0051072408771685139095009,0.00400802431438007644715071,0.000807569285678539370079698,-0.689597434832680322713827,0.724180996139619947982169,-0.00368315464691802013641464,0.00965157800335809251679464,9.80189486091646067222882,0.001157944967353388308548,0.0113557613365148479117606,0.00560904918845199322585682,-0.590892075479640621615829,0.327597767918091420380478,3.52851241382241997968094,1107.01808446081713555031,1109.89568802138978753646,1106.69604072064339561621,1102.01521196448288719694,-623.21237516095902719826,-195.476506028349348298434,-179.241311789591463821125,146.171915242253987798904,149.851950692838386203221
131.19499999999999317879,0.155866775578700544890864,0.68313418538731762730265,-0.23927627734407425075247,0.0330254693634084231512738,0.00678242897975014306238828,-0.00596526454600606464984125,0.00405460647627652916169527,0.000772686355155116871666621,-0.689591613643173451109192,0.724186317293938897066141,-0.00288763557155650996133289,0.0125335132797115486602557,9.80124267120906900174759,0.00130216043593040040754483,0.0113856869567359984818378,0.00555347429589904406643797,-0.590862870737569156887048,0.32759847290657861940133,3.52852717036819374385459,1105.33821381116695192759,1109.34092532614567971905,1105.76852465914316780982,1102.26196146354845950555,-600.33269690657141381962,-202.089933707431640641516,-462.928556524923749293521,52.455039056214857851046,149.850718357921351753248
131.197499999999990905053,0.282974585960950486551724,0.778717782930165469679196,-0.18381240563969933332622,0.0337702172325823543608259,0.00895575804371263189951335,-0.00611322913259671699842679,0.00410424700612443092706538,0.000733726553307323435884624,-0.689575113577487464056048,0.724201790195541539318924,-0.00265168408787476439503195,0.0154218931380278798104477,9.80085634030639596403489,0.00145093985071056172202197,0.0114210513935089699733005,0.00549412075141992098381571,-0.590833977841258461971563,0.327597561448757013113919,3.5285426674566267024602,1104.01642097628700867062,1108.88523835285354834923,1104.38139793802088206576,1102.277487159763722957,-498.474631509678602014901,-164.430948738722179314209,-627.780718164947529658093,-4.13982234236222179646347,149.849662701502978734425
131.199999999999988631316,0.381509019004604932323588,0.794450439815258313558388,-0.151444560639955649872235,0.0337877914094605047434783,0.0119014113640635698504466,-0.00614117624118129794980048,0.00414970040512129510756889,0.000694321093696437458345216,-0.689552297909569511524808,0.724223296661193560730396,-0.00292654838628686464474526,0.0181421035887957757259947,9.80074500953591964957923,0.00159587429016977769280494,0.0114620972793374169967917,0.0054331054901340025339862,-0.590805458691339158150413,0.327594930593868294277371,3.52855805909132902442593,1102.84584065362082583306,1108.51877058245281659765,1102.62962106832128483802,1102.24126235183666722151,-430.234735240802592670661,-119.161470232369907762404,-722.870929853211123372603,-1.90235177500654817350778,149.848575453437746318741
131.202500000000014779289,0.466984619376259846301735,0.726801611786212831134435,-0.143027116904218182247277,0.0336660501590611907496431,0.0148214638048804886460985,-0.00609330062454707232361129,0.00418621928294029589656677,0.000653354211746062828528037,-0.689525659197961826585299,0.724248491923258685964981,-0.00360963159136891420519788,0.0206190360835818500828687,9.80091180746194723383269,0.00172857351256285583264438,0.0115091441037681457837394,0.00537263433568731414713415,-0.590777051719297618959104,0.327588437150077016468686,3.52857138745708986959926,1101.86524730007272410148,1108.28943100168885393941,1100.76704328873756821849,1102.26797540088864479912,-331.589742675177262754005,-47.0962691077172550535579,-736.590104832141946644697,43.1232038937865596039956,149.847460833051513873215
131.205000000000012505552,0.535257992388096903724204,0.554056835009810066949854,-0.163309822745732580173694,0.0340927514761111688512685,0.0172919365647367755112196,-0.00575851426092551139934717,0.00421644290929839953008251,0.000605411994437213599705438,-0.689495296024113080157747,0.724277271830229718574401,-0.00461798300911397258117219,0.0229407233600575841125924,9.80135276964472090810432,0.00184103938309825151606325,0.0115625361403050089248445,0.00531480878756910267435298,-0.590748897096979641574421,0.327576615642074797651873,3.52858282880368001599436,1101.18789194023702293634,1108.28328923691310592403,1098.9466705441429894563,1102.45687837130662956042,-216.672815749022163345217,57.2067666587438026226664,-764.364343929595975168922,126.437117690490083532495,149.846312005223865071457
131.207500000000010231815,0.577195759136292063651297,0.239087238228152060282028,-0.209658031846358117178397,0.0356444929560222750763998,0.0193149127826981459321587,-0.00565621637780740291884252,0.00424291790902103522348243,0.000549101980445998775169636,-0.689463734345134748870976,0.724307219196827500873326,-0.0059081231063848188567178,0.0251397656631765012424928,9.80205836364480731504045,0.00192613318566330592174207,0.0116224575098450109283954,0.00526164422690118989411889,-0.590721021459691519872592,0.327560256928463300329923,3.52859327036784486963938,1100.78188322132859866542,1108.57546483498231282283,1096.94522156909306431771,1102.90016098934052024561,-82.4709616686345441394224,159.415284667611018676325,-697.093226037574936526653,190.327878365442586527934,149.844892917651520747313
131.210000000000007958079,0.558328137863029261289682,-0.0912241742785991904796106,-0.249759872507832408894402,0.0376132763520047111449607,0.0199740602358363834867294,-0.00636002943972865854987964,0.00426691503511165363266011,0.000489805774185939806278367,-0.689439111877480526047179,0.724330573230205887469424,-0.00750286704013260197232427,0.0271394952206984799158995,9.80301419026970322079251,0.0019781433501442360033129,0.0116888363342532788924366,0.00521494666256559335354437,-0.590692736684397590174456,0.327541224282564102932014,3.5286030020683374353041,1100.7755371318942252401,1109.08036566025043612171,1095.46120441395828493114,1103.40851776313297705201,52.1743565651851639586312,257.333717101262038795539,-560.995458300213613256346,210.564672380096965298435,149.843676690120219063829
131.212500000000005684342,0.46383432059405971248367,-0.456208112294280654364087,-0.268227136746724492688543,0.0395135650696949308757766,0.0193943873832272510593366,-0.00781689403414216957277638,0.00428779804448470216321487,0.000434358633870069366002958,-0.689426857072206522580871,0.724342164353221629191637,-0.0094102166798162439897979,0.0288180780516279280711878,9.80420166724760555609919,0.00199361039480617369124005,0.0117612919844471801311681,0.0051761073535685105106996,-0.590664045945735294296242,0.327521639461591629327586,3.52861225699798364274784,1101.042755004154287235,1109.86213342048745289503,1094.14024427759454738407,1103.95298435124004754471,154.03824456780424156932,408.539757992556189947209,-560.780495465369995145011,215.520152983722738326833,149.842426708214418340503
131.215000000000003410605,0.253539609670022980658644,-0.887171687877558179380344,-0.24887795837563672640691,0.0412533289724353047223104,0.0171164365077236015066919,-0.00946262585433939491796895,0.00430442989786269675916985,0.000387521216703693826676619,-0.689427957210623332251487,0.724341055065975347737606,-0.011596442944283635867464,0.0300769850485888348701202,9.80559841750793026449173,0.0019716378285238528658696,0.0118391612804929612784433,0.0051459484063729101638307,-0.590635504709455472216462,0.327503202114835356706379,3.52862195787068388952434,1101.54572835473254599492,1111.1230644502113591443,1092.65730193663398495119,1104.48611852805061062099,194.730517060538403484315,514.479698380559511861065,-541.763497546336793675437,152.419862913304683615934,149.840890435769011901357
131.217500000000001136868,-0.000633594310093484546463072,-1.20746779403865933666395,-0.197355911539015410616216,0.0423774522055392066643975,0.0138911976610032305429199,-0.0101720197765048231408613,0.00432085055473565432526684,0.000350144210332593722526107,-0.689440857859540123797615,0.724328699375385354208845,-0.0140416668069117678285807,0.0309470550300007321564699,9.80717780549747075724554,0.00191376538672917710821875,0.011921554576245642353971,0.00512462567932636062911778,-0.590607035501217625395043,0.327487224310861191334254,3.52863331239520006121779,1102.01640758945609377406,1112.43453191238791077922,1091.43142678986532700947,1104.7150836658058778994,181.313198220442529873253,569.809836823533032656997,-502.751195726798641771893,25.7202544038370604084776,149.839582860898872240796
131.219999999999998863132,-0.323356006528365325092267,-1.45704980730072164440969,-0.115982650190299269032934,0.0426177805609485108040424,0.00966195877174871355086427,-0.0104929154712654348902134,0.00433949770821444140433965,0.000317975134506601187205782,-0.689462092777161972279032,0.724308384547111328011226,-0.0166358817451068285997451,0.0315090635910763514071498,9.80891109631521551648348,0.00182374928222830273716326,0.0120072958894520236128312,0.0051118567159169989860823,-0.590578324780844710062411,0.327474241093658302581559,3.52864606001938030388487,1102.4522943458339341305,1113.97211363432643338456,1090.14354595800227798463,1104.6147198000696789677,176.295003772044111656214,704.356157527676600693667,-585.819505533332517188683,-132.30993853711180463506,149.838251436782883274645
131.222499999999996589395,-0.759475198774028692483284,-1.65826130908464630664412,0.00664410936843549959629485,0.0410109544595148242662752,0.00437801500949641739929286,-0.0108343239383223328975436,0.00436094598423355638699972,0.000285501062126556303093911,-0.689488171632211988004713,0.724283433976964596823223,-0.0192343883141769395050957,0.0318385173193169099259414,9.8107683716038032173401,0.0017070998897706500703475,0.012094918882312189964412,0.00510721571571520066568084,-0.590548703055577495213413,0.327463321453049016618309,3.52865934254196744745968,1102.89788260831551269803,1115.95631270002309065603,1088.50232926220132867456,1104.05353397312092056382,154.329680051072813284918,722.434650878924344397092,-610.152061535755024124228,-278.269514629235573011101,149.836632790864911157769
131.224999999999994315658,-1.13739085262390471342542,-1.74391853707607857870698,0.121862902623476807018044,0.0381714830329780360762548,0.000194538715872043108589748,-0.0110189696932830177855678,0.00438747577211356411253096,0.000251548545604965867895225,-0.689512989841543189051265,0.724259647914604398621918,-0.0217887293684691785156105,0.0319814172995301973512206,9.81271842763585588897968,0.00157074242170632109340256,0.0121827201550270582119939,0.00511034131061747706747944,-0.590518210581932101455038,0.327455220301939298188643,3.52867285176473544083819,1103.22394274608859632281,1117.58428688871777012537,1087.09278565032627739129,1103.22337222692476643715,133.677288650627531296777,603.492980034892298135674,-550.806144693024862135644,-394.848750046044074224483,149.835272215441108301093
131.227499999999992041921,-1.50483084387307131102318,-1.7510421359483565595383,0.237318565175821505341958,0.0345407665462498167374683,-0.00385934211392614714281057,-0.0109830471503443490716156,0.0044183704293021914752404,0.000218927345909322804964545,-0.689534567166635081747472,0.724238916287557654705154,-0.0242815328396430579749321,0.0318916604333336836663015,9.8147302930095889905715,0.00142245429747940165150777,0.0122688722285965758074244,0.00512106777044672202559017,-0.590487468150501793040519,0.327452383032032723342297,3.52868651810988964712124,1103.56626905156804241415,1118.97377760019480774645,1085.74829853873870888492,1102.07929022289249587629,151.0998081696935457785,483.800364408610960254009,-504.703336064635266211553,-493.443417167366931153083,149.833907086875257164138
131.229999999999989768185,-1.85135498769512296668438,-1.69821775911716987828015,0.338525385016708035834654,0.0305947854258841918373424,-0.00793381116619270437828604,-0.0103522387761230249408895,0.00444980987144218825823927,0.000189166801596981796551936,-0.689554615365521650360847,0.724219632040649097248775,-0.0266515801401875918053008,0.0315007441926120276831647,9.81677373819047005554239,0.00127034489917581807846836,0.0123515362939729776703413,0.00513936094158648666685441,-0.590456476040396527338316,0.327455270560415456770897,3.52870054060934590367538,1103.97944178693637695687,1120.00328871075862480211,1084.56926897000539611327,1100.75615514109017567534,192.946821484144521718918,294.074306348653522036329,-403.630007469501776995457,-547.810484968407763517462,149.832543788176195675987
131.232500000000015916157,-2.16109471892846061180649,-1.57809759271407257230635,0.401917270098518353282913,0.0261687744525512869242512,-0.011925380447349889084796,-0.00877085895673938506500456,0.00447663825888994573731772,0.000165922228541686811020134,-0.68957322885609895202208,0.724201736524876960032771,-0.0288656151374857422586828,0.0306973998020476993020544,9.81881926817207784097263,0.00112223486758377083254146,0.0124288782883386801636494,0.0051653886039422962708767,-0.59042537280955853518094,0.32746341276031204481356,3.52871478414028549863701,1104.5310031589933714713,1120.44414913194509608729,1083.73014850138156361936,1099.3402377980373785249,278.782730138879173864552,38.0199885979440281857933,-260.000251973347076273058,-610.695177088513332819275,149.831188967611609541564
131.235000000000013642421,-2.47086070251055467394963,-1.36315710248817723027059,0.4147869502995386592481,0.0200314208642409993799127,-0.0164671951195382929022948,-0.00643139798654686518919465,0.00449225780350188778899945,0.000154596441928449979249724,-0.689593006195637348021421,0.724182796327356381738127,-0.0309111719835391263178082,0.0293303732642835532362646,9.82083846420399808607726,0.000984747025664680676604323,0.0124991214641615583369472,0.0051995341921275139984715,-0.590394106330981216501641,0.327475392690188438216126,3.52872845574194782258814,1105.37335543763742862211,1120.19338865374925262586,1083.26926771013245343056,1097.70267925563302924274,333.704478546754842227529,-219.475351051523347223338,-62.6585114432261036654381,-566.186604979308071960986,149.829580411364247538586
131.237500000000011368684,-2.65753269305855610582512,-1.13266394311031182162708,0.37030727808256552746613,0.0139900834025235495938766,-0.0197683884822795787050698,-0.00469977795523710255992667,0.00449497724042555862888904,0.00015810222319288070669599,-0.689613995205394680887423,0.724162778004989182711881,-0.0328196394367143151615807,0.0273564974012437331363223,9.82280289077804802388982,0.00086283063321011192574328,0.0125606382242324354087115,0.00524217112950605291371575,-0.590362300434757125700003,0.327489512907615631931435,3.52874166984056358842281,1106.19952555172562824737,1119.3467723766884773795,1083.41685594416571802867,1096.50930477314341260353,341.954470729244292215299,-449.995216655361218727194,177.492940948311570537044,-415.84807395576342514687,149.82825924192533761925
131.240000000000009094947,-2.74239961107850938049069,-0.862656606153438310080617,0.280246511416653243387032,0.00678605275752349954010434,-0.0222501442492086948243823,-0.00356653932782658280101207,0.00448263034397758646648624,0.00017292887021225436939946,-0.689632249526310192599965,0.724145453983591091962069,-0.0345345057136807465081318,0.0248173201551369557171789,9.82468592232409676512361,0.000759490218453383672536638,0.0126119944436182719604833,0.00529357549295119463733661,-0.590329487069256031439579,0.32750310005669003299289,3.52875335845620785590881,1107.08312779128209513146,1117.9434125704744928953,1084.1567324148732041067,1095.62343888585610329756,381.186476595558985991374,-705.972477117307789740153,458.052860044479587031674,-294.835144928579040879413,149.826963424908626620891
131.24250000000000682121,-2.70193370092833928808318,-0.513326250460373167960881,0.145263114154883965500886,-0.00259162093359930397612478,-0.0240523144904375846264699,-0.00278687829502054923436205,0.00445480672914809819329385,0.000190412266626036616803952,-0.689646290614002954733053,0.72413223406845206309157,-0.0359571402267955392284549,0.0218520547786583071991906,9.82646286596648366185036,0.000675488959990866878052573,0.0126520736255007100468095,0.00535373004065469153961443,-0.590295514416016353642647,0.327512763716337584884997,3.5287629820853054773977,1108.10545793470168973727,1115.8169099911051489471,1085.70712024438603293675,1095.03512904850185805117,355.302919538694652601407,-819.636249501281440643652,666.320217562876109695935,-125.680298408520400244015,149.825443226903558979757
131.245000000000004547474,-2.54622764035310833463654,-0.21585294387359088563727,0.0327280166113041934283778,-0.0101278982534471258952768,-0.024588459053148242761111,-0.00258258492889779046539078,0.00441911877872459661620308,0.000206679197193711857577503,-0.689654725202758056568086,0.72412439527758276636149,-0.0371694262936643066153053,0.0186516044920984822019783,9.82810987231956900700425,0.000609667981771538458439508,0.0126801647666956052856735,0.00542213435182474241119666,-0.590260976914558477268713,0.32751846994858641037851,3.5287723596829487782145,1108.85964238897395262029,1113.84523132297181291506,1087.48833350268455433252,1094.99503739381407285691,272.411781190723957024602,-791.70636041498414670059,788.239565777656252976158,80.3420995432410052217165,149.824208911212878092556
131.247500000000002273737,-2.28134127100880679250849,0.0749266249004679751877234,-0.052186919061841655076428,-0.0165445303799717988169071,-0.0244563722831928065382101,-0.00279695463649500116951052,0.0043820624784657322484116,0.000221143482155703309348371,-0.68965837078860137143721,0.724121118209389291742184,-0.0382853294224012735691431,0.0153476095835941364620147,9.82960666076071021279859,0.000559536975421271224294395,0.0126959874923946933189534,0.00549775400221441581244397,-0.590226485179326298968761,0.327521874952812819259407,3.52878266855791533629372,1109.46751684065407062008,1111.85837818903382867575,1089.64831807327072965563,1095.4368395462176977162,218.084972454988104573204,-774.052250219096094951965,900.29084449865899841825,250.795932595747927962293,149.823012016651063049721
131.25,-1.95148555942754886594059,0.354286527879727419776401,-0.0946761382329133621693629,-0.0217884334505165366824286,-0.0239898833713944985290834,-0.0034022016441863020541625,0.00434561437751534735546288,0.000234438077061457347599269,-0.689661164626922840170664,0.724118641474956303838439,-0.0393721409910683245447771,0.0119908676614555384509764,9.83093784830828987253426,0.000521780173070336174279138,0.0126996918252860833270512,0.00557905678463199716787813,-0.590192185804827240680481,0.327524431097879042962262,3.52879427434923353956719,1109.95006725124790136761,1109.97497007187985218479,1091.98978772517375546158,1096.24901705679167207563,167.02631203976764595609,-709.401406244259646882711,941.697377214033394920989,399.038248423265997644194,149.821848494033133647463
131.252499999999997726263,-1.58058838521210676120177,0.614636751755056609525241,-0.0672190508391578012137302,-0.0256556053306453077378357,-0.0230925785642129739738682,-0.00462154855763450330558006,0.00430704239996578235744051,0.000248978936358396052939967,-0.689665138777713071505104,0.724115048996166743577874,-0.0404526543220228296249275,0.00854091517942247996364458,9.83209326680054118696717,0.00049270436710477870899394,0.0126918066935390802529859,0.00566416433437238846237971,-0.590158591298599710661676,0.327527052215242198140999,3.5288074101660837911254,1110.30264840085214927967,1108.31137115781575630535,1094.35680495933661404706,1097.43203078833221297828,132.073482725656560887728,-666.829271965313523651275,993.844859950508066503971,580.769752519409621527302,149.820727562924560061219
131.254999999999995452526,-1.13403319225356491450896,0.894973404901178382075955,0.0558584814173823107630312,-0.0287510820378999720769997,-0.0213589978275796968376632,-0.0064840201493560388826265,0.00426140472488187229543888,0.000265163762679376314220642,-0.689671793926007192787608,0.724108943729770082597952,-0.0414828899028853170793951,0.00495209817951625108634062,9.83306775905072072418989,0.000468296929203897410037838,0.01267321432276689689711,0.00575092089249001642975445,-0.590125989423270658207343,0.327529612349639454027539,3.52882177526198415051795,1110.61043466487558362132,1106.64082371205631716293,1096.95901202492177617387,1099.15286581938607923803,96.0975648407348614910006,-552.967143472736097464804,877.714037203375255558058,661.228985928083830003743,149.819434113143273634705
131.25749999999999317879,-0.787388863590770982092693,1.08987356047404859715755,0.222255792117413725206276,-0.0301997778578752713862787,-0.0192027236081192959060715,-0.00761788893453092461061082,0.00421231246050189807317299,0.000280841077811069047154985,-0.689680047726395906160235,0.724101336267645279143323,-0.0424888134187226956806072,0.0013337881998860059984402,9.83385893403845301463662,0.000444232288627785108954538,0.0126451185521819550044986,0.00583688161026102089734557,-0.590094560737150608531465,0.327532135398788948332793,3.52883794283234530908544,1110.78313622505538660334,1105.54653544045459057088,1098.74537514534949877998,1100.73817571796962511144,48.4467611265230928552228,-373.346845070567155744357,602.432181230508263070078,642.579366456896082127059,149.818400632808874206603
131.259999999999990905053,-0.486124297167356833604401,1.22570930818320711352953,0.416680343012751974729468,-0.030839552699538044788774,-0.016038523089390542553101,-0.00715000897864524146557708,0.00416091115986007720889406,0.000288091672504373291861107,-0.689686356676636913576317,0.724095602270334870453894,-0.0433702406777315696562169,-0.00216330584112171819821668,9.83446961139646091965005,0.000416007811967782645604097,0.0126088269065297818583016,0.00591966454128666288991845,-0.590064256563754718776238,0.327533134533344760797036,3.52885629118403310044982,1110.85266847050797878182,1104.77408948670517929713,1099.97117293107157820486,1102.3657626516676373285,-3.97134832560729700290381,-265.807391971262234164897,395.51685143764689200907,701.509885633960493578343,149.817414320528826010559
131.262499999999988631316,-0.180888094727818055096336,1.30071563285647018304303,0.619873535201823422369216,-0.0310897460829700142403986,-0.0112214545403039704651871,-0.00457694729101087039585538,0.00410920489867861588040299,0.000279294518651985589508674,-0.689685210770753398534794,0.724096990468901968718285,-0.0440321779938413065957903,-0.00538247850914023995283486,9.83490613615559716720327,0.000378995911310216551659558,0.0125655739313139582641332,0.00599726894635751670015189,-0.590034062113439339292142,0.327530634594111802471161,3.52887620572566307330931,1110.76327948342736817722,1104.21749848059948817536,1100.72295940253593471425,1104.24572514613623752666,-70.5607126813261515962949,-144.624444411184157388561,164.630229054669769084285,661.062751885019110886788,149.816285902571536325922
131.265000000000014779289,0.0337898252461330400597816,1.28525519801584731105493,0.722823441267429700474167,-0.0310803710623157314341114,-0.00705281854536095754309999,-0.00148985188267429275073284,0.00406175535103670774100815,0.0002538335418693671058539,-0.68967192997778070662207,0.72410993561726821887703,-0.0445040568102130634775548,-0.00822854173554762174935817,9.83517654819415021449913,0.000328657567770703547705563,0.0125163925456350591525201,0.00606840899586053202086067,-0.590003354501282273325558,0.327523908164918053920189,3.52889645901216653101073,1110.49986490709966346913,1104.05096726464580569882,1100.79432407634885748848,1105.67107641110851545818,-150.77117414926618721438,-9.97939214243852568131388,-55.6682784957572422968042,524.480510991221763106296,149.815391558094347601582
131.267500000000012505552,0.222362931195804358619483,1.20069212696706628662469,0.72798669988173525524644,-0.0309564415905228991487963,-0.00364123056300691460077101,0.00177413919863683515985853,0.00401686875285850800154641,0.000219360197297145242262273,-0.689651801399768449307714,0.724129401256148996779416,-0.0448395925017503194087709,-0.0108123844248048453509092,9.83529101401621907996287,0.000260873893652317139033731,0.0124620374167263171100162,0.00613280885910200655730673,-0.589972256105413372928581,0.327513368915813007919979,3.5289163835751482523051,1110.00942361267743763165,1104.16760151988705729309,1100.44461801005581946811,1106.8681277011048678105,-263.387341916553282317182,108.230556014912721707333,-199.208730602958183908413,460.669436112867231258861,149.814544521691942691177
131.270000000000010231815,0.435876266568373915699652,1.04897696671675078050612,0.619504926286795098988591,-0.0306235846219165622206226,-0.000674726280856431052251887,0.00519102331659214606685016,0.00397453906654402031733975,0.000187789301587086820402236,-0.689632072731805823018192,0.724148473140912241063916,-0.0451688455199882460400218,-0.0132819107559541196850184,9.83525935501726067400341,0.000172802539412529756026118,0.0124031184727787565508228,0.00619097835114471636147604,-0.589941171913468509480083,0.327501610806274989773357,3.5289360285827755525645,1109.18292819751809474838,1104.5921200447198771144,1099.79828042333497251093,1107.97442359167075665027,-329.319699555962245085539,195.634688053583545297442,-234.565149081740457859269,346.534598329205039135559,149.813581643047200486762
131.272500000000007958079,0.61075432546736296846035,0.903907863139550848963211,0.451812406692488177650802,-0.0300504477306325172569768,0.00107855437526864061242859,0.00709944382634468493936675,0.00393398819128762400332278,0.000167254801706509184525476,-0.689616077174916575209807,0.724163973246505165981546,-0.0455524811537421914220403,-0.0157465489651094567302714,9.83509128504871554810052,6.35680073457872121724804e-05,0.0123401703489010045738938,0.00624403455329749536295569,-0.589910434316955445410713,0.327491144111708820663154,3.52895428229525975893921,1108.36282511489912394609,1105.14577496015408542007,1099.27179226464818384557,1108.60080069274931702239,-329.858625864135206029459,254.067206554786082506325,-167.02182474488566299442,192.488754479829822230386,149.812822655971643825978
131.275000000000005684342,0.781667988947323477688656,0.760294280930085886183178,0.241019930140632554493862,-0.0289197191543385870304839,0.00247215609621148938931934,0.00783532032817613535713441,0.0038954819235917661178481,0.000161671332839674689865403,-0.689606799637147549475458,0.724173053392691556950922,-0.0460029591743948557125421,-0.0182458921397387827112446,9.83479532547307755407928,-6.58256593975157844106025e-05,0.0122736748788106336816028,0.00629349683527779917013856,-0.589880069480850699470409,0.327483297626935121460434,3.52897025909143557953485,1107.53363506819891881605,1105.86245607749265218445,1098.96317129961130376614,1108.93686736406903037278,-311.466394926730060888076,308.449616355354407915002,-67.4424197537222767095955,94.6355317319509055096205,149.812106792742156358145
131.277500000000003410605,0.94101029077735265371274,0.626069047330869654643948,0.0260385550816467463419723,-0.0271391434712463901213209,0.00376506637103246480716146,0.0077938543249608778842874,0.00386453706187631041910069,0.000170539138118234231272785,-0.689603300378653472080259,0.724176574889910940058257,-0.0465414679559221222682197,-0.0206861090916130967165554,9.83437752764489125922864,-0.000212653138411888191104324,0.0122040881693534931234923,0.00634093037536904990947306,-0.589850158382518641175807,0.327479135854817748896295,3.52898497456250170856151,1106.80549314026688989543,1106.68802304192945484829,1098.93458016587987913226,1109.0739783514086411742,-244.966455155004013022335,352.868787352192953221675,61.3656230524714985108403,21.9956362300508736495885,149.811424892522921936688
131.280000000000001136868,1.07032405277499353957182,0.505812079942044579006222,-0.159252273894791962494111,-0.0244947063724503880099981,0.0048860418259181817579595,0.00699703641972717303720852,0.00384282353291844807133271,0.000190714796259018848053127,-0.689605141143310840234903,0.724174945291737537367283,-0.0471022902593241088453624,-0.0229941805265009083236727,9.83384274240456690563406,-0.00037298139530237599606477,0.0121317327525783062031062,0.00638785941671474177816492,-0.58982053570878256731902,0.327478667475873008729792,3.5289987108570888274528,1106.30880279242501273984,1107.62680001425201226084,1099.26999941487338219304,1109.04684554521918471437,-149.699519687692088609765,436.57754289428027050235,211.467724668238105323326,-28.5702294350163086278371,149.810781348513671673572
131.282499999999998863132,1.17037173706459363131671,0.375520853154996059330983,-0.312529674102619559050709,-0.020598514467323799509435,0.0058991853925544398412617,0.00550788509487442311252092,0.00383040463839339623275393,0.000221745333060435891947906,-0.689613962666239865839657,0.724166603281778509249023,-0.0476411716310384120154353,-0.0251583999187313944734257,9.83319354952156210458725,-0.000542295467280750047994742,0.0120567697093013920933702,0.00643560880185597809777232,-0.589790805560278186270295,0.327481815778319973464505,3.5290114832076526774074,1106.05699554182911015232,1108.87091075639887094439,1099.99191878922010801034,1108.9311272042336895538,-34.5515083956202531112467,472.928449224466874056816,285.601549977432682680956,-43.138965097971905038321,149.810049545690162631217
131.284999999999996589395,1.1985600192495939886328,0.274039312114440158918427,-0.366354929764106662659628,-0.0170656406406590015201186,0.00673601734823979850230735,0.00387629113849290640389511,0.00382456413594418767956662,0.000262868656400721840277201,-0.689628725444351498019557,0.724152557682810504857684,-0.0480781595355572188843496,-0.0272031139364171947736537,9.83243098740502574628408,-0.000715805208331611857869303,0.0119792561011422514505309,0.00648510259765241320328855,-0.589761024823484025780829,0.327488309822253409464565,3.52902345507345360786644,1106.13604525044706861081,1109.99144226037219596037,1100.69800716475924673432,1108.83115071972952137003,81.7885893229065743526007,458.333925922450646339712,253.364471362923154629243,-32.1225488162618830756401,149.809470194801178877242
131.287499999999994315658,1.16917752902189686636802,0.173127206599831440225756,-0.336356886216051864657572,-0.0136129704136202615838425,0.00759078509230990544631723,0.00223777196933176714122027,0.00382179540014614214232802,0.000310808610388298156568254,-0.689648027095102422734385,0.724134166935579970392212,-0.0482940986410418382490661,-0.0291307429472114770563351,9.83155490233058948490452,-0.00088898609562831605937494,0.0118992453624324739241969,0.0065366446014285695814694,-0.589731250817314589518503,0.327497241236276603881805,3.52903514997079259529755,1106.46593848844327112602,1111.16258038600904001214,1101.25874114603357156739,1108.77051446015252622601,185.344826104287989210206,511.677485904021239093709,155.214526584091089489448,-18.6967889466074623783243,149.808918266118013207233
131.289999999999992041921,1.08098587503269838450137,0.0488183204346230720238609,-0.212222245341392196094077,-0.010249513170161613992426,0.00810375255081595934070204,0.000803903881413238095496321,0.00382783615617381589232848,0.000362412793665539266930314,-0.689668301113058657136889,0.724114798739082132783551,-0.0483046199482024124494117,-0.0308141519773978793395042,9.83056248973051083339669,-0.00105802522938873411716132,0.0118169176849171730231403,0.00658969039686087450224949,-0.589701861909550317797368,0.327508679880705699805077,3.52904822616879387808808,1107.06276938096766571107,1112.54982968988997527049,1101.47407979767899632861,1108.73766677499656907457,239.516146993436933598787,489.662941088444938486646,-28.3465917297947704867056,-12.2068766512367865573196,149.808282777508708250025
131.292499999999989768185,0.97856640073988054862042,-0.0567985397869053484920521,-0.0509819842474275794486083,-0.00826038513761761204745593,0.00805233124823491117072471,0.000224975898790515192043893,0.0038456096509486229623187,0.000412750455851572503520458,-0.689683828770235818339529,0.724099887309514911315489,-0.0480693599455279535481722,-0.032142525058135459903319,9.82945127663983342358733,-0.0012200255243116286344579,0.0117325092960451782958531,0.00664310829651160693332113,-0.589672991222253140009002,0.327522274557432990782502,3.52906350529414591932209,1107.663519223409366532,1113.61089509144903786364,1101.11700818738472662517,1108.70948007689639780438,249.441901636774161943322,381.655927398511551018601,-269.882869096348372295324,-22.1698061874882199617787,149.807772296054395155807
131.295000000000015916157,0.861179765361948512669699,-0.16273422993034156180947,0.145242232834544904296337,-0.0065260751968857968335902,0.00791371766745327040459834,0.000360843206676572355109944,0.00387117098232142142072432,0.00045344546147967692032929,-0.689691414786435585959623,0.724092501926431597603084,-0.04741266432648509610015,-0.0330574236341747984546657,9.82822051110893468717222,-0.00137337922979521051373986,0.0116462638934347918751033,0.00669547056351611422075898,-0.58964423800128462627157,0.327536075394619929923579,3.52908083820669782326718,1108.30997888915749172156,1114.45810932689164474141,1100.12466545219081126561,1108.62681774405859869148,283.760172207721780068823,296.917117606554882058845,-571.925682456228400951659,-57.8125631050593113968716,149.807278137971934484085
131.297500000000013642421,0.710922786673257700584827,-0.287160203357235244148171,0.389746165299663549497211,-0.00429272200630293615519761,0.00759458356985919305626176,0.0013726279425307034032927,0.00389549635162913642644211,0.000478544850528878898052176,-0.689690085686583187474241,0.724093624671841129547545,-0.0461306976369790788794489,-0.033606781976162541925035,9.82687038943324786544053,-0.00151791749839491618701004,0.0115583815265384113463165,0.0067453929510517323872576,-0.589615652064873208004769,0.327547073151556844550214,3.52909902235255801272729,1109.082320084454750031,1115.09548067948890093248,1098.25737977508993026277,1108.42041726136972101813,274.664355290064747805445,156.419977203000968302149,-771.509619475338240590645,-94.1074654540390014290097,149.80670047224617746906
131.300000000000011368684,0.580472271679569162827761,-0.383380251467056343273043,0.579666244387125773052105,-0.00252682775453967568488056,0.00691872944443601162883839,0.00288232143099537282612821,0.00390807896019436037948758,0.000485344276458108867498831,-0.689682109279764476994501,0.724101155565988752194073,-0.0440512536615703803599686,-0.033905069245366542540765,9.82540146226132193874037,-0.00165470824716328675924037,0.0114690329593507226585425,0.00679167086466875985495406,-0.589587026328404317787601,0.327552246362717458527669,3.52911709129290818154345,1109.68330066560656632646,1115.24020921290593832964,1096.26711735481762843847,1108.15628041678883164423,221.233477555389271174136,-27.1508119331221244863173,-841.324205639731530936842,-117.03290922734325363308,149.806229602668764755435
131.302500000000009094947,0.449375393536691869478261,-0.462249341434907368153517,0.734678549153910620539421,-0.00121317631709747181592562,0.00602506085505496308263318,0.00486040240498416577230589,0.00390886701360426691564953,0.000479202855615503710545039,-0.689669920357807164634778,0.724112770624840473843165,-0.0412636792076436359488767,-0.0340280119248366069717449,9.82381215680404196177733,-0.00178543968297915000773002,0.0113784364178579743692721,0.0068331773261361044083384,-0.589558249446008098004768,0.32755239390968959867223,3.52913577369874209566092,1110.18848747223069040047,1114.95972661982341378462,1094.05075874689509873861,1107.83525271523353694647,178.972053353599193314949,-174.958912415308958543392,-885.986505772858436102979,-126.934042858762893501989,149.805767366291945563717
131.30500000000000682121,0.323326283880510600976521,-0.518036510256293936116379,0.850226837920194156161813,-0.000333312090365036467736609,0.00494207131605245778005475,0.00698666061578579605795269,0.00390355638191035260106676,0.000469295971218779660316667,-0.689655305654582106988926,0.724126729067717911370039,-0.037994425984070656632241,-0.0340218919949946477232494,9.82210025453178658949582,-0.00191149760685271788256123,0.0112868649722367188348304,0.00686892229970033872665791,-0.589529486780832390202534,0.327551032901714000988846,3.52915517554644653230866,1110.57816093237374843739,1114.36541465083018920268,1091.83718482595736531948,1107.52161020249559442163,123.2652263747907142033,-291.187962350969598901429,-840.506358945631745882565,-108.347089477418506930917,149.805310884097650614422
131.307500000000004547474,0.210491489991891322919315,-0.534110902007076226993831,0.910328714929847127024232,0.000110796181556945883602688,0.00317256695387946752867636,0.0092969325755229113850131,0.00389690675945495151183406,0.000461361157101852661747976,-0.689639586979214902484614,0.724141742686117972915838,-0.0344134612689462326962087,-0.0339004609726463873586866,9.82026479352471781680833,-0.00203329514761819334436876,0.0111946666929358621539459,0.00689816288108256216171643,-0.589501108607277779505296,0.327550473229817173947964,3.52917516876108017243041,1110.80481360410408342432,1113.50378680806988995755,1089.84822695217076216068,1107.29351726784693710215,64.8221166272513329431604,-402.930591500446951158665,-775.365383286657902317529,-65.0710947365633529670959,149.804859968399654235327
131.310000000000002273737,0.0971711393970932924002426,-0.497004749320811178847634,0.912508681318641712287842,0.000310099982680944578645327,0.000539143321624965983496214,0.0123444089200036612175015,0.00389234276060929041893277,0.000458257742719088813701522,-0.689621439085208898234214,0.724159054695709514248847,-0.0306374023183810795245563,-0.0336579779180017080175702,9.81830573981415355433455,-0.00215006199086701299191815,0.0111022674010767541386002,0.00692051050250481677994507,-0.589473487740288959457757,0.327551005986299548222718,3.52919564458217926983252,1110.90227151550971029792,1112.35076169332978679449,1087.96035790952760180517,1107.19625472881307359785,15.5669494527188057020339,-415.171761305705501854391,-584.541779359082738665165,-2.37717895925232092224633,149.804323710716005280119
131.3125,0.0234769669057284142976716,-0.421935074182665570408091,0.855719178222760112895173,0.000312249966978111689625691,-0.00118598782249808428965188,0.0149215370467245065505546,0.00388794341503729667247624,0.000460200625075707792782653,-0.6896032636859477094049,0.724176387666394583142448,-0.0266789846827052423705595,-0.0333306019534109210233908,9.81622410910027554109547,-0.00226006444765017994180667,0.0110100583928072308370627,0.00693607256910136818484069,-0.589445994590277910774034,0.327551619053845610718412,3.52921537662117401623618,1110.88264835136760666501,1111.42792800154325050244,1086.92551805537800646562,1107.28163137305068630667,-12.6631290951196788796551,-337.545754392647324948484,-288.622319983404509002867,61.1849790473217467479117,149.803879705435662117452
131.314999999999997726263,-0.0287695326275111823433051,-0.317689479728472501385284,0.744492390564854056300703,0.00024194289535775577340386,-0.00179824322513689690596073,0.0171563146408023892153238,0.00388277828365361354218122,0.000470993569216121132220421,-0.689590675502955718911835,0.724188395458544298399772,-0.0226220587041887771784232,-0.0329904935442764946085248,9.8140200382509821253052,-0.00236076990361737838047818,0.0109183779509672302526768,0.00694538012918885505619926,-0.589418357151484162415045,0.327553581862171094840619,3.52923431930851805304883,1110.83895587003416949301,1110.66303292136808522628,1086.51724630961189177469,1107.50217962404940408305,-6.09339182483935815071163,-289.293751810091009701864,-40.0989243750155779366651,104.937284892916920853168,149.803437289716782743199
131.317499999999995452526,-0.0688696418306344870785551,-0.18185976161134392858898,0.563714959706549167961498,0.000135984976918483246952768,-0.00170010146629141702286081,0.019101244689311666635767,0.00387558195448019227047354,0.000492792956757918585407319,-0.689585670864537370050584,0.72419318299166302033143,-0.0185295756019936003200499,-0.0326927747352618799925317,9.81169333120569930883903,-0.00244867585176998525664516,0.0108276250038408291404002,0.00694923451595973965672082,-0.589390686337523117543924,0.327558528860951658767675,3.52925214259317598930465,1110.85218139224343758542,1109.98145924249411109486,1086.72502343350311093673,1107.80631779751479371043,24.1468863471929111597092,-212.222403466205122413157,176.183095216334720589657,95.1171551847847780436496,149.802906594177613897045
131.31999999999999317879,-0.0852012828527757698493517,-0.0698357680779227024681077,0.387719223160274129025282,4.84058508222870084985318e-05,-0.00136185621823174565596382,0.0200908040606371449121603,0.00386654304045399048114784,0.000525313813184122811728027,-0.689587910278336213565353,0.724191075241001902540461,-0.0144563127953134668013391,-0.0324398159895916554651407,9.80924316870045842620129,-0.00251964934727715592424624,0.0107383426415014575361351,0.00694850512243705246973047,-0.589363047081769897417303,0.327566974522763676436199,3.5292682381713742501006,1110.95969030177002423443,1109.60192090403802467335,1087.39816178569276416965,1107.97776539997289546591,62.4394497036632287745306,-120.269064714439323893203,343.076430268586648253404,24.5306675392153294978925,149.802463316630650069783
131.322499999999990905053,-0.0847533442984662599428702,0.0401776745917922437079106,0.201182772848570140533653,-3.5361336585001849691038e-05,-0.00105722284935165131668222,0.0205505442745930501369234,0.00386294555060651785202697,0.000565521058404180616135948,-0.689591609989653187007264,0.724187543701661051720464,-0.0105201448337535613530846,-0.0320968768509600765881373,9.80666752336375679988123,-0.00256934735340118422172728,0.0106513569085307496092652,0.00694380894127165013141045,-0.589335897779714068533963,0.327579516769745560100802,3.52928326519962398677421,1111.16437864076146979642,1109.38011391892246138013,1088.44040558484448411036,1107.92897113521075880271,98.0105434804936663795161,-70.0629923860288386094908,502.818527576894496178284,-93.3063583729047536508006,149.80201752824251570928
131.324999999999988631316,-0.063583577712750652399798,0.179295408673504685914679,-0.020661556943109414541393,-0.000136362631645498824303764,-0.000842605095365154535200225,0.0206385913361511220964761,0.00387085558528455810078928,0.000606606644950359488559222,-0.689589290565089885198802,0.724189684367560593258872,-0.00677361886171028160230634,-0.0314971827743076165928571,9.80396451288785897304479,-0.00259379988168071274473592,0.0105676950696371538956919,0.00693545735973287013481636,-0.589309682410922741624404,0.327596044368506977839672,3.52929790772402984799783,1111.44974301917204684287,1109.25160594210819908767,1089.91225442357495012402,1107.51123360810879603378,93.8642661078185653877881,-28.2571327537440524224621,547.340285046517692535417,-216.531923881087294603276,149.801478000986151073448
131.327500000000014779289,-0.0262775695777723826418448,0.309794839106600328193508,-0.196105955793156733202309,-0.000219855546498083604745402,-0.000750610773341923889594163,0.0203763649722978716638533,0.0038916925887043330931081,0.00064380339361021492617515,-0.689580547519970998848748,0.724197877233560771692567,-0.00323817715574043624160439,-0.0305699744582811627768848,9.80113265097033803385784,-0.00259028856079014310753728,0.0104883857521135080009822,0.00692347199294654404994054,-0.589284485677515679213911,0.327615714994475171195631,3.52931298380197722153184,1111.63369997130280353304,1109.23882825515306649322,1091.17710701009013973817,1106.84631151580015284708,38.548911379573489455197,12.594497086851223599524,485.193111878836816686089,-320.445810448943745996075,149.801023349577036469782
131.330000000000012505552,0.0354807233543526640007215,0.46101131679552731501559,-0.353901867128463942790972,-0.000283726176515397229306592,-0.000585961465850292663459786,0.0197460660666540534224911,0.00392018410859327690043408,0.000678408706299116225947599,-0.689570566370630744224002,0.724207207033294886322494,6.86107471137911706371426e-05,-0.0294231167680144359288796,9.79817129989564961078941,-0.00255785357686648092204185,0.0104143147285413271291299,0.00690765708439438665122712,-0.589260721810335508230594,0.327637047719921248312147,3.52932859065808379739337,1111.64248757607083462062,1109.31457842754275588959,1092.33821998298071775935,1105.90900455585642703227,-41.5852024967003544020372,44.6122120401874866502112,432.693571314696498575358,-402.157171951241423357715,149.800561994704082735552
131.332500000000010231815,0.120342604224279739466574,0.625988076547999705567804,-0.491107535418484009159812,-0.000295897072177175358715512,-0.000164155369831823941088877,0.0187614333026987177566181,0.00394840383641649299295562,0.000712542993927884693930452,-0.689565055737871746011081,0.72421227652649156070197,0.00315540087782316402975624,-0.0282138650611110236576806,9.79508115554450142781207,-0.00249749530657026371643914,0.0103462174190036299697981,0.00688752611539199775803066,-0.589238122036175648865708,0.327657645248741635768397,3.52934454011291132147221,1111.42577395881949087197,1109.46188931535380106652,1093.3405748666616545961,1104.83552565604577466729,-153.059518695775352625787,74.9546996122944193530202,354.320691264960544231144,-434.324212454370638170076,149.800093985773315807819
131.335000000000007958079,0.234481177466263124298251,0.791104101503826706576206,-0.595918074363550598349093,-0.000169118044664924593607075,0.000872107288202397389238751,0.0173288065061068773109465,0.00397324512803157170459656,0.000748530092321205440045184,-0.689567823226212905929344,0.724209474623442539531482,0.00596762726090692419145256,-0.027033900793361698849937,9.79186406056696867494793,-0.00241227097441094927646188,0.0102846222223634750636556,0.00686224227421146880379066,-0.589216245354249434917904,0.327676385148938875691016,3.52936192473345533571205,1110.87718998259265390516,1109.689351925603887139,1094.10982343930390925379,1103.73738349358654886601,-319.222284957885904077557,113.793425576672049714944,283.449419614529176669748,-452.191534150190079799359,149.799616630129662553372
131.337500000000005684342,0.402198167519729254948402,0.953529224353602433694732,-0.675680810120189656586831,0.000283935461732365854257282,0.00321631250231810793260845,0.0152866139084580996559959,0.00399204314695313436378576,0.000782594524410234375702555,-0.689578007476634780026359,0.724199639397060779266724,0.00853866499205182399867553,-0.0258859289106518133949386,9.78852421018446250400302,-0.00230694798573595309665318,0.010229760951721846365392,0.00683077898456784567832178,-0.589194366852857420724376,0.327691256541345621311478,3.52938032775458276901759,1109.8296625340315131325,1110.03085644323664382682,1094.75782196473301155493,1102.57456798529688057897,-438.506619519228934223065,129.744029957764496430173,194.841279967881604306967,-377.24184089677441988897,149.799031293987127355649
131.340000000000003410605,0.560532906097522931609944,1.02723717212505127882594,-0.699688093561893098559779,0.00102747377710440544913706,0.00624527623683324845105247,0.013670488485486910826272,0.00399950255433819974043574,0.00080694125065055547114945,-0.689592562461755376190808,0.724185706453232436174972,0.0110038167465757105722979,-0.0247552011125768411936576,9.78506859907641413087731,-0.0021876308931543303124001,0.0101814476699605086645883,0.00679217132176601710163988,-0.58917156089799893603498,0.327698835487919837294868,3.52939872274085697512191,1108.68465688499850330118,1110.33807207539211958647,1095.08402983914243122854,1101.85117428910439230094,-491.250434211716537902248,114.599887524186300424844,90.5528611460254495568734,-218.526908400798248521824,149.798531851844217044345
131.342500000000001136868,0.723350391962820804536705,1.00350466840901009213383,-0.6760905538609507381409,0.00224792359286310906157924,0.0101447385936077327794891,0.0121108504120584024171814,0.00399402536798637575188309,0.000818584110987622868248204,-0.689606906278399933718504,0.724172050031489100696547,0.0133910722259524272992337,-0.0236385665739550082653508,9.78150632188496516050691,-0.00206111154354625533344225,0.0101390956698738637226098,0.00674558806491545003003463,-0.589147492119826088341483,0.327698209586485544875245,3.52941636833102112547067,1107.37341036297516438935,1110.6038558808570542169,1095.2105862704627270432,1101.48193344329388310143,-582.209122875412731445977,87.0437710821416175122067,13.0216186344687425702205,-71.1942783296955781224824,149.798018836896801531111
131.344999999999998863132,0.899255920166674771465409,0.846166562915305786596321,-0.5877780540797888919613,0.00437337377586674569407421,0.0147206828908324101334859,0.00955457484072144008768745,0.00397783676563847297946719,0.000815304253444876941316066,-0.6896180621672162169844,0.724161496647785507541073,0.0156773363234725127135505,-0.0224878263878907254380568,9.77784898771987798227201,-0.00193381115363157047963572,0.010101856311307047184278,0.00669025496311461027876266,-0.58912220701757689322875,0.327690978964315149379871,3.52943221306934384884357,1105.7736112706240874104,1110.77329093080243183067,1095.14913793231471572653,1101.4952028974562381336,-568.216536489279178567813,21.3023670777341074256128,-56.8624829539265732591957,77.4443244763710367806198,149.797385840919986321751
131.347499999999996589395,1.00809985723700346049725,0.617490332930712537695683,-0.464385698122751044980561,0.0069616110379260090490483,0.0175968158450288542082873,0.00691261962842856358263388,0.00395597133333912536617971,0.000796552520403895716362419,-0.689626485284131174324784,0.724153588024792682631414,0.0177890188051916114941875,-0.0212359683815085686919844,9.77411093326133695313729,-0.00181076049592869894877545,0.0100687422220191620525487,0.00662533156975741305272365,-0.589095829722011243845259,0.327680030015784773400611,3.52944680805590182970377,1104.53232768053135259834,1110.71036771624562788929,1094.9262738556933527434,1101.86915506567538614036,-457.10391388429991366138,-82.7128543973073817596742,-124.36092816772030289485,208.913798180727923181621,149.796842692648084494067
131.349999999999994315658,1.05344974089496501434837,0.321806508441588146052226,-0.30605908859384017839389,0.0104316577739166343324895,0.0190614704548771815573183,0.00491052770465805026034456,0.00393477258327926820991038,0.000767165885923550439767782,-0.689632106031325409212229,0.724148354109174108295122,0.0195687411480149897613501,-0.0198681818200929158346746,9.7703093580851039234858,-0.00169478116858994020711704,0.0100387527316717992814654,0.00654980410295303433487746,-0.589068898004898700015985,0.327669921458107638034818,3.52946153711064880553749,1103.48809170120466660592,1110.3597266588162710832,1094.52733329147667973302,1102.53977188835892775387,-401.801079980534098012868,-226.852296334006354072699,-216.650498210325764603112,332.924758102247267288476,149.796282187701194743568
131.352499999999992041921,1.02027191028555019869373,-0.055270219748200122289461,-0.120678852406928646678885,0.0147361137007701436391072,0.0191397285789013868462227,0.0044765730830948063934116,0.00392390298610158401448889,0.000737328383423404665024392,-0.689636751535879999330803,0.724143996239849707663438,0.0207475036849445945708048,-0.0183927948611674017820317,9.76646411715895901295426,-0.00158640321294513907124379,0.010011008518707363579292,0.00646240747234225892947634,-0.589042015896905302163589,0.327665113507828675842859,3.52947794258319547111569,1102.52332228063050933997,1109.57610623457662768487,1093.84302136464270915894,1103.53377885618510845234,-303.891326153556178724102,-341.326591939870297665038,-286.172729321139001967822,368.416518323300294923683,149.79558876199257611006
131.354999999999989768185,0.924173555491429432606765,-0.346979093989371545347922,-0.00945613852460895111529116,0.0177286846506774231624348,0.0178964177421775880172383,0.00571812182719080418918933,0.00393260655312029777652683,0.000718201178778019098773722,-0.689638968760199810859035,0.724141842480148345551072,0.0210556235851116768653668,-0.0168352415000553382040671,9.76259784164683530605089,-0.00148414794556593729497884,0.00998485112295517153457869,0.00636180731902554093271096,-0.589015996250697115854678,0.327668935328998156553126,3.52949730778760706328967,1101.96863507043826757581,1108.65309369911847170442,1093.09646964487228615326,1104.38185447997375376872,-173.071020229773580467736,-403.978215107808068751183,-337.467738593002934521792,308.795272458045303665131,149.794993376699807186014
131.357500000000015916157,0.777248672730191159097046,-0.57531554854792310571554,0.0229896742408106646848864,0.0198235432594667387862231,0.0155408515001977925312771,0.00780699584130593697561817,0.00396225113936778030460095,0.000711226369821887655781056,-0.689635800863627745904694,0.72414470187153534563862,0.020473071310175672277154,-0.0151996690834067180175815,9.75873613077734702869748,-0.00138547989772771162030052,0.0099598572556209383904724,0.00624695636124370911462789,-0.588990776143849981139056,0.327680780518677217116874,3.52951901961528191620232,1101.65796717947750948952,1107.55621515902794271824,1092.15568267166963778436,1105.07775521848270727787,-87.2021186234107403834059,-444.048506629650319155189,-410.2742216822626346584,229.92106609057637456317,149.794380019754186150749
131.360000000000013642421,0.608340990938076142668933,-0.733641546022534396520598,-0.0139187483402068157278819,0.0212298931994879674922672,0.012665471902755692443221,0.00951584963668512806567179,0.00400930377716352676076284,0.000707899782375498161195171,-0.689624597787033666307366,0.724155120812693509080304,0.0191913430877850080258362,-0.0134241133332695730673301,9.75490657534890104329861,-0.0012881376002244408589259,0.00993581597484191267333209,0.00611743636962635249643139,-0.588965823463108772983787,0.327696160783481571510123,3.52954118954250306572362,1101.53262447731913198368,1106.43285116595961881103,1091.04509853645117800625,1105.53145981043212486838,-9.3378821874551594106606,-424.048139743285048552934,-484.324241816088317591493,103.409390633535991810277,149.793752258459250015221
131.362500000000011368684,0.435909165005669951842293,-0.805702224310181347455284,-0.111287354632532323184257,0.0219445786762184451290647,0.00994294536702623743540386,0.00966394043714218289875539,0.0040645759708284739941675,0.000703782599474433111751137,-0.689605850052707691766329,0.724172682425810787520959,0.0174249174850171217876493,-0.0115800488141666324537482,9.75113818969982482087744,-0.00119124327289118017193792,0.00991256026785575228288394,0.0059738672908013048037934,-0.588941251607902560571972,0.327711053128951657065215,3.52956169257448504339436,1101.61127776854027615627,1105.43597446031344588846,1089.73406146259139859467,1105.59480217164991699974,75.1885157985954606374435,-372.470893167676422308432,-613.08776741631220374984,-71.897178920036722615805,149.793108134849234147623
131.365000000000009094947,0.246631690519951873863391,-0.81087426739943246900566,-0.250481995556821879223008,0.0222884857895139718020339,0.00749567059851574939849383,0.00804479618567439415388609,0.00411840882360770075415468,0.000693653650344716577423598,-0.689583188774075539484443,0.724193983893723136624487,0.0154099567512969159999159,-0.00973411509684012077325832,9.7474604055648708111903,-0.00109560457038561419665368,0.00989003461596555701051958,0.00581771798500336188852966,-0.588916588389770900846543,0.327722519063413986195599,3.52957860456114591585219,1101.9085670563117673737,1104.57049670012293063337,1087.97965969937240515719,1105.17197391583226817602,134.069587555708551462885,-242.047289882331881472055,-657.357746541454048383457,-232.400644149977239294458,149.792318087926133785004
131.36750000000000682121,0.112086111690013146002798,-0.767668614543483562862036,-0.354941866882572398811391,0.0223155822216732115104154,0.00607450975036654804845027,0.00607949207716849352595156,0.0041693651249586072271569,0.000675577109413130153653393,-0.689558802648772894983153,0.724216947532413501953386,0.0132304323558334532839886,-0.00788037457085206255458232,9.74390151761913259065295,-0.0010034601387194487607385,0.00986832881447423197751601,0.0056508926631505321247495,-0.588891569744717791046185,0.327729178501217521812805,3.52959187819276376529842,1102.28162570631820926792,1104.22573801090288725391,1086.44727272988711774815,1104.43279895090108766453,157.27591652390154308705,-45.6658319392278500004068,-598.840064792328917064879,-355.801515862873031892377,149.791647114170160648428
131.370000000000004547474,0.00380360078795986822353115,-0.696026414161088569088065,-0.429973308690131672538115,0.0220901292383145000930433,0.00488573965969538170917019,0.00438492902747010786929094,0.00421865891614135041232103,0.000653840764926932166943574,-0.68953531823700253688969,0.724239059470639157112259,0.0108518801392192970611816,-0.0060587923707553850705132,9.74048877161997239682023,-0.000917932647545945026162917,0.00984760200257795391409754,0.00547539703531259823454658,-0.588866480286011406697355,0.327731351537965176490275,3.52960232903333936960166,1102.69494663893055985682,1104.34216754042699903948,1084.98545937541348394006,1103.39296633651952106447,161.620065164480934072344,162.314677977712847223302,-587.6273185675360082314,-492.957505403858647241577,149.790964919334214755509
131.372500000000002273737,-0.101363930600163937301161,-0.590636555574954646985475,-0.486877970233408396971697,0.0216085633669311633076049,0.00354471424421293418785539,0.00280723002803695857385047,0.00426727968956171210823669,0.000635101318032870116106481,-0.689517153932648563241514,0.724256100687666215520721,0.00821438626591997761439146,-0.00434423068824655450592687,9.73724853575860116450258,-0.000842347261459896936436342,0.0098280901890899895895215,0.0052929256051879106093061,-0.588841525997917503154611,0.327730613326656372574774,3.52961153944896466327918,1103.08972603213987895288,1105.03731140079071337823,1083.50913613705210991611,1101.96801142388403604855,104.307327450946388580633,343.951952419814858785685,-468.152422803330523493059,-525.241800724939139399794,149.790134609883068605996
131.375,-0.176915617019315990487982,-0.48948262994801483571905,-0.514163998940381117286336,0.0211900274954427252083189,0.00220989917500153581000899,0.00169726123207903311328193,0.00431809341481981766308618,0.000627394245949228841936762,-0.689504607075404618576897,0.724267763187345758879587,0.00521818495865113834986104,-0.00280341285459410893832199,9.73420607626209566376474,-0.000779568028394898968232163,0.00981011690627840889089573,0.00510458511149033088150073,-0.588817284387702977177526,0.327730257805490754474675,3.52962130340814317364107,1103.21648327618481744139,1106.06192730252450928674,1082.64469726139896010864,1100.76675733289721392794,-14.7185817364649835781165,491.476982739406139444327,-246.847655210828492045039,-455.367426406160461738182,149.78943322352040468104
131.377499999999997726263,-0.253247023317713981782617,-0.374531788903406104296323,-0.530504823487830901029838,0.0208718739933560562538339,0.000730976039401523103138103,0.000761182702751676733970987,0.0043711267721098312835637,0.000630371996275915945015522,-0.689496663989830449459362,0.724275011345632435677544,0.00192365176831685996683419,-0.00143052112688381999339171,9.7313864864979997548744,-0.000731802056952762856704975,0.0097940483575516337766409,0.00491084505231374930656063,-0.588793822432293278978932,0.327731889447863411479744,3.52963180556455391467807,1103.01613312345762096811,1107.49469631448550899222,1082.2748978609990899713,1099.69117429185530454561,-175.985300094022022676654,705.166843269994501497422,-39.8538337300486560366153,-422.89749265093894337042,149.78872153306460290878
131.379999999999995452526,-0.359974158475146022162505,-0.225742555086003299225084,-0.54481844793920086722494,0.0205481011109489436483599,-0.000489010203989460748644214,-0.000264006604203464664577111,0.00442172421421420987902584,0.000638166726063115028085015,-0.689492223176747853763402,0.724278927465932698126494,-0.00146579620651188929913999,-0.000211719423389190863904474,9.72881538124166667103054,-0.000700821773508326743840069,0.00978015975229172031257807,0.00471175019284964576721242,-0.588770916878700645291644,0.327735048476898715996697,3.52964328209973565719793,1102.33655677571550768334,1109.58776151887127525697,1082.44542809274889805238,1098.65226986964444222394,-317.235658577890035303426,810.965227819006940990221,157.345226499553376697804,-332.934578032230035660177,149.78785402380128743971
131.38249999999999317879,-0.467212626537201636267582,-0.101753228663395603459385,-0.552432210318110850089113,0.0201865376219154783743459,-0.000866378148722300538663033,-0.00119026229715885121900054,0.00446403109833837762054909,0.000643157196512429045823223,-0.689489235402680700204314,0.724281505744119202816478,-0.00470508055334908220634915,0.000873534695344242717585104,9.72651876167151741015005,-0.000688251511931513315113718,0.00976855361726360060803387,0.00450711814675299957122512,-0.588748297353690719369013,0.327737460879103881250529,3.52965561237760017121445,1101.42995483056961347756,1111.54952245357685569616,1083.06162399349614133826,1098.02650140169566839177,-409.837767066446588160034,801.970037856019189348444,322.42311186316550219999,-203.703439692393402538073,149.787118056894996698247
131.384999999999990905053,-0.591223299148638914424225,0.00913970447986304015963732,-0.548856005594495988120229,0.0194886664670082879191604,-0.000789069445675074200921562,-0.0023442500916071211738978,0.00449393090376940321228894,0.00063901997949060418673789,-0.689488692035844286110091,0.72428183346356689309431,-0.00759182027109144008658603,0.00185277806144647921859914,9.72452265409038751897697,-0.000695769842945175302946492,0.00975909902586914214384084,0.00429673533310249641803402,-0.588725389257147124766334,0.327736815774617440411021,3.52966744618606087513513,1100.28736794038513835403,1113.59761170814772412996,1084.05754365206325928739,1097.63375267118340161687,-468.480743639082447771216,808.679981429994427344354,438.863357997423804590653,-125.833863965204571400136,149.786365610745690446493
131.387499999999988631316,-0.719990316261425289390274,0.100488398521507926730578,-0.527398367958133218458272,0.0183159207224853487483429,-0.000471980460180769728715383,-0.00368633069130969723628533,0.00451167293995617668667109,0.000618067215848607247503932,-0.689488228450764628618685,0.724282167567503964988873,-0.00996558134445157950409566,0.00283383801166052495812409,9.7228526210936827567366,-0.000724647574142915965565714,0.00975146644623170466559259,0.00408039607852121212483443,-0.588701759255947254523278,0.327731365399335450305784,3.52967850847063280284033,1099.08755111237633173005,1115.59292236072315063211,1085.25594078348126458877,1097.39733208187021773483,-455.048394352125797013287,751.288314799472345839604,499.971408967553657021199,-66.2574924131169069596581,149.785596791593917487262
131.390000000000014779289,-0.836270957999557418283132,0.160539588283686390779437,-0.473164884214312186916374,0.0164068473824296734431272,6.09841596587863316622329e-05,-0.00516253967531812244656786,0.00451931386512421061352196,0.000579960055575848526347726,-0.689485184866026612482415,0.724285028679709119714403,-0.011798634895190812654775,0.00385187298247108289572793,9.72153366777818384036891,-0.00077528468542145819678707,0.00974510286086170338104573,0.00385805803838094700519701,-0.588677166036151167105572,0.327722093962080907036949,3.52968898353013793567357,1098.01212596861364545475,1117.35405328216302223154,1086.55740069691296412202,1097.30246520911623520078,-398.976415833663281773624,675.526345344272613147041,564.069546044164439990709,-15.2889010475243889430885,149.784804985190135084849
131.392500000000012505552,-0.935126989749484605063401,0.190438572031937314310568,-0.3594027036255758589256,0.0133579132954952523038017,0.000918451280263818479326909,-0.00705969744529979723046687,0.00452280786327847322825235,0.000533122772959852071934794,-0.68948231753770738983178,0.724287748693247523945615,-0.0132466013692788819877677,0.00487940316842810223318949,9.72058943908201555927917,-0.000846736526220296780581576,0.00973933706775865874749609,0.00362980909993317968700866,-0.588651090988180913932126,0.32771191457091791709999,3.52969880645004607799819,1097.09266903319849006948,1118.97055408746064131265,1088.07628851371555356309,1097.32088757663223077543,-251.999400407887151231989,481.388033763124781216902,531.319348122798487565888,29.9808288802341671441809,149.783824974781822447767
131.395000000000010231815,-0.967764564025407669767276,0.179381354622453276226324,-0.222314027633526395399954,0.0105690627957485978188901,0.00177679560420401718053018,-0.00854071139190022698972626,0.00452658481692938714779917,0.000490141319719359638482081,-0.689484273501649758131293,0.724285866645804521368746,-0.0145131501913956378890802,0.00581190470161999095388694,9.72004283988465900279152,-0.000936188947812599254853783,0.00973355011027717161031791,0.00339588648952314931667162,-0.588624217435683605437191,0.327704780761315483950114,3.52970886090200197671152,1096.75212896657535566192,1119.76099345097645709757,1089.21399743752454014611,1097.45236935351726970111,-37.577212803705677401922,180.296262625033961057852,414.360042588772898852767,82.4756299193563506833016,149.78298181528268173679
131.397500000000007958079,-0.937946607282585720355428,0.135856664302030305524482,-0.0506223531199017501291948,0.0077408568921178907973335,0.00261950427671792888256741,-0.00950968204718675991227173,0.00452899731526342982923516,0.000459698197766005912153625,-0.689493442410026302624715,0.724277111846393761851459,-0.0156773578512440642240833,0.00651214775253585592684757,9.71991661965599540451421,-0.00103890477252174665868945,0.00972737523205299131623391,0.00315671124439429167524152,-0.588597549840493838857469,0.32770288756571563926201,3.52972002725531552869143,1096.904782969180132568,1119.87203540058499129373,1090.14808872665753369802,1097.73326572622863750439,168.38483594657952835405,-107.227036857063680486135,357.882719105107639734342,164.000607067704549990594,149.782110155249910121711
131.400000000000005684342,-0.828862300144257324596708,0.0609438760903222090381526,0.169760757222305547209373,0.00430983744332855047559638,0.00313878753680263845177167,-0.00939959967208262199556135,0.00452918044807567275744642,0.000446386611345348969463048,-0.689510488420921108243533,0.72426085786900251672904,-0.0167847878545172579656253,0.00690909376080419551646727,9.72023157992483000100492,-0.0011488503310625700244707,0.00972081358920235880094474,0.00291296196702816104218137,-0.58857165978654135685133,0.327707034627330417997371,3.52973225066088680534904,1097.59405314630748762283,1119.22485826669162634062,1091.0034110330484509177,1098.27237238885504666541,313.05571312201487899074,-349.521572528783053712687,270.59611697984166767128,231.023693676598696811197,149.781031203477425606252
131.402500000000003410605,-0.685348359682396712777575,-0.00483891392197332171482005,0.341646628256206008611429,0.0018389001222622379603383,0.00283817531686730460324664,-0.0080594100442240180354192,0.00452339632654187584481775,0.000451558866083131172242809,-0.689533777355847976586745,0.724238686787826435597992,-0.0178113283612451600568249,0.00693497232093129994945357,9.72100647467889622532766,-0.00125948924231002656534684,0.00971418687517475176740334,0.00266587429290675824444801,-0.588547258870695477739332,0.3277170043320024039879,3.52974426261445417551954,1098.47006153478878331953,1118.12442753794266536715,1091.50106931155551137635,1098.88838419461058037996,372.855408582402446882043,-519.167213326335627243679,159.199808314141762366489,272.164794508600778044638,149.780105374902433368334
131.405000000000001136868,-0.509023473754478206210194,-0.0570305268243140317530049,0.478839941570469107556818,0.000109570189663749599897138,0.0020771665006665994065993,-0.00618133466331133828164379,0.0045075579903507212789493,0.000465664941447590532107303,-0.68956109854919456214617,0.724212733001160291479437,-0.0185893129548790198013464,0.00666326092179347212463014,9.72225704677374480411345,-0.00136466692245504057738603,0.00970805199251629884205084,0.0024172495183675535290746,-0.588523909570356829057403,0.327730103556856611213277,3.52975407418219289112926,1099.45833018921780421806,1116.62902220006230891158,1091.7994100746184358286,1099.63319636139681279019,409.687501228345070103387,-695.15575598706629989465,89.2674273843924908078407,336.274762741082895445288,149.779153660509621204255
131.407499999999998863132,-0.294965725111447918393992,-0.0952211946686240540138613,0.594229012469381201455576,-0.00103302982189534386242569,0.00117374607337612942535576,-0.0042235580567540672441984,0.00448620131991442263469372,0.000478657181530859146285223,-0.689586979723907034234287,0.724188183606638835598801,-0.0190732949637367615869366,0.0062959073749310132117607,9.72399336742596531735217,-0.00145926242965931682142589,0.00970304035045985689700299,0.00216935557072866222819152,-0.58850136594245827659222,0.327744429046180341114081,3.52976151214483424567447,1100.51849904092864562699,1114.6486487580104949302,1091.94740644847706789733,1100.56975800831446576922,334.492374054511401482159,-717.635471975033965463808,18.3902827542791698078872,330.26254894728504041268,149.777984822825629862564
131.409999999999996589395,-0.142647995284258061188254,-0.109113403050644708347505,0.651261970357995934044482,-0.00117196967554505644508456,0.000615062590072790096179522,-0.00291223141172893386710574,0.00446375085736796291951967,0.000482586104288516967372735,-0.68960565798985662411269,0.724170505313984413930939,-0.0192581998897942002768602,0.00600535164191697695690308,9.72622077809000273873608,-0.00153955140774232460999793,0.00969966741454783218379099,0.00192485781960289106806705,-0.588479619085925609311971,0.327757983328812285694909,3.52976680623455596474969,1101.13079205948884009558,1113.04084484019040246494,1091.89136148838974804676,1101.28450910613173618913,161.429006002355379223445,-593.855594639529840605974,-65.6303883676315535922186,248.147358929462058085846,149.776990989393851805289
131.412499999999994315658,-0.0474686796115694059627899,-0.11471760130443198200112,0.671386910189975649743133,-0.000513752434948589863789037,0.000310476908367732283653556,-0.00163849614477848079009681,0.00444181120474750491117222,0.000474028105353400464657548,-0.689615768276625407118274,0.724160992343586218389362,-0.0191754028753932798112558,0.00586340997593261248344021,9.72893994021374197700425,-0.00160334338064097871832947,0.00969818412866120700688288,0.00168663446765291379601803,-0.588457998843313623282825,0.327769930337453163637917,3.52977003484538442990015,1101.32564407093968839035,1111.679370784815546358,1091.61925450663920855732,1101.81049480296064757567,1.57214251444345065600317,-481.427553853819915730128,-151.047632327437042931706,165.626578598190121738298,149.775979343423642831112
131.414999999999992041921,-0.0145269635904280072086214,-0.123608939980695220484108,0.660786443586705907193846,0.000443855943393821068387178,0.000185132134176212880720749,-0.000302508982414435498558419,0.00442012371225604817209787,0.000457117834923295642424873,-0.689617520897728653039849,0.724159443572875538563949,-0.0189455903887973536869893,0.00581451012018099899769652,9.73214644055411604028905,-0.00164972437175930995018058,0.00969851607327701543959098,0.00145756103329692555947705,-0.588436203672530688812969,0.327780514298312564136495,3.52977145742779896409047,1101.13865277206105020014,1110.63370707092349221057,1091.13612332675324978482,1102.11264199912193362252,-158.628962773499210925365,-326.764803345283098678919,-249.912363659086537381881,60.0689041724854817516643,149.774954724371667680316
131.417499999999989768185,-0.0603144078751279705263855,-0.147842591064363315656038,0.608711156977609468832213,0.00117969905548476585235851,0.000196090277955333365913007,0.00119851915245056291070558,0.00439429908195236671591966,0.000437688505107309102411944,-0.689617863944816056331888,0.724159263470028680131918,-0.0186634834671481480983246,0.00572184937073404870089277,9.73583157847784974592287,-0.00167891542050085051072938,0.00970024792942308575205423,0.00124027352721009119160267,-0.588413785547030387945711,0.327789197078464267232079,3.5297711596648615461902,1100.53249925707291367871,1110.04554676809061675158,1090.36969268834491231246,1102.11083932382280181628,-335.941040561270995112864,-148.577443822996400513148,-401.220769091236036274495,-66.9203834932874741525666,149.773916337997832215478
131.420000000000015916157,-0.193255839653485195217542,-0.204277911700979808440337,0.490265638104431467070299,0.00138608598934266248961511,0.000231481402124494769481297,0.00332652727166360927257838,0.0043660028423040380535225,0.000426337014561835726637884,-0.689623031447306078511872,0.724154501379577153485911,-0.0185745436810406117089656,0.00547081681224690502540753,9.73998078526541632982116,-0.00169182755837116258895714,0.0097027237571309394442709,0.00103686493919657985417204,-0.588390496080383296195748,0.327796837719647182751714,3.52977035234487734882691,1099.45894756924667490239,1109.89081985180496303656,1089.13001948128749063471,1101.77804008165389859641,-423.36845034790468389474,27.9834135258652949573843,-496.933669941100674805057,-166.21722898796849676728,149.772656407491695063072
131.422500000000013642421,-0.350576823369703360899763,-0.27560376737865838192576,0.342195353222778830826201,0.00101547109863850295967402,0.000158081056017483721895175,0.00531812524564289224732194,0.00433886069025954217159846,0.000436205208078306919637634,-0.689637658444347656505613,0.724140718157983087621687,-0.0189861652062056768253129,0.00494125422492783239469816,9.74457497263938776654868,-0.00168979441260951306763571,0.00970514641261010536921194,0.000848849762541524976641738,-0.588366384884265958277183,0.327804887741660333499993,3.52976983755480144822059,1098.41565700532328264671,1110.18546383572061131417,1087.88502433862754514848,1101.27975317887899109337,-411.330644143128040468582,186.65267003142312773889,-516.275756752262395821162,-225.88078628898608712916,149.771596138658736663274
131.425000000000011368684,-0.528306319278651681514702,-0.366099261591053770636961,0.151633348045591309638525,5.58309441912611047979104e-05,-0.000195498622510999756551539,0.00703744093239257358096683,0.00431568878291580318440346,0.000466843485180513050568363,-0.689663095082362231913464,0.724116611505515539448652,-0.0200000289861364394239374,0.00418549383294706395242102,9.74959215200662399070097,-0.00167442100707895780153933,0.00970672499235452311550088,0.00067707904542513937164866,-0.588341288332550504946994,0.32781250224202318488409,3.5297693793910749349152,1097.40229434853290513274,1110.8240832019612298609,1086.54864069752852628881,1100.64863615020999532135,-398.343864431306769802177,327.826625807463472028758,-567.264310420448282457073,-282.271973481358372737304,149.770526306308283892577
131.427500000000009094947,-0.729128743710280913248312,-0.480277029971201308011786,-0.0938401109946420119989341,-0.0019560721775081718956657,-0.00116087440838582266200429,0.007625257876125356160113,0.00430040710660678678067814,0.000508344581733699064397813,-0.689690956415312639293802,0.724090143319151668954703,-0.0215928625004801338915783,0.00340096123056908561377298,9.75500761694997464701373,-0.00164740070933120405331784,0.00970681983309147795868643,0.000521849469329081902188583,-0.588315689347397197117573,0.327819014081659199089103,3.52976935086788579098993,1096.42393768316856039746,1111.82459696475643795566,1085.04870278652788329055,1099.86839331147348275408,-294.533518851580595310224,377.641780674937422190851,-499.406888394514169249305,-271.00508660461946419673,149.769232420798488192304
131.43000000000000682121,-0.860340753081853648609467,-0.563580472644750418709236,-0.277729926644544600211617,-0.00446440603903359295445696,-0.0025401454099050562417117,0.00645452197510830005117155,0.00429739829462689668093667,0.000551878202923178698413587,-0.689712432152021381881468,0.724069682625643196161036,-0.0237547776373964319995835,0.00277856009477104454186147,9.76079433014633934817539,-0.00161069102249849029941109,0.00970497890073078114947513,0.000383148769221113385564925,-0.58829042923312890867038,0.327825842419910140623784,3.52977076407870793417487,1095.92962675427634167136,1112.71229210533419973217,1084.05160625555822662136,1099.29361071718813036568,-110.960236205220056149301,331.426793081101493498863,-312.042321974251592564542,-194.636638672313551978732,149.768146347484815805728
131.432500000000004547474,-0.930136820778422079847303,-0.614463148479606258156593,-0.401515090972434596228169,-0.00770941255647137127504642,-0.0045040301959957170646609,0.00427159284837009319696355,0.00430761125365751104676626,0.000591848847012786801954909,-0.689726117150405548805736,0.724056566519786226621136,-0.0264657155906806440537338,0.00241731145494955557140315,9.76692402783660540421806,-0.00156669277311944905688168,0.00970092032037915552589169,0.000260934520400008505575801,-0.588265528623971079014154,0.327834088854313587813039,3.52977288308698744501157,1095.86913650214296467311,1113.4817309301604382199,1083.48849117665804442368,1098.89521011811280004622,82.5916810026979817394022,275.635368805592975149921,-125.50511306301405056729,-117.960757190774486957707,149.767052879742777804495
131.435000000000002273737,-0.933382807760982258216131,-0.622051620286769191281451,-0.45769860322044891853821,-0.0116214163039982092823221,-0.00708895514325683963330338,0.00160639256544259064266034,0.00432143796158609202334722,0.000624711726295604620820545,-0.689733880768482854328738,0.724049076063110308432158,-0.029580370675164183169592,0.00223936478801036592534146,9.77336900186376489330087,-0.0015182536627161783825829,0.00969452396455569923028328,0.000155428835888977789165752,-0.588240898013063229221586,0.327842466577803359761845,3.52977456209684703480889,1096.34258515928945598716,1114.09046894936091121053,1083.42408069024372707645,1098.70380693123479431961,260.19172926522531952287,152.174285215780571434152,78.002097382321153418161,-15.6244607273634983357624,149.76573318982684668299
131.4375,-0.877146001457531299116965,-0.580848089936223832552287,-0.428703095008175327773614,-0.0141285950983190359414587,-0.00891169042643658211588775,-0.000211220687919708068882793,0.00432495506232262114099107,0.000643315214842824184375558,-0.689737971703409891155445,0.724045157302840136637201,-0.0328299835290626479400444,0.00215409036182658691904734,9.7801016524743022984012,-0.00146868368146057018917838,0.00968582101557220395693371,6.70156043922246846909069e-05,-0.588215894874315026186196,0.327848149351224582570552,3.52977480793076514586915,1097.17009514846790807496,1114.24260235623864900845,1083.87850166356929548783,1098.81708781447605360881,402.330357373696017475595,-22.5173973594087470928571,268.291972460672980105301,102.467326113085135830261,149.764628033185317690368
131.439999999999997726263,-0.78093831151558157355197,-0.495675981840640766939998,-0.338563896695675436987472,-0.0156783293715741615936832,-0.0102322027191151278258108,-0.00133147403184959286712163,0.00431468442402422030362841,0.000646421961323033109590719,-0.68973949275558876781389,0.724043779155487010612546,-0.0361546716597364592438169,0.00213845881529451525837615,9.78709129254229281968946,-0.00142155714368328526392427,0.00967500035223626229929916,-3.97347504034817059956862e-06,-0.588190444834322812006633,0.327851606952313301412971,3.52977409275288112056046,1098.35423694615610656911,1113.97788196256396986428,1084.76554055254587183299,1099.21614356179975402483,510.461996493004733110865,-171.448186515746272107208,402.199910183391864393343,201.049903749936731855996,149.763518421328001295478
131.442499999999995452526,-0.667459333481307925950432,-0.380924097453908483412732,-0.217279299698985933764206,-0.0168865925595638038947399,-0.0113472144919913864313799,-0.00177118135110940840178106,0.00428905492125645181056282,0.000640568457610057374364276,-0.689737923234172489728167,0.724045443484489070762322,-0.0396141493287635315656559,0.0020907629144360229123123,9.79430549901342217822275,-0.00138038284452041224575902,0.00966244298984773007654692,-5.72209578573681473703631e-05,-0.588165065838520795260536,0.327854812076905810513949,3.5297733138838762734224,1099.72240513093061053951,1113.3853614236606972554,1085.8895012144844258728,1099.8223373332248229417,558.881629442347616532061,-299.377394224756585572322,471.379875639351098470797,277.65293824520779253362,149.762406093999970835284
131.44499999999999317879,-0.545368878099138587600692,-0.239630308897725768924047,-0.08186687613521836937025,-0.0181603685855100741020074,-0.0121620078783946442002595,-0.00163563869430558570319811,0.00425186853095621888898314,0.000632618366556867914307638,-0.689732891168738593279386,0.724050480615649472149187,-0.0433288615730396814429426,0.00197959180961140152055222,9.80170969047324902589935,-0.00134848757896141656191513,0.00964873528411637829127478,-9.26080663867995864529936e-05,-0.588139959918964838614386,0.327859510230003037278834,3.52977316319258260790548,1101.14864509336530318251,1112.4809949914415483363,1087.12243993074048376002,1100.60440825302453049517,599.520336462591785675613,-437.58566393174766062657,522.198939058009500513435,359.045540597352612621762,149.761291812985319893414
131.447499999999990905053,-0.39827675264338807670228,-0.0526291853876636669951061,0.0741228848068506140922551,-0.0196155080998236981681959,-0.0127859234257929246098007,-0.00121449894906627592523762,0.0042170722365464895220466,0.000627802095180730597261121,-0.689721618386267665279377,0.724061448328820578268505,-0.0475165377174529557358085,0.00193858955083201639491008,9.80926601125457153784737,-0.0013290589938008963259708,0.00963465181821645567927792,-0.000110241191734490647110255,-0.588116105851340220667112,0.327867361491074815749158,3.52977489859210180611626,1102.72000681324084325752,1111.19743310400394875614,1088.50049590977209845732,1101.6175650362099531776,528.828557444311513791035,-476.736940575416838328238,459.577002133491589574987,364.253884108815555009642,149.759954302923461000319
131.449999999999988631316,-0.281513554292789736077651,0.106343837001039595580032,0.187964758833199768739419,-0.0206095494429968523197871,-0.0132032981998658136002511,-0.000781325433400835759299718,0.00419151529421538538572323,0.000625521169491479963643832,-0.689701375947832540092008,0.724080904334724384519006,-0.0521996969721228720739958,0.00207821938932294808521917,9.81693712060174661360179,-0.00132556230686765971933661,0.00962104766665877741971258,-0.000110026836250006097785333,-0.588094007291807940873696,0.327877399775348743471426,3.52977861152585248305513,1103.79278788058445570641,1110.09731028856663215265,1089.4203249414058518596,1102.42567767356695185299,364.31301222017953023169,-415.263460766636740117974,295.522150499890358332777,297.806971310716562584275,149.758840909342097802437
131.452500000000014779289,-0.180497599464573582617177,0.24975764198621189238203,0.276402076170098820462329,-0.0212524803173720668036939,-0.013292973798284955094795,-0.000255208108743719907195169,0.00417571104299183440411447,0.00061636474801708403346151,-0.689670199471986267170109,0.724110720695114173928175,-0.0571732963604041077854134,0.00253666374427528179547053,9.82468648239985498094029,-0.00134213755659939415303128,0.00960867764082167993833217,-9.14460776695533432856938e-05,-0.588072425436329981884853,0.32788663174948323719704,3.52978303459009756792852,1104.5415718743504385202,1109.12111580016085099487,1089.97810666227860565414,1103.10659989277064596536,255.496389661092194955927,-369.56290811814125163437,147.704302546457768130495,264.436098475254482309538,149.757730722321497296434
131.455000000000012505552,-0.0916015622835725518147143,0.371764098955373267774149,0.344193480806588958387238,-0.0214361915252347032256885,-0.0121917604421042345685944,0.000622664105273729932658877,0.00416407744359503784181697,0.000597152806242314546439354,-0.68962929772537662209686,0.724149779167173046623418,-0.0622224324603457973337228,0.00327860813187089844555899,9.83247717831524070675187,-0.00138376359329464506016383,0.00959804511543659033545595,-5.32056306001735970323367e-05,-0.588050421733713135630239,0.327892955624666859737459,3.52978608356702538983996,1105.07026982889601640636,1108.24949574796710294322,1090.15884645414166698174,1103.74785816594953757885,144.766794675838156081227,-250.903407443412021393669,-14.27202536989559256142,214.654584400263644283768,149.756404693936900685003
131.457500000000010231815,-0.054370997805240801892257,0.405741941775593806251976,0.361798201781007577881866,-0.0211394265261980011938459,-0.0101813376953757452059168,0.00168181669839032542877744,0.00414962420395137508016825,0.000571039165339803228560456,-0.689584594889676272266854,0.724192473082051035859763,-0.0671891371740019893721296,0.00415930164647203975958334,9.84027078106510089128278,-0.00145601895521543290602795,0.00958936810884113491337821,6.63260093826669811173727e-06,-0.588027484850753512368726,0.32789484735635132661713,3.52978643145933235203415,1105.2654058477289709117,1107.86659876294493187743,1089.90674653542919259053,1104.17987281477098804316,52.7500271699889253795845,-64.6571989292757791645272,-169.282991444896907751172,176.995792294453167414758,149.755306793760439632024
131.460000000000007958079,-0.0619037806751277716599269,0.348907059712901701509224,0.332454216432491289623385,-0.0207397570167188322054486,-0.00788562917978147433217817,0.00314300291328848367677917,0.00413197324018359408992485,0.000545032497164426579447372,-0.689539827245290171120473,0.724235241206051316709136,-0.0720480456147459397131527,0.0050737250705496020342089,9.8480256606136133967766,-0.00156434061321279976701504,0.00958266744717904683792398,9.02042853594714098223323e-05,-0.588003739706268291342894,0.327893040256384327157946,3.52978492401023791202874,1105.33401996474572115403,1107.92620975332101806998,1089.31243149691795224498,1104.63283712742099851312,30.1886282788292987788736,106.141098869971884255392,-272.729411942894103049184,211.139905814080634627317,149.754218802149210887364
131.462500000000005684342,-0.10520496818757968382485,0.216676394898819152379232,0.264272284673951363132005,-0.0205041011538896443544555,-0.00623048094753443637561219,0.00481518112045871329168767,0.00411081018218505470085411,0.000525088177045782166819932,-0.689496961172339162260414,0.724276206566389690877372,-0.0767509577516208713054979,0.00593007270824551929733204,9.85569941546080308114597,-0.00171340457159817566128168,0.0095778609581180177562354,0.000199545452699694219993176,-0.587979431867637569730789,0.32788895145561253174904,3.52978279548365359019613,1105.41634898912298012874,1108.39730425729430862702,1088.54309947571596239868,1105.23557234384043113096,65.4044599338389218701195,292.813422009014914237923,-313.084929450599759093166,309.431424165868008913094,149.753141040266228856126
131.465000000000003410605,-0.182787131414820946950783,0.0110232157002977670945398,0.161370330713510784503839,-0.0206735194723460455334951,-0.00573491977351931435380461,0.00628900186446067557821671,0.00408283840566663926152646,0.000506883874351704284515197,-0.689459017590307254863546,0.724312507419312412437762,-0.0810575991291263148186275,0.00673104807236451357921325,9.86325169223701081477884,-0.00190665716979924754898024,0.00957484385441505214675573,0.000336305654209078904240404,-0.587953969773809759225003,0.3278816610779661799846,3.52977976122800152225523,1105.66104226441461833019,1109.39027686336476108409,1087.74700684966637709294,1106.17999424824893139885,177.238144697664438353968,554.331518154280615817697,-302.30345291411350672206,522.829038488610308377247,149.752078217414663185991
131.467500000000001136868,-0.298596976769428756881553,-0.287321355403701073072398,0.0321500043700705534499562,-0.021520791227084348773424,-0.00629310923580412608091539,0.00711110783319360804932696,0.00404606283975656247364761,0.000489331843738917350757067,-0.689426579674353612325888,0.724343597360461943779342,-0.084790657519465531533065,0.00745250648023122741481217,9.87064276017326847068034,-0.00214572001974377025296237,0.00957361375212828318026492,0.000501652083396189911110308,-0.587927724124804318428517,0.327871855694781833001628,3.5297755561211823227552,1106.30253971261049628083,1111.16896184806319070049,1087.03158221114676962316,1107.84971753628110491263,309.132913649417901069683,738.477766532958867173875,-185.441764647053275893995,705.375954146170784042624,149.75082366621668938933
131.469999999999998863132,-0.401432296775355801354834,-0.553949141031702785298307,-0.045078950445206454611391,-0.022802334376260131182379,-0.0077710432437112621564812,0.00645237875865681525383577,0.00399902790738585790786264,0.000473742730214184290440244,-0.689400598808558862096163,0.724368579539740542472259,-0.0878189463465698788580127,0.00804307806288278442918838,9.87783506771167552074076,-0.00242997223471280677717377,0.00957436962740147549932868,0.000696063794698077221469179,-0.587901336715951461364682,0.327861384997026994447822,3.52977050080481546956435,1107.20670683266030209779,1113.08266569602619711077,1086.81979802643195398559,1109.70687401897657764493,445.881547092399955545261,829.860744040097301876813,25.3519932741940934306513,820.270601185229907059693,149.749798214126428774762
131.472499999999996589395,-0.50090470701791245389245,-0.815095335423763112103757,-0.0504202103239010934743192,-0.0245201569795841997634334,-0.01029831059650805277772,0.00427339311773858050030883,0.00394122632279644488639825,0.000456956696758378431121039,-0.689382660758377618925863,0.724385954346794869174175,-0.089970073283154525234373,0.00852342026815098435799101,9.88479552713598508262294,-0.00275620433241876693769568,0.00957757566693818312986153,0.000919037902660860381472141,-0.587874920692564750801523,0.327850848877545508752718,3.52976460840731753876298,1108.53194744807046845381,1115.31826556825990337529,1087.15834217751762480475,1111.95107054220352438278,672.731103079625199825387,1018.84806730233219695947,284.496770471136642299825,1029.33495654863622803532,149.748796524063493507128
131.474999999999994315658,-0.61638334091478208520698,-1.10877293206553062532294,0.0442987763820093388700272,-0.0265752148611864066896082,-0.014008805012733325720542,0.00130734868203957895448075,0.00387103821440479712451266,0.000438860388768139327020368,-0.689372494135840563345141,0.724395995259081049155725,-0.0911148599018867660914722,0.00885522014886810232559,9.89149673220062197742664,-0.00311837886289933162442534,0.0095839838339904122321844,0.00116899535343302821664702,-0.587848836449182510222045,0.32784150011990553785779,3.52975835461302533957451,1110.57036234805536878412,1118.17690603253322478849,1088.24228187878634344088,1114.853548801715078298,804.318565749285312449501,1047.32537253421219247684,497.556080000365511750715,1055.83764497551396743802,149.747625167122834000111
131.477499999999992041921,-0.716590456567614886296269,-1.33921680645198537540352,0.188621584631177202640018,-0.0280059385360095919326184,-0.0171709110035528945970018,0.000399511959977101192755672,0.00379005223463417095092209,0.000426279300500665640338144,-0.689371835778585073661873,0.724397039686138444203323,-0.0912873367899184190443762,0.00894870094922266962056412,9.89791669549295427543711,-0.00350774069933037797169861,0.00959457829765284452017138,0.00144306081599547119526106,-0.587823366181372541916517,0.327835940306264228549793,3.52975299147076171379922,1112.55354027681323714205,1120.55489243092620199604,1089.64612257751718971122,1117.23025876707629322482,815.261842766281233707559,918.624273662515975047427,632.943431640008384420071,892.855923549352951340552,149.746676750078250961451
131.479999999999989768185,-0.831524045946839818199692,-1.56642341163745713039646,0.347918554557933468185382,-0.0292240137516597692224352,-0.0202700963410568056610739,0.00221866434225443873162753,0.00370860392616559342293669,0.00042564780228989730365835,-0.689377913969531408433511,0.724391667995816002090237,-0.0906589571514189868084443,0.00884437935015357917789558,9.90403956374380456395556,-0.00391294928527424843572868,0.00961059919120879103948685,0.0017368386806320471309889,-0.587799387952532836898456,0.327838214071548006423029,3.52975109986060608946445,1114.64667156188306762488,1122.77002740084162724088,1091.40699903698350681225,1119.3178284194577827293,885.67482260059500731586,909.907293115132233651821,808.98213648001990350167,811.867688315703844637028,149.745759460855310862826
131.482500000000015916157,-0.99054439277681538555953,-1.84757346688718060434553,0.495103141463372864450321,-0.0308801638298481229139014,-0.024226568202192648449067,0.00602547108102544429208969,0.00363527607336263432896706,0.000441471396139693397341758,-0.68938582166768347381236,0.724384503449755690063228,-0.0893762613957527624064525,0.0085833012599069238857119,9.9098598723264892385032,-0.00432089549905639250942935,0.00963340889690959302493756,0.00204482548487295266725905,-0.587777585581440331630176,0.327851116972631639878699,3.52975490891736676246637,1116.98191438983735679358,1125.10442889652358644526,1093.69103325993660291715,1121.28959720867419491697,777.400935737403983694094,788.572966179808645392768,831.071182055699750890199,620.987218114887468800589,149.744697181867934432375
131.485000000000013642421,-1.13354468674521480231476,-2.08973335031428542052367,0.560063205698229094053886,-0.0328190944306890886039696,-0.0279622454501374968771632,0.00889575319966222528844657,0.00357100668694772640024415,0.000470951454336242995944023,-0.689394002907857794681945,0.724377021919923924642148,-0.0874046308880317840417362,0.00819455621940048950513358,9.91538528469422608679906,-0.00471804938315000411269695,0.00966423253604247085857271,0.00236107669616724032135568,-0.587757456563230085144767,0.327874529255362312518685,3.52976503820518860976563,1118.53367624058864748804,1126.71289223175949700817,1095.56235494728184676205,1122.42276451004704540537,487.230958911811512734857,562.537232586475965945283,707.301493373285893540015,349.395733261598593344388,149.743845648808360238036
131.487500000000011368684,-1.26753471451324406515937,-2.32674764731675276507872,0.572055122637866286794406,-0.0356930494623627567185586,-0.0325392259780853121409194,0.0107410180767546804825319,0.00350902802373567182167569,0.000512590131081078876316981,-0.68940290486727995311611,0.724368835541265188027182,-0.0846499822139929886111176,0.00757785011255671797636424,9.92063486040281716782374,-0.00509187602811263500396377,0.00970391241639144072617107,0.00268006871386071649290828,-0.58773872142701000242937,0.327906728905311417587853,3.52977999860005464682899,1119.41806918439419860078,1127.91711505945340832113,1097.22754072679981618421,1123.03657587498059911013,219.706532148911463764307,408.455292370179847694089,613.519055508880683191819,170.363992291841327642032,149.743030860112526170269
131.490000000000009094947,-1.37513797146051897080099,-2.5390601137387114327737,0.559418090963502256940387,-0.0393252184471174007218686,-0.0382265678622027219035751,0.0117424930517344306563077,0.0034398229731285884930303,0.000561282679780295283740454,-0.689413221839366152643436,0.724359337614835618879283,-0.0809536113056297385037752,0.00664315572681670879484628,9.9256368170365796288479,-0.00543209163182906910188885,0.0097527729185015038515516,0.00299729270405545925731738,-0.587720632387606745083986,0.327943850368525469107794,3.52979781350385213301024,1119.63220890133220564167,1128.75516869360853888793,1098.62995022482346030301,1123.27458447150547726778,-77.816560259659866005677,241.14750675729843010231,483.998711599528178339824,23.2765797879194700215066,149.74224771774990472295
131.49250000000000682121,-1.43171399419965306165636,-2.6910540780211982259118,0.54158393148896810664894,-0.0433906012798537729646675,-0.0454172964556221331333674,0.0119989890339195215407386,0.00336132536336382695130176,0.000610132030317487336450177,-0.689420772485217492331344,0.72435251923696075682102,-0.0762538932264747310041386,0.00543525212186773271083595,9.93042335439416845588312,-0.00573148200507002988229877,0.00981062823983072651579107,0.00330953018822882985561229,-0.58770243239597663720275,0.327982674028446385960933,3.52981760734213034780282,1119.02898638309625312104,1129.12285259323880381999,1099.64753428479525609873,1123.15295877392009060713,-422.636786384621359502489,50.6326000719587980825054,349.920463247281020358059,-112.215027444073911055966,149.741503989191215850951
131.495000000000004547474,-1.42781488102946463314424,-2.77384135650605623268916,0.531285643205725910398485,-0.0480813561551072174427013,-0.0549345997795293583543241,0.0125761844421562463125497,0.00327312409006290817164997,0.000657713080923112052358914,-0.689423762600701262037717,0.724350080119521066990274,-0.0706080015272152888838875,0.0039498781275302471960309,9.93502893913732521014026,-0.00598652666535982782430869,0.0098765964544414545922546,0.00361526083625433002077809,-0.587683680396556828995358,0.328020860237942857295934,3.52983828528344067976263,1117.51902496941102072014,1129.00833169396810262697,1100.37955254105827407329,1122.7135093342856180243,-642.23920410581035866926,-129.791988018159628381909,186.245054730294441469596,-194.530056082562197161678,149.740658486538450233638
131.497500000000002273737,-1.36383500211854680195245,-2.75466460570588367318123,0.531323204310695906826822,-0.0516573413720939275672883,-0.0625727341793708285999642,0.0137839937539774842062412,0.00317210826093735796457618,0.000695235655304844235927164,-0.689423309237358172829602,0.724350962928993591383175,-0.0639428161235659348049509,0.00224791313770200673616273,9.93949013702055950147951,-0.00619729252592972346125322,0.00994915110354694515182317,0.00391477679825760326720596,-0.587663347261156654433023,0.328054779011629438212339,3.52985809792023808029171,1115.81779036257012194255,1128.47389265314859585487,1100.57875955844588133914,1122.18030849350816424703,-710.6547725331080300748,-289.80068324853147032627,0.918642738452871254750676,-232.774553052452375823123,149.739993919275889311393
131.5,-1.24182702449143378409246,-2.65846472191664995321503,0.53232080048835206387281,-0.0549488920865163835149936,-0.0692581239016297756094787,0.0154510216791763424493134,0.00305623363107918825237741,0.000716037396752167024441271,-0.689416994427146323509703,0.724357470312138818080427,-0.0562376006098728176141321,0.000382368565064350462989751,9.94384057475433635886475,-0.00636682605594291340517232,0.0100263176255105199846662,0.00421002655409989830215256,-0.587641296777132837725333,0.328082010024281056637108,3.52987552444108265703449,1113.96575110674871211813,1127.55932827772676319,1100.3841457547505342518,1121.54963656902441471175,-780.616050365125033749791,-463.832793716313801724027,-161.320093981759157486522,-285.62665999951207140839,149.739371759485720758676
131.502499999999997726263,-1.03875840181726553090868,-2.4843725396315772258049,0.52872891780996478239274,-0.0584633976404724947650848,-0.0764386915829339402828069,0.0173646017795466255095871,0.00292504236081596790883252,0.000717552249752447771254105,-0.689403445273068848919706,0.724370903576539326707007,-0.0475557530535934275262022,-0.00162174477846089432064858,9.94810816740183767592498,-0.00650038290071116350160585,0.0101057579323250348174446,0.00450424925712821465351166,-0.587617726768093984190955,0.328101526726580161597013,3.52988976766336959300929,1111.91471011074804664531,1126.15472868456913602131,1099.77215908853781911603,1120.75217519351190276211,-684.098831856803485607088,-544.867320337193518753338,-273.888318160401354361966,-290.290482108448770759423,149.738674986711856718102
131.504999999999995452526,-0.832730450926380094678336,-2.31320117190456020495049,0.522591933326148283533996,-0.0608786726157823018801274,-0.0819626281556426472540977,0.0186085504199789524004682,0.00278179602108267164106703,0.000697408396869651781013744,-0.689382020531055905721018,0.724391856033255843172469,-0.0380145297610519211639613,-0.00368253626017151641791614,9.95231315898791990548489,-0.00660425442368391471537059,0.010184976279427312984005,0.0048013849931623020853011,-0.587592433875061104231463,0.328114167494729103147222,3.52990141385520583838797,1110.54525694746780573041,1124.83499167604327340086,1099.0147041639497729193,1120.09818415848349104635,-449.686096664708827574941,-536.239444021554163555265,-338.400829417594991355145,-250.769638931479477150788,149.738136295068954950693
131.50749999999999317879,-0.603862734963137914867559,-2.13886015637039639258887,0.516916386420049001060306,-0.0625751318079710433517349,-0.0868435091299299827261038,0.0195061952851593931046459,0.00263050241480772446778236,0.000655435827917616193466488,-0.689352076721917117474447,0.724420921313368770810825,-0.0277708767778424014949223,-0.00573116613506135380573525,9.95646733932273519940281,-0.00668458681074155479373555,0.0102614698518821503836485,0.0051056184958612055302396,-0.587565621414193439697726,0.328122371004419211004688,3.52991164029832482640359,1109.66627962742654744943,1123.4735314644638037862,1098.0801549414513829106,1119.49832699885564579745,-266.436397930616692519834,-591.254290768657710941625,-433.01932488210059091216,-243.979445657800141589178,149.73764150931148719792
131.509999999999990905053,-0.322278122134326050485242,-1.94701364805097432153502,0.511315947001196202670315,-0.063632308071398413495956,-0.0918786640788580022398691,0.0204542910269907077247531,0.00247432707648382764140105,0.000592058425431793108363598,-0.689315812224973401001193,0.72445599478345246158284,-0.0169754643583945180607131,-0.00771325184492346882514369,9.96057376840560237951649,-0.00674652916134137366210854,0.0103328453906990826854928,0.00542099409586408939598634,-0.587537652478064886807374,0.328128858593327799031414,3.52992153249944573545349,1109.21307495781593388529,1121.87872022220267353987,1096.84960753954123902076,1118.87828693019559977984,-74.2541907082106718007708,-572.82111375218198645598,-451.427350654240797211969,-206.640978428282920731363,149.737098864257802688371
131.512499999999988631316,-0.0944071937108012515516009,-1.80929261979548883232383,0.502667681378830555338766,-0.06405761020109894399166,-0.0955945428966036292450781,0.0213861911715780318721247,0.0023184728848420835256583,0.000514182162230477930037198,-0.689273579233026123525008,0.724496719133312483407394,-0.00589659762067577808419827,-0.00962771905617729878423816,9.96462596668835942637088,-0.00679365454828524239355714,0.0103970268733118761245171,0.00575111690440649643563109,-0.587509405167538023562201,0.328136424032699380859412,3.52993188184641359939064,1109.29500867388583174034,1120.60942589570549898781,1095.82301818818223182461,1118.46512210671517095761,108.657190123385177571436,-495.286606861600148477009,-380.924015332038948145055,-139.723339440721645132726,149.736689621458509691365
131.515000000000014779289,0.114265440681591307070519,-1.69156911163165468714453,0.477963619410918305607794,-0.0641092622421996216619533,-0.099026190241270933833917,0.0227044884559409743118863,0.00216770794904599462329942,0.000430705734242461241428196,-0.68922543830572513545718,0.724543012498577443381009,0.00517774038696642430190664,-0.0115019907204369220554696,9.96860942094217961084723,-0.00682787253096949625641443,0.0104523142722377816726809,0.00609906852605034827119468,-0.587481415690098818238596,0.328146985039971306186146,3.52994283261699015596946,1109.75636090843545389362,1119.40228718788284822949,1094.94498746287194990146,1118.17967023298865569814,230.36355451189646714738,-473.570232574469400788075,-298.756635454020852193935,-90.3946754069924480745613,149.736325683844853529081
131.517500000000012505552,0.298001374380671257835473,-1.57874450730288518052191,0.429921352708833914846309,-0.0634729802938262810396708,-0.102453462642316653341545,0.024381973612495722036897,0.00202459148767606192387269,0.000340766922239078341207164,-0.689173133355800993093965,0.724593203177820610605409,0.0161330437379144375764639,-0.0132572406753648230903764,9.97250298605860052703065,-0.00684962643745648525062109,0.0104974367909816297672609,0.00646733421690394091885246,-0.587453250944660054777557,0.328160414732666161352626,3.5299538042904616830242,1110.44682644645081381896,1118.24157473282184582786,1094.32923501090499485144,1118.01314872967805058579,312.706931080004039813502,-450.301139232624620944989,-149.654478479260120593608,-36.1765174728918097457608,149.736000046608438651674
131.520000000000010231815,0.441465030799391255911246,-1.44869481333265714972924,0.347274011485386280284615,-0.0620045228671417328336624,-0.106229694541123714790487,0.0262134080461013281582172,0.00188929655823222666412298,0.000243977495459400895100668,-0.689117902777564683702849,0.724646114481729664014154,0.0268821902807960394499176,-0.014852396074330136144237,9.97627951857459294160435,-0.00685830740170166510555338,0.0105315152319860397267526,0.00685776228449480433624341,-0.587424841819770948703194,0.328175713710284977508991,3.52996466844377598803817,1111.31989556383405215456,1117.15078149172177290893,1094.19671507047632985632,1117.99878764562436117558,408.335172623227038002369,-452.840978770612139214791,83.3330888977646537796318,27.6549273063007206019392,149.735721720332378481544
131.522500000000007958079,0.561406189538387168092015,-1.24088234454676360485337,0.214779171319058104216992,-0.0599741046480860851008998,-0.111184428590035300210559,0.0279212010330091159326926,0.00176148089706046600405598,0.000142765149195313566796509,-0.689060819310247762992105,0.724700735778365467965045,0.0373048030492205695551888,-0.0162907545615505952585345,9.9799074092308401873197,-0.00685263571765765307219898,0.0105540775532219216481522,0.00727138189820226467363629,-0.587395749112542664427394,0.328190772096094429688407,3.52997514824103886255102,1112.48850230956509221869,1115.97736983897084428463,1094.7459004553934391879,1118.15142336620942842274,440.498354687716073385673,-396.689968642883002303279,324.312684736400399287959,80.1450257071611673609368,149.735444188022569278473
131.525000000000005684342,0.621142641580982535209898,-1.00919258275918566347684,0.0932133506470452233294566,-0.0583299549342553569353242,-0.115094227384124184188074,0.0285995481224817597876164,0.00164397900054243702866463,4.76263883218632253857897e-05,-0.689002726288112210539794,0.724756269205357406271162,0.0471195518023397250106932,-0.0176403077145569874006892,9.98335273496335062759499,-0.00683090992780644671450441,0.0105650936759381537666247,0.00770815988672449679819376,-0.587366599710056336292041,0.328206556300520368996132,3.52998621036754833824034,1113.52238733727062935941,1115.16733164850916182331,1095.81827849415685705026,1118.39951277415980257501,421.179382199417148058274,-278.19381966167219388808,538.438705403440053487429,115.01577407917922357683,149.73526147058888113861
131.527500000000003410605,0.649157239917630524139724,-0.716270493288871490378256,-0.0113580504409395103421199,-0.0566442908609655557117257,-0.117966243530434805597551,0.0283968184060600370433036,0.00153693607701680529098454,-3.12216497183437940890309e-05,-0.688946219754848265814928,0.724810251829866691863913,0.0560848901056798521125302,-0.0190052211909861046290615,9.98658207420120547226361,-0.00679102321374910975620987,0.0105649885526350410108742,0.00816698824421204297441257,-0.587337928356405192253931,0.32822471274227582593852,3.5299994957680880247608,1114.59439922056026261998,1114.58640074066374836548,1097.43809398240819064085,1118.72650223660480151011,479.042328365930245581694,-198.925169306402437996439,792.106884168553847302974,146.006570893356183660217,149.735131224717036957372
131.530000000000001136868,0.66207290872928270530906,-0.314855187930095425929977,-0.0840026150872124066637525,-0.0546077769699892592858426,-0.119871412784731096179414,0.0272820749482605914848499,0.0014335331965575268380747,-9.8220689151216824131635e-05,-0.688896518080913677906096,0.724857731971556007444235,0.0642662405026042521383189,-0.020391061003873361956451,9.98956376430292536383604,-0.00673047760628767057639044,0.0105547269948814050749553,0.00864575643444854755048645,-0.587309030214763994059979,0.328244337158459298375845,3.53001488915526984158078,1115.91759897909810206329,1114.17270580197805429634,1099.77881291499602411932,1119.12954562862591956218,492.169681347915854985331,-109.385644362109260896432,880.614025717641766277666,135.421482864772229959271,149.73503832782603240048
131.532499999999998863132,0.669346543350157419105528,0.0375865861807806247996133,-0.0840090435836992194262862,-0.0530513838090789432988537,-0.12016164471380567924097,0.0259333149723756616056303,0.00132740792169239478145992,-0.000159622351139424094009292,-0.68885606207042049398126,0.724896399976311278656738,0.0717490605547718290901926,-0.0217755478748977090996952,9.99226932277955626204857,-0.00664670789890963158857984,0.0105358706510809314871313,0.00914135675407874367937033,-0.58728048705734936518752,0.328265200328937967189091,3.53003198987097954741898,1117.05524762729760368529,1114.03947251885369951196,1101.84116411099239485338,1119.40360965092804690357,464.99869126133944519097,-22.6071286135471432032773,798.057571544039092259482,79.7267312829078349523115,149.735015964984171432661
