t,ang acc x,ang acc y,ang acc z,ang vel x,ang vel y,ang vel z,quat x,quat y,quat z,quat w,acc x,acc y,acc z,vel x,vel y,vel z,pos x,pos y,pos z,mot 1,mot 2,mot 3,mot 4,dmot 1,dmot 2,dmot 3,dmot 4,vbat
5.95000000000000017763568,1.41751816069705438572157,0.0574765883389159737415497,0.177025497699204725776667,0.00415505955913538036622379,-0.00597905521737100015267075,0.0171442561141113315736906,0.00419705089008365252872812,-0.0048104050012946061518071,-0.0636853108813765778073446,0.99794949738844396236459,-0.0153033737234868766341478,-0.0160619994343579874929162,9.81526367476145011892186,-0.0118887988975440971051167,-0.0141735342797897310995747,-0.00260989993635062089705201,2.46488916952906089719022,4.53723638758212732824404,1.31003520493346403696933,1118.67068176325801687199,1118.36877945076753348985,1121.47379112288899705163,1118.2984381362020940287,386.877340533382323428668,719.605006079397639950912,120.778415806765067941342,-227.985971371577164745759,163.192937610863594954935
5.95249999999999968025577,1.12467659385422469320304,0.148149589308766704842668,-0.064299153848018514301188,0.00741196460085301149500747,-0.00615347611386308016023783,0.0175251330138264764524347,0.00422183362925361571615923,-0.00481572589085146364473733,-0.0636686693498924038969733,0.997950418749875889368184,-0.0170965453221493049462687,-0.0169408869080210702784406,9.81526216849190369373446,-0.0120222608026073259773758,-0.0142391264429817705761128,-0.00266569591744863707005742,2.46485379525904146902349,4.5372036538932523086487,1.31003104625395194737791,1119.79032169295533094555,1120.59424560564366402104,1121.98089375801896494522,1117.8087826614521418378,524.433813667212461950839,1094.50945575015407484898,282.216065498784359988349,-164.81978276292818463844,163.193416359916852798051
5.95500000000000007105427,0.74669383037408665337864,0.232160108699876188698141,-0.36759755554619810702377,0.00872566159103140698283241,-0.00502619339367713427457751,0.0163201976381745564315118,0.00425170481124468192107857,-0.00483274172793188121211028,-0.0636485499615552924312922,0.997951482584167326450597,-0.0185695796124298179163858,-0.0176079109847483705753035,9.81560533221882103305234,-0.012161404570025168350722,-0.0143119383623042210895715,-0.0027206918823464059167816,2.4648198235804947842098,4.53717219639374746975591,1.31002691421353723022492,1121.29285083159402347519,1123.84132672951818676665,1122.88487145038288872456,1117.47433922238747072697,549.567045590770703711314,1215.2258834549149923987,347.061900565213704794587,-77.0566229297280642640544,163.194060917461172266485
5.95750000000000046185278,0.460475407159291583170102,0.264016257827069278363297,-0.596555769606056940368433,0.00835885072492459357818007,-0.00344478710746142120779911,0.0142284129209453383962947,0.00428224461018603553413842,-0.00485702750746737181575252,-0.0636291220232565596370833,0.997952465885047379501316,-0.0197715588568634914601319,-0.0181121502386260568862042,9.81626783781469569589717,-0.0123062381379616270909994,-0.014393152782038077727722,-0.00277239150620079343942392,2.46478633029807125964794,4.5371421207706736922205,1.31002246725985860287267,1122.53815692090961420035,1126.67037502291918826813,1123.7162032608453046123,1117.42349954680344126245,466.636603323159704359568,1072.34856731390686945815,308.45924562855293515895,22.0191240569879624899841,163.194657016025729490138
5.95999999999999996447286,0.239696694668972781760985,0.24786147455754764523661,-0.771151922181845028703151,0.00760800139793745174021655,-0.00196515845133650576478934,0.0116296989023797429224638,0.0043060174165530278392322,-0.00488143596730329382832325,-0.063612876312851743265675,0.997953278345531491488885,-0.020801836104843179908741,-0.0185641047497039080038661,9.81721376851369065263953,-0.012456696472459043850689,-0.0144837615770117521252214,-0.00281798010924010512018301,2.46475217033731608395897,4.53711246221957775759392,1.31001773064702420334982,1123.626033848209772259,1129.20306956608760629024,1124.42716767852562043117,1117.58443484267240819463,414.050470015726830297353,964.715169822304801527935,251.377350082935578257093,104.542077516136899362209,163.195316283328139661535
5.96250000000000035527137,0.0560137954617803482393334,0.182653493730422916696554,-0.903544058065334110274591,0.00678603920038904108447131,-0.000710984884817298322910728,0.00843044927117697628915494,0.00431920021476970162482845,-0.00490370704715088496367104,-0.063600462213246430898117,0.997953906210229502171671,-0.02166951628695990700324,-0.0189972604969537717245487,9.81839587703684202324439,-0.0126126522666975115355426,-0.0145844413714990486091727,-0.00285398256580824197237156,2.46471718849687126962067,4.53708238319078294153996,1.31001161584858660802411,1124.60840927098820429819,1131.49395087203060938918,1124.97309001125995564507,1117.94620993438411460374,292.893267293545136453758,676.227277523972475137271,141.075303900700703252369,146.452474578203180044511,163.196183749847932631383
5.96499999999999985789145,-0.0434754673090747903452247,0.107000565690770696458678,-0.950488914366919956933089,0.0065393379341197712187328,-0.00017394300896483427115724,0.00578936433466069062109272,0.00431968334819476766639479,-0.00492194210972982278129439,-0.0635918321394567803706011,0.997954371089340153133662,-0.0223800931683824574913722,-0.0194121012920225807785179,9.81975708315582451746195,-0.0127739016409389536527152,-0.0146955365914439219782173,-0.00287655449911923847758355,2.46468167020458350791046,4.53705188094536548959468,1.31000316888925683045386,1125.09050018467746667739,1132.58420595370739647478,1125.13254419802910888393,1118.31669721556340846291,119.005063874922413447166,248.967143405485188623061,17.0608195150183732380356,146.29293085622833814341,163.196972453654751689101
5.96750000000000024868996,-0.11493620900274958973597,0.0352234279031768335310737,-0.941733947536514959253395,0.00700997794146182573449266,-0.000138770569517555295577585,0.00336421420760024117088682,0.00431028066038485497407651,-0.00493848148012821386992899,-0.0635859874452290307900171,0.997954711517470394177565,-0.0228638075506483358367849,-0.0197096088146474501812122,9.8212313150345753598458,-0.0129402303787985832606022,-0.0148170968353137574857747,-0.00288154843397346637282053,2.46464582747062710410546,4.53702152952299986310436,1.30999203792715235294963,1125.20343459036280364671,1132.738786589058008758,1125.05839410883504569938,1118.67767458866524066252,-8.4332043783435413075722,-84.3026171177843650639261,-41.724156315650340332013,133.859519177079278051679,163.197831286290835350883
5.96999999999999975131004,-0.181857879924628762502437,-0.0133241322880953780988245,-0.89829922791590977038112,0.00789189970072171238790748,-0.000471305976903429069569534,0.00132218308716786493543782,0.00429442584454019227191424,-0.00495138986237432694725857,-0.0635820582821609997514756,0.997954975825500079089636,-0.0231375784680177658259037,-0.0197876664952624375937162,9.82274651232495266128808,-0.0131113387895235491281687,-0.014948856414586264573785,-0.00286522748074819486388543,2.46461015820859419278577,4.53699210009889686290308,1.30997850015714245586196,1125.04833416278574986791,1132.1626928681184836023,1124.92392341645086162316,1118.98599481144879064232,-105.495694031653755473599,-373.494858499733481949079,-26.1924968885528990369949,104.964940719585186457152,163.198749005792507205115
5.97250000000000014210855,-0.251535914640158952959581,-0.0134002174726642192537085,-0.826953941344148235614853,0.00872056977839975010213802,-0.00116432339322921664381827,-0.000328877869189296697868818,0.00427551027081186484773978,-0.00495683103658506058614153,-0.0635813362823196281947702,0.997955084982043660879469,-0.0232581666561047298302789,-0.0195526750043418379165772,9.82422702085337640198759,-0.0132867548012061669621131,-0.0150901670874263663102433,-0.00282462229891884599591867,2.46457492869361871612455,4.53696354602368501218734,1.30996196752725668766004,1124.67595612020454609592,1130.87131229655938113865,1124.92743162439228399307,1119.20249929226315543929,-177.555089579318035930555,-670.800970230843404351617,83.9280447653760148796209,71.757544970830778652271,163.199737860622263951882
5.97500000000000053290705,-0.323673804286718269640488,0.0586199699164728221800758,-0.721261003684074752939637,0.00857614116887625392571248,-0.00221520500304124220991575,-0.00214641240982922035934743,0.00425808712095335738234692,-0.00495530285557157102599435,-0.0635846331590455143834006,0.997954964331277949440846,-0.0232018949242618240103031,-0.0188896690730825378423674,9.82559604335966163546345,-0.0134658669990136339172926,-0.0152397646479481823494906,-0.00275774753928812203437881,2.46453960745416811306541,4.53693523155635336507885,1.30994288537073355627172,1124.1605587148890208482,1128.80868801696374248422,1125.34356364027780728065,1119.3447825363030005974,-173.217122995496595194709,-788.021020459671944990987,244.400814903979807013457,32.0159059015174989326624,163.20100591480905904973
5.97750000000000003552714,-0.349973889727004106031671,0.179364261896344107105605,-0.620160883234962434507054,0.00718074817126514771542523,-0.00298897421158750634107015,-0.00368819790983601061493125,0.00424496190711189450017748,-0.00494793574167450098816312,-0.0635930810393413314951516,0.997954524227272932179744,-0.0229341162244575194617546,-0.0177256115898411295561665,9.82677954516318763467098,-0.0136478141386890319125547,-0.0153956384902435433614798,-0.0026641984733310696518982,2.46450326536761865625635,4.53690651225761421017069,1.30992337954336401928401,1123.80987050522708159406,1126.93120719426110554195,1126.14943569891215702228,1119.36257882177073952334,-97.9914959731579955359848,-719.217956709568966289226,418.939155989173571015272,-16.3722309353037260848396,163.202129188846157603621
5.98000000000000042632564,-0.312449706445954322742153,0.347595911235285881524248,-0.506560504958653567975091,0.00493111390451437831689008,-0.00305389458764261222806224,-0.00519756057962405919325999,0.0042360562850509448501457,-0.00493542098080051571534765,-0.0636081961541589274711228,0.997953666100217740009271,-0.0224293748821059284181967,-0.0160545386045286703202706,9.82771001483023631806191,-0.0138314890685115321478094,-0.0155549931757996365982999,-0.00254545456099350376685808,2.46446571380635237602519,4.53687681754406835210602,1.3099054054612659925283,1123.6706012350232413155,1125.21259823341597439139,1127.43825942022363051365,1119.26292138162648370781,4.14973416563961805536564,-655.147510395604854238627,643.39286189762344747578,-76.9879362623230889539627,163.203319169686864142932
5.98249999999999992894573,-0.181742974918885857871231,0.568166166453496046528926,-0.358068041833286887509757,0.00242678049248677566232524,-0.00176912849113324390296076,-0.00669514820226798160196502,0.00422976314131416186031798,-0.00491654403408935819497216,-0.0636288531091455250576772,0.997952475556036500137225,-0.0217023410449605630434533,-0.0139140251568245637558974,9.82833000002151813134788,-0.0140156960082515047449903,-0.0157142347581078895002449,-0.00240485644213109988134858,2.46442736136030182692025,4.53684580887291755146862,1.30988950327355624381198,1123.83061917605527924024,1123.65546964228315118817,1129.36640000840020547912,1118.97763914045913224982,114.8020800002111059257,-454.040616331995465770888,725.513435607233077462297,-136.082946292393160092615,163.204820436776685710356
5.98500000000000031974423,-0.0134281760403720720059573,0.736165612506901267941828,-0.228605030971429284969432,0.00108621661960131197198487,0.000235514382812379135514677,-0.00746708076478750856774802,0.00422855438723175082460504,-0.0048937194857514281637334,-0.0636503972777866938725921,0.997951225738368141726653,-0.0207066521972153055886068,-0.0112692024111715055623151,9.82859437986762252137396,-0.0141992501940721143477431,-0.0158690962208057409488227,-0.00224706902111967976587437,2.46438939266850676190757,4.53681328973333020115888,1.30987527728178210217891,1124.2446116350242846238,1122.94239515175604537944,1131.06582659825971859391,1118.58250665016453240241,212.651646718500131783003,-147.565813385748214159321,636.089694919214593937795,-190.065191187663430127941,163.206129065042546244513
5.98749999999999982236432,0.180701832599907186160948,0.854253524481609183283126,-0.100857564695708668001117,0.000860303578813349659540344,0.00280912647353216433226963,-0.007743812033257682289622,0.00423245586418124260935647,-0.00486926967037566629098455,-0.0636676224638398485788926,0.997950235098082338858205,-0.019400182513441915910235,-0.00814604768781895804963256,9.82847409322738840842248,-0.0143808038258852414342792,-0.0160148423499996035712645,-0.00207814511752029123375918,2.46435176560969404491175,4.53677880324205506923363,1.30986287034870785284113,1124.8938774096477573039,1122.91764057535442589142,1132.54684848299621080514,1118.0273131845208354207,311.378618077021485532896,136.992699811847359114836,536.048341601929337230104,-269.319471487330076797662,163.207492426963028719911
5.99000000000000021316282,0.385874618366224053644942,0.911245028970625203790235,0.0419122625117275757200552,0.00204497020456463184795437,0.00603195445882198123810358,-0.00789506346462639195527,0.00423974548307240808875385,-0.00484409857007428099051616,-0.0636770192285520536534804,0.99794972886866695205299,-0.0177723332855764942772581,-0.00461943435787094680566867,9.82795827517524678285099,-0.0145586362821750470164517,-0.0161465428565139151872998,-0.00190531951747499876843872,2.46431297510348690238402,4.53674234764638928396607,1.30985316100052728849334,1125.80150472540935879806,1123.62735865081526753784,1133.74606830626930786821,1117.23590929272791072435,325.77306673138775749976,357.744626717438563900942,311.429891330233033386321,-293.899470364528383470315,163.209184833790459379088
5.99249999999999971578291,0.490674732802714730350857,0.877146711495868314223401,0.146130482826988067346363,0.00424587080880439726726649,0.00847233171759462395933316,-0.00772816097682448455846727,0.00424677438055527829707803,-0.00481729857665670179595052,-0.0636754615276467345053035,0.997949925349227773274663,-0.0158516994085605641973125,-0.000816508184906611367281926,9.82705558483977803518883,-0.0147306555102674641838378,-0.0162592891550164021785552,-0.00173672579666506459068753,2.46427210292826304183222,4.53670392405358491316747,1.30984749645520581751157,1126.52274274330466141691,1124.70636370894158062583,1134.10399793964734271867,1116.55781583269822476723,244.497215773167880570327,487.421907665804098996887,-2.92418885551348317619613,-246.982250756723971107931,163.210636395934443498845
5.99500000000000010658141,0.487937153446465377015784,0.752680144904884773637832,0.227073426781543352692694,0.00742139791157979400448852,0.0109395290600047892515256,-0.006783124306793349156397,0.00425149995036034310247341,-0.00478802367186604953264162,-0.0636606441251607035880511,0.997950983858111317914563,-0.0136738100127484427104285,0.00315617407392940196864117,9.82579380756003573083035,-0.0148945095417098299916958,-0.0163485005157437551792654,-0.00158076179297975127902021,2.46422898879785901016248,4.53666375559102696968239,1.3098472435675678759992,1127.02399080427517219505,1126.06446818914423602109,1133.73144736199174076319,1116.00099803894431715889,139.091029368615721750757,550.191385580142537037318,-260.473739344711475496297,-180.128859027371646561733,163.212123025834415557256
5.99750000000000049737992,0.386230187724909468371948,0.554048828126975645425034,0.285212686525624536937329,0.0107690794769321283169683,0.0135969811252232841702892,-0.00548347423733085148622735,0.00425257740959270654629298,-0.00475393019037056129005858,-0.0636322489125923929087492,0.997952941751012900795104,-0.0113104906444991618053031,0.00719470039274888728542123,9.82421914650474015218151,-0.0150477538247987801395267,-0.0164102378129032250297925,-0.00144550143533032243205183,2.46418354260342997719135,4.5366215819543089793342,1.30985256607878874923756,1127.21819789014784873871,1127.4573206368427236157,1132.80162924292358184175,1115.65717153756122570485,-18.7238964740121787144744,519.54027038333344989951,-475.677621330815895817068,-64.9210529466941039800076,163.213632325857275873204
6,0.18556990440552323384793,0.279093938559967114088067,0.320338131721579821853396,0.0129685174092408466578474,0.0157676499661708081900802,-0.00447752290120998278077913,0.00425034929502839196185926,-0.00471495377663570369025647,-0.0635925183738765692487149,0.997955655477322456370359,-0.00879671125318767788137109,0.0112243615489021897335675,9.82239364180303375917447,-0.0151880775446724663318987,-0.0164415225016993106488261,-0.0013377744741911747321933,2.46413630064661504093237,4.5365773224812295794095,1.30986208686787986010813,1126.930371321905113291,1128.66216954106084813247,1131.35305925533771187474,1115.67639277421085353126,-252.893547607123707621213,438.801305087745561195334,-704.690570142307933565462,103.985641432020599950192,163.215160435095441471276
6.0025000000000003907985,-0.107266864287002147704264,-0.0999945970894733360267992,0.350589564067988468387682,0.0129925432693566121622464,0.016766442860104664031029,-0.00388602645626593724836884,0.00424674436577556890098917,-0.00467510416273590051483566,-0.0635462436351369314158077,0.997958793190469983791502,-0.00609472849747812184251217,0.0152028128834957587667276,9.82039179103106363299958,-0.0153135040435959466492699,-0.0164406557946826757665715,-0.00126242091824202906300001,2.4640883524449272989898,4.53653121822528770934468,1.30987361416475911468638,1125.95373015211225720122,1129.65132716228140452586,1129.27817639221211720724,1116.17709974472131762013,-461.898861261953072698816,264.330786627630175189552,-777.55280468283513073402,258.063550887487565432821,163.217004350513548160961
6.00499999999999989341859,-0.339094784381732516909125,-0.415655965756813738920528,0.37635485964789844315348,0.0109823993799150129713205,0.0159053481728055647048681,-0.00360265266445941719983259,0.00424225371649069194629478,-0.00464040839457042011972909,-0.0634992814226952723144493,0.997961952184495348916471,-0.00312974838295092261386543,0.0190614675232693708828435,9.81829723280021227083125,-0.0154225275741753601460582,-0.0164074533317234184937039,-0.0012220173380879492848472,2.46404088283232214351415,4.53648509592739124229865,1.30988456390738483570146,1124.62087701559539709706,1129.98382347419897087093,1127.46529523192361921247,1116.96671052864826378936,-623.245535262426187728124,21.9143756085036436331848,-703.925594102762715920107,372.662022421772007874097,163.218541306905649435066
6.00750000000000028421709,-0.505380289811055538606865,-0.679311954703250453491137,0.407747229668275146252654,0.00810412371050152346985129,0.0133342400390911615393197,-0.00294909741733391430468236,0.00423805262726910988296813,-0.00461274558165397641218419,-0.0634544605795162308670143,0.997964938973683213241372,8.80517604369412953957408e-05,0.022742751408759170894669,9.81619862851405677872663,-0.0155142046820256531564075,-0.0163432570322407794138897,-0.00121692257022232210722512,2.46399386277961029989569,4.53644030548095944510578,1.30989350502303603107634,1122.83750247580019276938,1129.76089904032392041699,1125.75854842169837866095,1118.04040985683013786911,-849.412922577830499903939,-214.883425921611916464826,-699.312021637994234879443,502.225347279419793267152,163.22006971800425390029
6.00999999999999978683718,-0.602952591918600400155981,-0.891612487843787437924448,0.448771799902652146485593,0.00478270541295605731285656,0.00906337314092183973790462,-0.00177193253113083434326092,0.00423364608486834301942503,-0.00458954900972407923986918,-0.0634116066256437543868785,0.997967779421685685647958,0.00346204564232347605789997,0.0261568852558449471690238,9.8141856122742261447911,-0.0155880876761873045366347,-0.0162508523738889333609681,-0.00124555847789133578712439,2.46394608766350886597252,4.5363971671299063714855,1.30989989526132211139497,1120.37381240270633497857,1128.90940634459093416808,1123.96873512373372250295,1119.47783726504530932289,-918.844846301655252318596,-388.184289115460273933422,-606.146509187387209749431,521.915152972871737802052,163.221884584962907638328
6.01250000000000017763568,-0.60324838652732692967362,-0.970277920184764552935519,0.481221109425112425483917,0.00252296142662428168890187,0.00551724091700740021382288,-0.00067451562771509300086431,0.00422743245326460872351992,-0.00456522998817365886076169,-0.0633729737147902816296607,0.997970364027818468422026,0.00683717872764613709968273,0.0291979603104000479119051,9.81234415601426945841013,-0.0156440788348516206240912,-0.0161344480348327989904789,-0.00130469638275187396932175,2.46389684067469483252921,4.53635621927345944470744,1.30990314763614379423018,1118.24327824429201427847,1127.81997759474666054302,1122.7278158757615074137,1120.64998562169444085157,-816.491856839783963550872,-478.895702922016141656059,-447.847005800597798952367,427.171861055809642948589,163.223374788614336239334
6.01500000000000056843419,-0.542973635591424308444175,-0.95842838882471881323255,0.506124984013239576086107,0.00103275086657070823414895,0.00279214322262259957707631,0.00050336203646718748801886,0.00422096513225562325333229,-0.00453795173608113194818614,-0.0633403451548550794347747,0.997972582601037938587751,0.0101289260651752505149048,0.0318384832726860828033821,9.81075070153108796944252,-0.0156826949277035394836322,-0.0159993493815690675241559,-0.00138953140538642695711591,2.46384748977557777038783,4.536318316453428423074,1.30990313723614160146269,1116.29135311850677680923,1126.51492782998047914589,1121.72950009473038335273,1121.61369657032469149271,-759.450910643061206428683,-580.106614435875258095621,-395.111154977447995406692,337.901239196715266643878,163.224835381647721987974
6.01750000000000007105427,-0.437846852578167744507454,-0.871198779601760620039386,0.520588504090443882077466,3.60321425399537679720718e-05,0.000536914202435908195082392,0.00207505568277305567012614,0.00421621720673150904984405,-0.0045103552268034516337103,-0.063314222382784501874653,0.997974385102698757776807,0.0133421962695008805566133,0.0340786756160230686063528,9.80946877558796437313049,-0.0157052254818249373280459,-0.0158515837992694585967257,-0.00149420086029734095964261,2.46379951101904692833955,4.53628381073900310838098,1.30990084855127220109239,1114.44602369107678896398,1124.91944452256734621187,1120.7522601008743095008,1122.33949181767798108922,-559.689702878325192614284,-563.350437476322667862405,-330.150837201024614842026,173.9317652830814608933,163.22654718921120320374
6.02000000000000046185278,-0.348508920964825552601951,-0.76145682911020973193672,0.515503877823990985795888,-0.00032630678684684224230908,-0.000762608775652971553581094,0.00349578226840705288958056,0.00421700168677822690571633,-0.00449044183324427519099498,-0.0632938047874667536474291,0.997975770729870648168003,0.0165879198090548435340352,0.0359766870471523447783113,9.80854550168214878169692,-0.0157136962647788230862389,-0.0156974644123189961686382,-0.00161210239180252794428949,2.46375387525888456252687,4.53625246436176343678426,1.3098974513407688480271,1113.49290460411521053175,1123.6981756425989260606,1120.07874590872529552144,1122.48335539674008032307,-235.711161344038856668703,-445.66706237525107781039,-245.312544113908870713203,-47.9139086732185432992992,163.227935374120335154657
6.02249999999999996447286,-0.280022906480571542875424,-0.633348419058978207019095,0.489723325829984346135859,-0.000449406702040408513251779,-0.00187380806910556309621829,0.00476194288216436317079383,0.00422437106393531644488171,-0.00447981454109523235390666,-0.0632789477945943645842419,0.997976735333218512025155,0.0198591659538304571297473,0.0375446042932049695028951,9.80801216573234668771875,-0.0157105612635223684803165,-0.015543176116058991104163,-0.00173666345680706509999047,2.46371042765749281855392,4.5362229490818002375363,1.30989326525748817076078,1113.26746788435661983385,1122.69110921069113828707,1119.5256973803047912952,1122.09992227431189348863,72.0644268144512238905008,-383.557199023388420755509,-212.753818217656771594193,-278.824889768890500363341,163.229279422843944757915
6.02500000000000035527137,-0.235514182239364155968531,-0.469120409733894627724027,0.434048308735730414831266,-0.000559074390013209235848757,-0.00334463779086710110560743,0.00584775733032122466831249,0.00423458524571774901079646,-0.00447838871271398920176354,-0.0632682415260633623788067,0.997977382847845539970422,0.0231267610682997781790249,0.0387142556648920610484765,9.80788288007735609141946,-0.0156984846107431560979784,-0.0153943477031111101982486,-0.00186136704105741316792044,2.46366886684494357240283,4.5361940997669458752739,1.30988794451786216832545,1113.85322673818745897734,1121.78038964748202488408,1119.01497681763703440083,1121.08923094789565766405,343.501920560318524167087,-283.229314358692704445275,-155.467589347612062056214,-438.669133205449099932594,163.230836806842660280381
6.02749999999999985789145,-0.231724214757074276072046,-0.326901677257077583060862,0.365415250663224056015821,-0.000741530451234284973538458,-0.00472102423090621243356724,0.00658680919458709285968512,0.00424210672815242099964461,-0.00448425091115217666626336,-0.0632642139628512706339691,0.997977583666150747099266,0.0263323363463880827373131,0.0393950958913102805558637,9.8081536725519207209345,-0.015679884887730404646744,-0.0152560286459865364350197,-0.00197978478859727954897174,2.46362932288329306018682,4.53616611714411543943015,1.30988065651875951189709,1114.98497748715817579068,1121.27496263889770489186,1118.74835943356674761162,1119.90657660828469488479,554.662526401592003821861,-152.449187285177288231353,-65.156492089819522561811,-501.840267639465082538663,163.232085425126598465795
6.03000000000000024868996,-0.257351225127456118002556,-0.185831470233478124320925,0.268112585959203342245161,-0.00108844041267999215583107,-0.00585840120728244300590815,0.00723890746617381758420962,0.00424388813439610310118688,-0.00449081759092615460937647,-0.0632685321449047294306567,0.997977273406096876406934,0.029327906023246960720563,0.0395527222453163074256111,9.80880258929710713289296,-0.0156567995296960534024056,-0.0151324403838366539076787,-0.00208574795500579210361103,2.46359075173539743275342,4.53613920356403887979013,1.30987085945954873089647,1116.62653937019535987929,1121.0181437110561546433,1118.68919435718794375134,1118.58002960969838568417,710.847088690722216597351,-65.241332485176400268756,14.907132561347998134238,-517.945012109123240406916,163.23327972794456286465
6.03249999999999975131004,-0.299623715933844791958762,-0.0566023905201864588332406,0.140753678284937094877804,-0.00154785114454549974603859,-0.00617813585793485636754596,0.00790266096628663115841729,0.00423968256714048804395523,-0.00449259843242928638001876,-0.063279739907300638912524,0.997976569678621028280929,0.0319882310195590130463827,0.0392197201112557125579627,9.80978999994069233991922,-0.0156307834858611244266413,-0.0150267987364736919919661,-0.00217344890491165182097588,2.46355208476277454110459,4.53611295616641818639891,1.30985837010531369628552,1118.53921293061171127192,1120.94875597647182985384,1118.82289509637348601245,1117.31685154773913382087,791.44559413627439425909,12.1101909225674564396513,100.681830088435489756193,-448.085111294686157634715,163.23442678666893357331
6.03500000000000014210855,-0.349240018185178024978654,0.0412507660401710690711852,-0.0299140779397724793087221,-0.00206404273020513884945304,-0.0052834927184819274748051,0.00854123516281679422135209,0.00422984603179815937118446,-0.00448964314113590133581422,-0.0632965701172246014705181,0.997975551438424535177774,0.0342995793368873341799841,0.0384558383250942770192893,9.81106032858216181580246,-0.0156027901983384759132534,-0.0149413276907494375900232,-0.00223771465595603170212202,2.4635123406675396573462,4.53608707538956590354928,1.30984353000546982492835,1120.58376734087664772233,1121.07869466566899063764,1119.19260350763011047093,1116.33960405322500264447,881.851797334046182186285,95.4273109783422057716962,214.864391134381605752424,-324.655706096740857447003,163.235514474590104327945
6.03750000000000053290705,-0.396402215194758988925372,0.10994477773216984606286,-0.286875660243364083434869,-0.00300617080198979820526706,-0.00376415374171349412582566,0.00887110882904819895988791,0.00421648810145764264128987,-0.0044871424045149887332995,-0.0633183234395406080441404,0.997974232088102541915475,0.0363498099993479900637894,0.0373672726349985606653092,9.81254465546054532865128,-0.0155732640308571517601122,-0.0148772408474348999396497,-0.0022743506043923960094344,2.46347163020843007430472,4.5360620406392655468153,1.30982616503625193260518,1122.94847191728263169352,1121.42589253136361548968,1119.89721705204556201352,1115.69357301725517572777,820.567636240611363973585,152.082104645709080159577,301.130295870968495819398,-137.410714213368208902466,163.236748291005426381162
6.04000000000000003552714,-0.407550582707175201857552,0.131414098929372835655727,-0.537900101894215221243201,-0.00433116753761687931639779,-0.00282667366786124550637194,0.00882468777363852596717919,0.00420237360473132114113692,-0.0044917315663211034026947,-0.0633430113362924845921142,0.99797269930315590791281,0.0382569845772764427493939,0.0360774641777075466553271,9.81416511093238952412321,-0.0155423495512362914300342,-0.0148346425523332801216236,-0.00228064362148867232418792,2.46343007784244560909315,4.53603729304586789083942,1.30980713563126993648211,1124.68660552207961700333,1121.83910518889751983806,1120.69825498698492083349,1115.65255048215817623714,615.387558119404616263637,179.811311762163512639745,368.038995594186985726992,78.2217670991047526740658,163.237715175510601284259
6.04250000000000042632564,-0.370423484316984463760036,0.135984178542882888640619,-0.806526296932477904100267,-0.00616290184466749581260192,-0.00257282928099041713343453,0.00816197190042327810899359,0.00419195647944089946207447,-0.00450674219163673880905741,-0.0633651727494354694014689,0.997971269115872194888084,0.040074736005082572942726,0.0347382535474515669049467,9.81583953877414927546852,-0.0155100976252435952124076,-0.014812439955476194852757,-0.00225577460167144128871941,2.4633874779645235086889,4.53601187157221907853,1.30978833413453998879561,1126.02540970787958940491,1122.32494909017441386823,1121.73741203001645772019,1116.08468185275069117779,471.653997510803549175762,214.50941874282310095623,519.010344439731966303953,266.534027589528932367102,163.238616523516299139374
6.04499999999999992894573,-0.261333938184717506914012,0.151480628794558869198994,-1.10572106265852276862915,-0.00823660590557588959126356,-0.00294806283018799342859895,0.00570580494408949676771181,0.00418672855871166614549761,-0.00452576973896260618263065,-0.063378121693088235177882,0.997970387478217535459635,0.0416711291540396711052807,0.0334281042757828966704992,9.8174879146321636369521,-0.0154765285719014808463179,-0.0148084656755666146249473,-0.00220125080627590896664714,2.46334365382346431871952,4.53598444828173086307288,1.30977158664109127883535,1127.04487550963358444278,1122.91165228261161246337,1123.2933067091835255269,1116.98522062010579247726,268.314280200235145912302,203.938460857948285820385,624.350726523302569148655,361.58514539680118105025,163.239620169635543334152
6.04750000000000031974423,-0.123495102625156019660047,0.189201308873293783108238,-1.29560886607054004393547,-0.00928498743888783208133564,-0.00344551675056765059623753,0.00223315799924807874971,0.00418475870404362224053152,-0.0045440310694365437793607,-0.0633819653988781928077856,0.99797007346757582446628,0.0429503239643011652804105,0.0321554416430319817132855,9.81903419529325738324133,-0.0154416071212550506941419,-0.0148199498201720802209591,-0.00212038318110326258481013,2.46329898745266362425355,4.53595504630280554891897,1.30975783636956388811257,1127.36698110888073642855,1123.34464139446413355472,1124.85916566263290405914,1117.89260757973465842952,25.3451881215829359916825,151.271562278501306764156,675.984155014353632395796,356.16580316960460095288,163.240389838240190556462
6.04999999999999982236432,0.0420387899137811688055066,0.25935017029467133387044,-1.37931500016496300098368,-0.00935144116422923638021203,-0.00337450697361090174233866,-0.00215155733463502423993829,0.00418245390432016913434543,-0.00456111715226648235799178,-0.0633788236190891002275194,0.997970206230315848294765,0.0439048161465510206058482,0.0308939400789162432747759,9.82040897220256070454525,-0.0154055063054760535412591,-0.0148436828268915920608917,-0.00201778952343798769972216,2.46325518909147600510323,4.53592408081614451020869,1.30974754939708804002407,1127.17160145024149642268,1123.66801009400410293892,1126.67322748425522149773,1118.76604963595377739694,-180.71117473596518721024,114.597479171109341677948,832.10550679079415203887,338.28829251720702586681,163.241088050761192107529
6.05250000000000021316282,0.242563387632083626854751,0.37466219368195446959291,-1.32443978862831102105702,-0.00828083207695651073165788,-0.00212011982415207314578431,-0.00785177753413867154930195,0.00417753740418487160002137,-0.00457610587587194486691722,-0.0633694735730496311321147,0.997970748797975870658661,0.0445162788765995770523531,0.0296327472109897127605649,9.82155296305395708600372,-0.0153686478492438740456327,-0.0148761716994997260365974,-0.00189901186310670929552336,2.4632133843512944437748,4.5358929785455517347259,1.30974062330856466651596,1126.46342523520092981926,1123.91762879031966804178,1129.0196931965867861436,1119.58404904232065746328,-312.814419947614908323885,75.2434808539435522334315,860.604067275489910571196,242.491491796868729124981,163.241840514602642997488
6.05499999999999971578291,0.393306690141755899148279,0.490980430446990301351917,-1.14442323739171514240809,-0.00686568160302671297995358,-0.000546463775074753905884595,-0.0123434414945735471819122,0.004169862951493253852564,-0.00458720959947164861475466,-0.063354586681873131803755,0.997971667810874318860215,0.044747415876056281791584,0.0283909743829194038955421,9.82241937213349380897398,-0.0153314654908508016945001,-0.0149137733793657488445827,-0.00177003579011408319898724,2.46317295863647744980085,4.53586224041927899008897,1.30973572831108731051586,1125.60752935050345513446,1124.04422749827381267096,1130.97624782063257953268,1119.9785070949380951788,-365.527651527153068400366,51.7558163116074965159896,740.185206553830880693567,88.3126010488486485883186,163.24239424095446793217
6.05750000000000010658141,0.516021898563987613250958,0.628656607862502880834654,-0.844495833102771986666824,-0.00560498725569330558116121,0.000683556501928521409450212,-0.015690836201065535421284,0.00416092299871886547868449,-0.00459626068366157398276117,-0.0633348223411968475060618,0.997972908787661761031984,0.0446305071502514222325786,0.0272130199243378056994658,9.82297470502670577729987,-0.0152942012425740236913896,-0.0149526585087591118439221,-0.00163678640479807471774798,2.46313235375696848450389,4.53583115459281671633107,1.30973260944816383144484,1124.635786977565203415,1124.17640787187770001765,1132.72061922935586153471,1120.02561204756489132706,-387.943411278486848914326,72.3167620579148007209369,628.567810388669386156835,-36.041240573553118053951,163.242869102583085805236
6.06000000000000049737992,0.612820828981837428806045,0.78755369329557234348016,-0.475795677043646669801547,-0.00448632982626724196445478,0.00144980446452442376763237,-0.0176793006304284995577891,0.00415396554641572941790617,-0.00460584768970120125158862,-0.0633107612752418225099404,0.997974412878324668163543,0.0442112033467644688355946,0.0261671977327429805537662,9.82320018344061018922275,-0.0152568116009505483354758,-0.0149888003849233935466101,-0.00150495598882072287999501,2.46309076764913514878685,4.53579837733183044434782,1.30973111826170218741083,1123.66781229411071763025,1124.40581130856344316271,1134.11908687257641759061,1119.79830089207030141552,-370.067040368220375512465,138.590096829241929299315,439.99201757384099664705,-143.322389953258010564241,163.243276381746085235136
6.0625,0.674892530534327628188862,0.96862019649451736036383,-0.0715347949344977834806869,-0.00311319847529245141010135,0.0022677034186041620036911,-0.0180109005968525255625412,0.00415230344260879638551565,-0.00461277743467030862389855,-0.0632874190802770741903771,0.997975865636816950043908,0.043422096456515527074238,0.0253054212799770916753062,9.82309344588609612003438,-0.0152188805081950664921386,-0.0150182535561019202263733,-0.00138005128224023983739277,2.46304774070870147184564,4.53576332373619095506001,1.3097305904823290934047,1122.78545177572414104361,1124.86935835602389488486,1134.92057931722501962213,1119.30900009779861647985,-357.372446854249915304536,282.161541162082926348376,183.600150944452536805329,-250.109197851457679462328,163.24359942089330388626
6.0650000000000003907985,0.700950373728131848061196,1.18531976430718666293274,0.393595300040324114210222,-0.00103709454222749349744381,0.00423792705446924752865634,-0.0168469321748713311837076,0.00415585144326743264470148,-0.00461236253895643683042849,-0.0632695864856469142312179,0.997976987637461787628013,0.0421719400908604907796118,0.0246011616673731947635417,9.82266750956684298046184,-0.0151799345735993598122127,-0.0150373070222103600440677,-0.00126719040110349467215256,2.46300294924509444172145,4.53572542397755995580155,1.30973129162629886579339,1121.88095005983950613881,1125.81661901437382766744,1135.03708762729866066366,1118.54775490281303973461,-303.461246163539840381418,420.749250617800385043665,-105.471757690295333986796,-287.794944625745074517909,163.243886252319867935512
6.06749999999999989341859,0.675684725103541938828755,1.3307022915498627479991,0.72611335340838356611215,0.000862010706402822381166917,0.00711670086720351136727603,-0.014844091325253999311129,0.00416246212074384940027283,-0.00460678532718869319928512,-0.0632609929897046813218608,0.997977540287945386054957,0.0405085319114469044610161,0.023987585923540083454597,9.82194735946739783116755,-0.0151396889983899333304018,-0.0150428692090029247213634,-0.00117065349510042833458545,2.46295697828394200001867,4.53568498435377431832194,1.30973375370066413836412,1121.26814554490647424245,1126.97310460911285190377,1134.39322052877355417877,1117.87002537466992180271,-217.178680175497987647759,532.143382637161721504526,-399.433585768119314707292,-258.091583704441347890679,163.244038960108952096562
6.07000000000000028421709,0.596564265296043005903925,1.38953589262206467225269,0.966477224221435449180717,0.00274802108386095096659307,0.0112169963984283319047286,-0.0119436730641237047467751,0.00416848732342344364260045,-0.00459341776174161144086217,-0.0632618740630330744778576,0.997977532237750541987964,0.0383898685266823719297591,0.0233559978002283730180721,9.82097021003684744755446,-0.0150982654223787860631179,-0.0150328100329899690124069,-0.00109405707500969577930516,2.46291057798069701334498,4.53564316932401290216603,1.30973762206828192589114,1120.79505665896203936427,1128.47733592755957943154,1133.03991969845810672268,1117.25729698429086056422,-179.759153059653016271113,709.826876628100421839918,-721.441320279124624903488,-234.451569723938064271351,163.24409956519178876988
6.07249999999999978683718,0.439997442177514463956811,1.3098511900385283457382,1.12429258477896221180004,0.00471752866253149182040882,0.0167633528281255807235173,-0.00780997738849440511360589,0.00417240104023103297592456,-0.0045710415571500670472993,-0.0632714555765893360561591,0.997977021397553731851815,0.0358020701934255031195775,0.0226374756500927476476903,9.81978106188052812797196,-0.0150562361949275209244137,-0.0150063559656369062411674,-0.00103984554232081105075436,2.46286417202550511618142,4.53560067309635961407821,1.30974278824095335949096,1120.36934977960822834575,1130.52223899225327841123,1130.78601392737800779287,1116.69776752605025649245,-135.541822833559479022369,750.730021425322433969995,-892.387517721836843520578,-165.334269857434151163034,163.244063211487713260794
6.07500000000000017763568,0.264041156494406681343179,1.09722884129201236902418,1.14191284768700218599236,0.00598035732330114838672941,0.0212365340826131156204415,-0.00407425105757543148943256,0.00417388526563452089829243,-0.00453930032788668787191444,-0.0632875556394517091440832,0.997976147491543286172089,0.032750612431778639010993,0.0217870458828844093535082,9.81843014726162088834371,-0.0150146729270796471661376,-0.0149642423666837918322381,-0.00100914681955070750785097,2.46281759363225871695136,4.53555858517845411626013,1.30974925407752795791794,1120.11734754479425646423,1132.23098603468611145217,1128.57798210984901743359,1116.43062563500370742986,-83.8671321162888290245974,626.739311133989986046799,-900.555706624432104945299,-58.2559249693895111477104,163.243940323192390451368
6.07750000000000056843419,0.0545061454748597684627498,0.732580637854614358239758,1.05171294270144155547086,0.00674572600631811319926712,0.0249419578992241749992864,-0.000337950120071720959587236,0.00417567208079123921432574,-0.00450220856526260728575073,-0.0633062037876663263880062,0.99797513115895375435116,0.0293276037421273116923004,0.0208269454089649308503596,9.81696897817297120525382,-0.0149751875995844854067007,-0.0149087226502103500913599,-0.00100144429217259014683328,2.46277149823618390911406,4.53551872226257835052365,1.30975570943388763822668,1119.95001411902671861753,1133.65593554792371833173,1126.28323539425514354662,1116.40648790120326339093,-62.5553487037463753495103,494.785264700350694511144,-976.293129299640781937342,47.7554888354016995322127,163.243719545512732338466
6.08000000000000007105427,-0.211417560740974008748339,0.151830393547389363995137,0.853573112730463989805685,0.00696946089706825325227335,0.0277618129187178902528288,0.00356876310850061124330113,0.00417962763551038042619812,-0.00446441555387273782823376,-0.0633244546019625514921003,0.99797413005834467725208,0.0256437927586054409401228,0.0197680850395564045030028,9.8154488298914479571522,-0.0149398506856905539941227,-0.0148434524803441013351968,-0.00101474446521260990364266,2.4627262746434226414749,4.53548220164443716129199,1.30976039858635973089918,1119.80457080127553126658,1134.70491235818781206035,1123.69651646335091754736,1116.66940307918071084714,-53.906767736590396111751,236.841200594931763134809,-891.425179219159758758906,143.871870196065515301598,163.243339682832640846755
6.08250000000000046185278,-0.421867007803279070454749,-0.407790851138850385382284,0.653647667486991879037816,0.00640648723594535330488897,0.0282798250006418248891915,0.00577297242342158806877039,0.0041866519516151647073432,-0.00442983426205299270217441,-0.0633411526702007815492479,0.997973197274711343318643,0.0218022902260362611004396,0.0186085907061944166862588,9.8139182098266033449363,-0.0149111322188987399650628,-0.0147731130950284512970416,-0.00104576231036372494821729,2.46268247768743941961134,4.5354491376931127533112,1.30976259265911254559001,1119.68048028034377239237,1134.84014155089835185208,1121.82610949815943968133,1117.12584725218357561971,-65.0198632474726139207633,-120.278084306621906307555,-668.868403655110910221993,228.554379217398803803007,163.242926252527666974856
6.08499999999999996447286,-0.588630407965399671255113,-0.97706906726624631609468,0.476536358150733030392132,0.00472385004503558629529447,0.0266098123845388834229908,0.00611193168280451185059299,0.00419571761676795947082486,-0.00440334870328350398704931,-0.0633552529470489816931789,0.997972383086901504434252,0.0179336873031771537601031,0.0173185196208864300437824,9.81242032660333407534381,-0.0148918615566481834372459,-0.0147028491343286354942066,-0.00109021356428178626055137,2.46264050519908339609287,4.53541972005722993088739,1.3097615317768236398166,1119.4794714850381751603,1134.10352193665471531858,1120.35217444507543405052,1117.81217497526768056559,-103.587616745701254217238,-432.770286463946945332282,-519.33331705782813969563,308.364291928371358153527,163.242410989616104188826
6.08750000000000035527137,-0.696543702571082334884522,-1.49743914419611834354384,0.359558989216806235145185,0.00222734391534989842678649,0.0231208490003145805680163,0.00496951497599635791391215,0.0042021817591771700589609,-0.00438374875337736030767033,-0.0633677800335572388723548,0.997971646850100535530714,0.0140595884133994653009125,0.015799022652679309275392,9.81099257470300756267534,-0.0148849933770099970148371,-0.014637776255976349404353,-0.00114352175801021383252931,2.46260044745135830979166,4.53539366216940642573263,1.30975680234196900642019,1119.1625421966152771347,1132.67629011857866316859,1119.22944291287035412097,1118.6676687118253994413,-161.855072341635406019122,-703.396948381775018788176,-368.388960401997451299394,373.213347754752930995892,163.241810225950246149296
6.08999999999999985789145,-0.716957198838138687335686,-1.89432766169325605964957,0.341291144143049229864317,-0.000708742968896306337403534,0.0177155032787354241308186,0.00339275353881992019350333,0.0042021797284804629155075,-0.00436862953244457254825539,-0.0633787549137972971990962,0.99797101428324241911838,0.0101830753816747748841109,0.0139744399165265958950854,9.80966364519741240712847,-0.0148934968919053178221246,-0.0145823662381496278739323,-0.00120105716950723783939536,2.46256262166053740969573,4.5353699066145987117693,1.3097487298246603959484,1118.67019612333001532534,1130.58653719474591525795,1118.51022964306548601598,1119.67824171404140543018,-255.770020518008095677942,-1003.75040292499170391238,-234.337095895312359061791,458.923954451493727901834,163.241104925264210123714
6.09250000000000024868996,-0.640898519556421963905279,-2.16420000212058960542549,0.422709110963168821495373,-0.00416146926189901213144484,0.00953120705739554652247136,0.0026388909297296344984296,0.00419238939780965710196758,-0.00435670019366885246520082,-0.0633884363639341114060599,0.997970489821086825799057,0.00633330011240891554979981,0.0117901071750803748683367,9.80845272295060333078709,-0.0149200631231419938993454,-0.0145400481844774314560409,-0.00125858667267464289021839,2.46252714514435266934811,4.53534706278659882627835,1.30973834768639463277395,1117.88369209402526394115,1127.65753810395381151466,1118.05775743339381733676,1120.96228848408281919546,-312.573541227682028420531,-1084.67533074197081077727,-106.201686018314362058845,460.343011237010443892359,163.240135659852739991038
6.09499999999999975131004,-0.511676206630414687204222,-2.19365774401733482079635,0.541302316003458572346574,-0.00645963088309145592319505,0.00200746455188544276407314,0.00339802058726249934031416,0.00417589565339989907122309,-0.00434940740270474239526077,-0.06339936680994602558048,0.99796989296676941183506,0.00258860419466508395736071,0.00932816371711106540054459,9.8073685837053172775768,-0.0149667309273917355921801,-0.0145130211110247302891407,-0.00131248639657992089042893,2.46249386767414701893131,4.53532389716001649304644,1.30972623895801487670099,1117.10732841719163843663,1125.16316054103617716464,1117.97922121297392550332,1121.97995677022640848008,-319.355672466197120229481,-939.75714816394611261785,22.512241210188701501238,365.236170885790272677696,163.239223882787740649292
6.09750000000000014210855,-0.353359243468329919934945,-2.02797779531745669956422,0.654702013469873556061884,-0.00735439856856559895370573,-0.00481964902300415897612451,0.00562313716994287341593983,0.00415646430821894723173227,-0.00435015232185692081456896,-0.0634144675121701278941444,0.997969008638598276128562,-0.000933064145612116924155544,0.00669288299291168065074942,9.80641154816524007742373,-0.0150346027122969377876061,-0.0145021130718199098980081,-0.00136020718664852128740317,2.4624618175539052522538,4.53529924327734867972595,1.3097143401373894100459,1116.28691373169431244605,1122.95875236313418099598,1118.17031863944475844619,1122.78846933851173162111,-347.43471038986200483123,-840.590738028554824268213,140.203175270358684656458,274.006059277874442159373,163.238201984666090993414
6.10000000000000053290705,-0.183199796791911284632448,-1.65559095318590832057737,0.72211641886769994957973,-0.00669881727758812363371366,-0.0109774234588508167592691,0.0094066629403165846756707,0.00413405980825566881503574,-0.00435996018184434987186027,-0.0634351439389563426241025,0.997967744768854858605778,-0.00415499607558485195557552,0.0039159469946655200978114,9.80557585001702847193883,-0.0151236090230879340057246,-0.0145068310212128990382974,-0.0014006157012735401257153,2.4624291485194023110239,4.53527197988848218557223,1.3097043323222010702267,1115.37015486524205698515,1120.96020685089274593338,1118.68023708932582849229,1123.34998706661599499057,-305.625743311572648508445,-599.721550357766318484209,229.275758286853829304164,120.365970673495056075808,163.236845746325741401961
6.10250000000000003552714,-0.087612619302427682810297,-1.25611098602627735409953,0.691587598174276840801156,-0.00539142507406404833392166,-0.0142787434319712417535309,0.0126690330899111303075699,0.00410784569319425172523319,-0.00437157745127222593928273,-0.0634598831625634712816364,0.997966232352840432184848,-0.0071628068384537932344891,0.0010063552752628823760972,9.80485098925706388683921,-0.0152324221874757179118198,-0.01452563384641086807747,-0.00143393829984779183107924,2.46239428371013646668075,4.53524139101418644060004,1.30969669971180646683706,1114.75878501513648188848,1119.96014461134541306819,1119.31669743087900315004,1123.39029919187919404067,-189.466110855259501022374,-260.237640103429043847427,290.329116302343038569234,-80.7665245740753476866303,163.235605298238510840747
6.10500000000000042632564,-0.0516866996237432332894635,-0.834066082806859343534711,0.561701522467974556640513,-0.0043405881425576326240745,-0.0156810145578912679686923,0.0151399171578681969452251,0.00407881815805028521276787,-0.00437787405191909350515855,-0.0634834757260519938482091,0.997964829218880744576836,-0.0100451138546497412140646,-0.0019888642327702127365896,9.80422171141826126472552,-0.0153586273586396281076727,-0.0145563789152382948993703,-0.00146109037721377493096453,2.46235529757879412215971,4.53520771735200334262572,1.30969176592089930899476,1114.42282431096577965945,1119.65901865037562856742,1120.13188267083751270548,1122.9461544437456268497,-60.7871414525574635945304,-0.471094639397061698549152,385.287463474113792472053,-298.703534280600251804572,163.23424895020005465085
6.10749999999999992894573,-0.0612987782579517970216187,-0.369201215127491655376701,0.306975710546642965859121,-0.00393980578450711226706771,-0.0156043691181670749618116,0.0169013561695801201034683,0.00405028543431550178827161,-0.00437772492386745600001507,-0.0635002221984075632121858,0.997963888383244013269291,-0.0127809454977888189985968,-0.00496894638726942672324327,9.80366883228357899326966,-0.0154990156122945966360449,-0.0145969389651799778817587,-0.00148306935904908955906056,2.46231198272948548222416,4.53517221498954814506988,1.30968892224567579063432,1114.45484930787370103644,1119.95778913814842780994,1121.24313474824953118514,1121.89678152047622461396,95.041371761182958266545,185.979573680792185541577,416.181234619452652623295,-453.144089627549533361162,163.232487883232721515014
6.11000000000000031974423,-0.0896592870137429970300857,-0.0478527081505051299359366,0.033787350589322251437352,-0.00426754871321965729286108,-0.014743654595838233054006,0.0174505956121539448910873,0.00402557299026499049859895,-0.00437308434172403552586683,-0.0635088657440646270346818,0.997963466744613780790019,-0.015295664917313114838926,-0.00782874426434193582124976,9.80317119630060140877958,-0.015649950021286936768794,-0.0146457839018608888120854,-0.00150073459297503744060143,2.46226541200284421151423,4.53513575958656200981522,1.3096867768362250306069,1114.89803116977168429003,1120.58891651877956974204,1122.21278884393473163072,1120.6804339956079274998,264.665759913856334151205,290.621229719096675125911,380.673251144034054505028,-526.071951439382587523141,163.230911156384451032864
6.11249999999999982236432,-0.108589117019569109112709,0.191832638862912352450962,-0.272806445942411435190422,-0.00508217806718537501442512,-0.0135028374237102649635389,0.017038199178211702738972,0.00400858859667061005055411,-0.00436932377170127627524776,-0.0635091390135485572843166,0.997963541280519561560425,-0.017455625798775076251701,-0.0104478695273441113400281,9.80270664436330463331615,-0.0158079522552025328319125,-0.0147021542947246546678697,-0.00151454218053041636884992,2.46221674569260562392969,4.53509929377338316669466,1.30968470437506345760426,1115.77817810744295456971,1121.4108952867438802059,1123.14650100396966081462,1119.26642176327936795133,413.883127972994486754033,336.113834402984025473415,357.927198086607290861139,-570.199620574033701814187,163.229225496162882791396
6.11500000000000021316282,-0.10111020302757639521829,0.369462285030114634398757,-0.584665694885698972171895,-0.00612832254294930905968997,-0.0121680796250190903506905,0.0159636729476234466573725,0.00399973207233384007303068,-0.00437167888487713981321425,-0.0635030917277022571854062,0.997963956348376646232623,-0.0191330106462437865566528,-0.0127755676049683686290592,9.80225364228459916660086,-0.0159699955712696954612806,-0.0147661969247964933865669,-0.00152468879046545715064132,2.46216733230447060165602,4.5350639372596317500097,1.30968210073113988656246,1116.96744680963661267015,1122.26948569079445405805,1124.00242483436772999994,1117.82943589273781981319,523.180086018066731412546,334.834126807307143280923,317.397922290917847476521,-545.042454776887780099059,163.227454239830308324599
6.11749999999999971578291,-0.0497109367294496368172574,0.491956647382189915518325,-0.877083065361944802518224,-0.00709893557516724955924747,-0.0113478098587447093908986,0.0143102234601197430413633,0.00399908720621930825062096,-0.00438323326490505996155811,-0.0634923376130741151657233,0.997964595332322845777639,-0.0202491327944112342596128,-0.0147711199212174487671589,9.80179165584418399248534,-0.0161337436628215397105279,-0.0148388125429368567670396,-0.00153111919254379303181879,2.46211857993200800009959,4.53503047477272147602889,1.30967863952632468382831,1118.39407853753323252022,1123.08506592078038011095,1124.73349061542421623017,1116.54120948939498703112,635.132141087719787719834,339.762613075670685702789,290.859388906671313179686,-491.500342115533840114949,163.225587281030811936944
6.12000000000000010658141,0.0629333246039451149611565,0.60382460097724344194603,-1.17180689131577508987903,-0.00764504206831363459367923,-0.0109534592739651288201275,0.0113234720697148738555171,0.00400509994386372483732295,-0.0044020509431984744183608,-0.0634794265222374948232087,0.997965310115154990988628,-0.0208286959228626902818071,-0.016433746833484502714029,9.80130210184094430303503,-0.0162974801226861143454983,-0.0149214449451385046396812,-0.00153376398606507122895914,2.4620713844646444634634,4.53499967260639280652867,1.30967428862676293910283,1120.14310751507514396508,1123.96829875617277139099,1125.45672177890105558618,1115.37193418216020290856,611.592370669809383798565,307.223818939243926706695,240.119447920195597134807,-343.295997460282706015278,163.223248274789398237772
6.12250000000000049737992,0.190563666096879719136226,0.679922498649681461557748,-1.34541778375582166127344,-0.00756495562727304334676992,-0.0102936407867131405474703,0.0079050741420939856646255,0.00401412119477106976717096,-0.00442711542961742986895812,-0.0634667581475081704622809,0.9979659668350798762404,-0.0208825909934841347226353,-0.0178048164391323704425218,9.8007685962582868910431,-0.0164599900525605885581726,-0.0150156463917931280033224,-0.00153248623265272152817185,2.46202555266971678804566,4.53497228708636246352626,1.30966928407725702321329,1121.45204039088275749236,1124.62118501547683990793,1125.93408785502538194123,1114.82472950209330520011,460.677875418069390889286,245.17920689914330978354,165.366598693348237247847,-115.936262810330589445584,163.221227121060593390212
6.125,0.337331717885414106294917,0.737090232265500855390883,-1.41823300168799071308001,-0.00714114379575238322761521,-0.00860485145204196132107111,0.0038725049066989426262142,0.00402222140235001385244473,-0.00445518331438774384950507,-0.063455894325480183271182,0.99796649672914761186604,-0.0204712468023308391540382,-0.018937201051938801210639,9.80017772946806076106441,-0.0166203529257592588774806,-0.015122545812866023881571,-0.00152726191857945363047899,2.46198091752547476573909,4.53494790661835800449353,1.30966393213111587101594,1122.44649689216544174997,1125.19419479066846179194,1126.28355477236777915095,1114.79225286810856232478,353.404642285984948557598,233.60917350474252884851,124.23636852650170681045,100.529205417390002708089,163.219144000924814008613
6.1275000000000003907985,0.51271091383906353122768,0.773426376633057244269764,-1.3710169658791309110768,-0.00584649443080323492211159,-0.00554009946545458691752328,-0.00127282431792893630656538,0.00402764753416830212362498,-0.00448237656510597649167638,-0.063448966290459457573192,0.997966789583520141881934,-0.019676112360721635663463,-0.0198464939267985751580881,9.79951953131865849400128,-0.0167777126837711162976596,-0.0152423696071687583830645,-0.00151815114458602254399189,2.46193660346559139995293,4.53492536974063309429539,1.30965780812329701809915,1123.21906360231264443428,1125.78923088300052768318,1126.55526969765787725919,1115.32737552918024448445,224.121385057246925498475,200.845137076753161409215,76.9958209617941946589781,273.593390778802529439417,163.216586504535968060736
6.12999999999999989341859,0.640510475387135458369414,0.774514965647435604800819,-1.21803210626311586572967,-0.00414580694345489855073827,-0.00284078471916891653684112,-0.00558921708974806970976479,0.00403181536486884456449431,-0.00450864487796154029403128,-0.0634486228628614451485745,0.997966671522845460984286,-0.0185131650327060859329009,-0.020487487424676473213303,9.7987879399590109841256,-0.0169311601330473932014442,-0.0153740371304654475925755,-0.00150521640393780505549903,2.46189225437292114051502,4.53490237380301941527705,1.30965014476323471370733,1123.56710381745165250322,1126.19842047605220614059,1126.66853387717674195301,1116.16021982200254569761,107.326767162842330094463,142.412451665998872840646,30.2357823472909394979524,376.001550837653496728308,163.214416459278169213576
6.13250000000000028421709,0.731544213213028426956441,0.75603699253994771645182,-0.963295262984667610695055,-0.00229894150407424467663642,-0.000862167512836919036275929,-0.00950761891438522271924327,0.00403624383771391745390211,-0.00453087344268902035560043,-0.0634567114324673664516041,0.997966032000259684053844,-0.0170634833229890287009667,-0.0208241507566374398074949,9.79798251106531559173618,-0.0170796766791742535285259,-0.0155149661488699752015519,-0.00148902687157974680798311,2.46184739262110685587004,4.5348764759950341840522,1.30964107060884304978288,1123.75569743812684464501,1126.50129314133050684177,1126.70644860939432874147,1117.20738328336847189348,83.6814673774387927096541,106.900916930819676053943,18.9412740763604645621854,457.094449567158051195293,163.212216327996657128097
6.13499999999999978683718,0.783280677474406328286705,0.734095575899343821824061,-0.585419931467289877957683,-8.31328269885558989761576e-05,0.000526360487193760183399771,-0.0126701261623637928543928,0.00404178109438941765563236,-0.00454819612302681964416395,-0.0634733451550252431028198,0.997964863582504468908496,-0.0153679541540065259241921,-0.0208394306740468382432852,9.79710894278650101796302,-0.0172221378080608597538337,-0.0156612303522191409488329,-0.00147070853892489021574885,2.46180151707837779895272,4.53484717934685654938676,1.30963107168390280321546,1123.98551115433883751393,1126.73292506070629315218,1126.76324024755854225077,1118.44569206983828735247,101.653921250865437286848,65.5189012903988725611271,41.7479226613076903618094,415.428987334289331556647,163.20955202398440064826
6.13750000000000017763568,0.769118002571357428642784,0.729357532280582532280278,-0.258455344868755931830862,0.00188468023992008977714196,0.00129430163290881463863946,-0.0134135170289990737768626,0.00404797754399007295167401,-0.00455997326078169326613043,-0.0634968875809298061163588,0.997963275611638112039259,-0.0134656358557498495587268,-0.0205509367793576813721046,9.79618001333944299346967,-0.0173573159358766139492847,-0.0158079746452348887664208,-0.00145220366540137636041097,2.46175397827523800842187,4.53481435094242701921985,1.30962134841862498646492,1124.2639670443811610312,1126.82888764778249424126,1126.91518822270086275239,1119.2845282200398742134,127.475677813416126582524,28.9816991560155834406487,103.903351258060993700383,268.323257966043343003548,163.207318635542407037065
6.14000000000000056843419,0.685558993333603039488366,0.741196386844434562668482,0.0197268688294570393448879,0.00414811923683184799460655,0.00222637133634809259927212,-0.0123658936022130929582863,0.00405242008434941215766489,-0.00456407446583634215236946,-0.0635256547145298666734448,0.997961396310873438686428,-0.0114260552868934855963445,-0.020026462865453648065639,9.79521632500635774931652,-0.0174839090737334210134968,-0.0159499740518005035661009,-0.00143639994138349035360247,2.46170422120446286129436,4.53477779006697012675886,1.3096128957716453022897,1124.62288954340601776494,1126.87783355648639371793,1127.28275700384892843431,1119.7873083596687138197,139.08360590067172779527,26.7966186480413206538742,191.86384843942914812942,141.364776242156324315147,163.205079043246996661765
6.14250000000000007105427,0.54074830349386626693331,0.757313586996628096414952,0.220928092706581230553198,0.00660348677386578958303787,0.00359151573384695844623482,-0.010510880127818889376301,0.00405479637788811169557546,-0.00455839144913065905800886,-0.0635547236179088703700302,0.997959552019929252431041,-0.00932403797274236612047105,-0.0193023483993268046843284,9.79424597733038382330051,-0.0176008164739326310177514,-0.0160820711885122681616966,-0.00142684300084136377571864,2.46165209088299441475556,4.53473778788583903320841,1.3096063710609280317243,1124.95938507388450489088,1126.96287074102269798459,1127.87450746489798802941,1119.99135210125064077147,95.6425332363344153918661,66.5188703972503958539164,287.841995527248172948021,24.4494156738715666676853,163.202839184850603260202
6.14500000000000046185278,0.329015923334185556026199,0.757828975351495959245085,0.306863945809313365398197,0.00880892085315873075990201,0.00555539153313619644969368,-0.00828902508588327292804454,0.00405519464841352320766399,-0.00454223541556031916444081,-0.0635790791265086058237088,0.997958067378211799436372,-0.00720968082339993460161409,-0.0184140705049123526437782,9.79330431438120641018941,-0.0177072616240956590139,-0.0161998071179319906576222,-0.00142748164215387800778101,2.46159838302542954835417,4.53469525134705264690638,1.30960266079889908752421,1125.10110220958767968114,1127.21042790847263859177,1128.7219669814851386036,1119.9095554380380690418,-25.6936755468819697512117,173.479858431896047932241,409.453724432668991539686,-65.4400191324853324204014,163.200604103739919992222
6.14749999999999996447286,0.0277689240057224506763589,0.711760745450105702936128,0.27852336598974958281616,0.0103691871237603303046448,0.00819753950742151127339952,-0.00569514422009024297993696,0.00405835829250429918485521,-0.0045224541148359345688057,-0.0635943583758891706203542,0.997957169621037198936619,-0.00499340496131645689148471,-0.0173038780904671701810216,9.79243195824883372324621,-0.0178029581332728517595321,-0.0162998958930977988490696,-0.00144193362510367894917251,2.46154475684546092395522,4.53465133594783331716371,1.30960238514435323153862,1124.83091669615009777772,1127.83027003318215975014,1129.92177608706128921767,1119.66415200558822107268,-193.649502972634337538693,288.856206186944064029376,443.17988402473054065922,-83.0533868476340586539663,163.197933104447741925469
6.15000000000000035527137,-0.226091804866865753176342,0.617820658978333714372866,0.16798801385447589828992,0.0102626116862896896164692,0.0102318641304280730924825,-0.0041841478673137677199434,0.00406611531069350860129186,-0.00450782456347369013538451,-0.0636005946506116442984435,0.997956808068703793423992,-0.00254555965172167247834167,-0.015973611217376212922936,9.79167452647473801619071,-0.0178879995197267598061597,-0.0163805997855158320952729,-0.00147343221028973809377804,2.46149225873829147204219,4.53460743623652184908224,1.30960591194070263831861,1124.13285469472452859918,1128.65470893940732821648,1130.93786640160874412686,1119.49428850379990763031,-382.190446420107889480278,379.928896229338420198474,370.965179071307545655145,-27.7611367787818856811555,163.195719866734322067714
6.15249999999999985789145,-0.431394589769945102641913,0.45391175435387698389178,0.0142718120824631630738644,0.00834101694825444515968282,0.0121534323497288036797226,-0.00382261841076893087165711,0.00407820648269292904825045,-0.00450203987069908682927544,-0.0636011252972552704187947,0.997956753283635533691154,0.000166163820441170284603061,-0.0144747507219714424686607,9.79108121199835146342139,-0.0179627439365530675030591,-0.0164417526821301895889604,-0.00152451200339062003553947,2.46144077748414513706621,4.53456449745020684360952,1.30961289896414068145702,1122.91996446404959897336,1129.72991451432881149231,1131.77660198241778743977,1119.5253463216943146108,-629.359798064083179269801,484.470995200773700162244,284.736166240697173179797,82.5175036456602697398921,163.193522851941224871553
6.15500000000000024868996,-0.572719913883569908819027,0.173832908028819177470581,-0.153901349390420771889865,0.00466064191401808786824335,0.0144512186681732164583725,-0.00461037868789774488847977,0.00409167920169599755308987,-0.00450600800601931236744058,-0.0635975272900960036936979,0.997956913001771916960081,0.00312318295879402546555426,-0.0129149339309336530501326,9.79070212199755296467174,-0.0180278074450575115372786,-0.016484455260189639219659,-0.00159639104137070477786031,2.46139017211027288922764,4.5345231673178520992451,1.30962203401158139293159,1120.98605570440417977807,1131.07706391541114498978,1132.36154723281219958153,1119.90687602202820016828,-755.349536278270306866034,455.467603755788047692477,120.069007830309431028581,199.027187115284192486797,163.190907791146912586555
6.15749999999999975131004,-0.588294014330166148418755,-0.117980805389220219647761,-0.234548792907932096563073,0.00153084388298712291941184,0.015698197177526674456205,-0.00600651607211365439614736,0.00410280062142483799986215,-0.00451634088388641607991758,-0.0635890419588187177923899,0.997957367356166358263181,0.00622465744016266475657773,-0.0114200840173050155446077,9.79058542014170107847804,-0.0180839238461644145894436,-0.016510819134975537186838,-0.00168853977345673742817278,2.46134028031341367537266,4.53448376317325063666885,1.30963123630955169396373,1119.14321678265832815669,1132.00725253310770312964,1132.37694702156932180515,1120.52048225727071439906,-733.450769018252003661473,272.389270733953139824735,-106.063860679480498561134,291.173741712697676575772,163.188747581053803514806
6.16000000000000014210855,-0.510457451833522868334114,-0.437982349975020612831145,-0.210794528380272405687634,-0.000662329107543832475840651,0.0154179652861046612849494,-0.00799822171720449351384197,0.00410894697251520165520722,-0.00452310529566156156039414,-0.0635778089639356808193682,0.997958035854072167403217,0.00924135859803164316783608,-0.0100979776199277976322932,9.79077450007541116860921,-0.0181316498314946297765182,-0.0165238613268738829265025,-0.00179853117563210426060882,2.46129043300153815820863,4.53444627949347722761786,1.30963772681251855445339,1117.31880185931299820368,1132.43901026908088169876,1131.83122792941480838635,1121.36274473059165757149,-736.623406532702006188629,22.1480744854908984109443,-364.130434688684033517347,388.4242785404087499046,163.186607737235249260266
6.16250000000000053290705,-0.3512388704409983297694,-0.800825291194857458165757,-0.0376161128399914446163166,-0.00177020552979633588076835,0.0130494803263082100736048,-0.0107315107712509013454527,0.00410657867962764717983948,-0.00452005498736782369839649,-0.063566754269320249748354,0.997958774574792872869011,0.0120184039007977666591032,-0.00906332015298960680382834,9.79130411440696946101525,-0.0181714254671476831137777,-0.0165271193441180810901336,-0.00192187858743497253823096,2.46124037386960070605824,4.53441005680161612900747,1.30963987992988228903357,1115.46009974999424230191,1132.11799290553517494118,1130.55629484812561713625,1122.46260364997306169244,-589.307512165636353529408,-273.714970868019406680105,-551.718144782319427577022,387.822843916600561442465,163.184063260281448037858
6.16500000000000003552714,-0.199822233942339222423357,-1.04696114940995466113804,0.220632694180106142534115,-0.00151240215688567235241546,0.00974008479736969412510206,-0.0124356614113676679916898,0.00409706310435644857625981,-0.00450790930245224905764667,-0.0635569837383985619672089,0.99795950204349548329219,0.0145323232958685932825205,-0.00831869079480930528891491,9.79219665877067768633424,-0.0182036890364942194331377,-0.0165243252368406992602878,-0.00205221870286530780683187,2.46119079227789239183721,4.53437561678844325285809,1.30963639597743286557829,1114.37226429848487896379,1131.07043541474081393972,1129.07263720550326979719,1123.30185895017461916723,-314.233588231224871378799,-567.377054744986935475026,-643.112927533197876073245,286.102393749894588381721,163.181961868483540456509
6.16750000000000042632564,-0.0630806664013177781358266,-1.2023107149294922635363,0.557099017830776421789096,-0.000445197931196375041099089,0.00605193172252324260163014,-0.0124278151215165919701855,0.00408491785356094976033869,-0.00448642485458682505755634,-0.0635493839118057984860499,0.997960142562104079999585,0.0167383557371566099591931,-0.00779787213581747962187762,9.79346164725578915977167,-0.0182287976659404986345958,-0.0165192156890474686758985,-0.00218238254385644085686646,2.4611416714614593459487,4.53434323684380213848044,1.30962715046990174627695,1113.88893180883815148263,1129.28110763181030051783,1127.34073021045969653642,1123.89311561872250422311,-91.9725892370044277868146,-805.583711076241229420702,-698.121316958546572095656,176.484975540828713747032,163.179879981921828857594
6.16999999999999992894573,0.0501621802221083532002943,-1.27148450420823455608854,0.910164683992084388997057,0.000746290698491789837761001,0.00261402187914573300164811,-0.0107524980334235964463119,0.00407391152164511376188027,-0.00445674406867459932390929,-0.0635444809200620130962278,0.997960641455319596992979,0.0186212862047215599314853,-0.0074388251905728453028388,9.79509505423538406887474,-0.0182470163002981591859886,-0.0165152296751060294333069,-0.00230523863619565977378656,2.46109267290950572970587,4.53431239157838916753462,1.30961314455129818057344,1113.91240135229986663035,1127.04251685935969362617,1125.58203062071061140159,1124.18428382787874397764,112.920312647932078675694,-944.625101099038261054375,-663.849473573250634217402,31.9649277359992538549704,163.177814470287643189295
6.17250000000000031974423,0.140775713054361872877962,-1.23470678039513681589767,1.21750658239464426557674,0.00143326176367170282470453,-0.000497994328939353053664618,-0.00729189217700945777750343,0.00406561197693999006735899,-0.00442432134604430447877288,-0.0635428458675868501615014,0.997960930708195359528645,0.0202545501072909917006371,-0.00720859061047091076446236,9.79707916350688279294445,-0.018258510456694774376496,-0.0165152596184072811280608,-0.00241437234351771397300457,2.46104350786791137295495,4.5342818498382033709504,1.30959629936934418559247,1114.45353337207779986784,1124.55798212631520982541,1124.02148284259351385117,1124.05294025740249708178,317.136998308394538526045,-1065.87266227272721152985,-587.035280617841408457025,-155.219081868293528714275,163.175769405534481393261
6.17499999999999982236432,0.245909986135323221922988,-1.07095748896561349106094,1.45826354998171781041094,0.00125260539756536382755003,-0.00420479693565370665070402,-0.00164949692688126799654247,0.00405968459202383537276493,-0.00439188891566158999546499,-0.0635428695846103758215762,0.997961100706199033538724,0.0216625866922350446275303,-0.00710699434448494593574708,9.79938460285943335748016,-0.0182634055095922884226489,-0.0165214397104067808874639,-0.00250488622567537596100284,2.46099389900086595872608,4.53425045362661105485813,1.30957830838346600543787,1115.49808634384180550114,1121.71315354799617125536,1122.64685421762146688707,1123.40818841853729281866,415.869674867289859321318,-964.314234782271000767651,-391.578666509130187023402,-305.630985620207127340109,163.173340466568475903841
6.17750000000000021316282,0.345753085775414914504466,-0.839994380257875206119422,1.51413366596829956911563,0.00064169813541440745129768,-0.00744651798689082138754669,0.0037604584812268079113684,0.00405485117310165881637785,-0.0043624227631785693001798,-0.0635429004992984214350571,0.99796124795490948056198,0.0228776923950500671312014,-0.00714504558562417679823398,9.80197152565241225374848,-0.0182617670861947578586637,-0.0165352647577212442941974,-0.00257353079209539457178346,2.46094369805769730419343,4.53421801991072115356474,1.30956070002218449843667,1116.53288174641420482658,1119.73641095240395770816,1122.06358951004790469597,1122.52478532930149413005,415.139146979581482810318,-659.065812041822482569842,-98.3396179896793114494358,-399.266652430614499280637,163.171338829509409151797
6.17999999999999971578291,0.46029468442192750243791,-0.527533043422366065833273,1.4025493340979207079755,0.000374443964482898622794793,-0.0105183775684877123951511,0.00908970293209180116300594,0.0040523417211856538333592,-0.00433693263733711878438193,-0.0635404878247434329319177,0.997961518791227075730887,0.0238927546081264402522137,-0.00728137337510695314968245,9.80479176618159975475919,-0.0182536657261074507230258,-0.0165577121956452452677944,-0.00261871503996827410809534,2.46089328624736625172886,4.53418508848912971131995,1.30954458905799175916229,1117.57378207873966857733,1118.41782448778712932835,1122.15515612767308084585,1121.41185515638426295482,436.217440107393713333295,-398.337781821928103909158,192.854820625875191808518,-504.139652622608821275207,163.16936287514792525144
6.18250000000000010658141,0.590512099359256525943351,-0.102686951825395209048075,1.09420149229826590975279,0.00134835728316533049082893,-0.0127280838769687452971535,0.0143062136671261268261457,0.00405592290594611066395503,-0.00431671006558399187463815,-0.0635331654471830153951828,0.997962049869069778296193,0.0247054595522612913116589,-0.00742004433814583141959531,9.8077909676021803875301,-0.0182392086202759137747442,-0.0165893784510044092761483,-0.00264025909771498827963154,2.46084257806006601043691,4.53415257884585010117462,1.30953034404660306755375,1118.71396894695112678164,1117.74472204329435953696,1123.02786361317726004927,1120.0040870661885037407,392.136306667937446945871,-93.4866936091420370757987,428.252456029282598137797,-499.23276662485858423679,163.167024765226329918733
6.18500000000000049737992,0.663428700907427670863115,0.242579302462703649823084,0.728332731400780808428408,0.00371043416244961005504011,-0.0124875445415291667222712,0.0170692965427919271514945,0.00406873772069821833946568,-0.0043026219609663147319667,-0.0635208867325952053484173,0.997962829122900685341335,0.0253087246983008384848546,-0.00747442789438185206662979,9.81091158876261637544758,-0.0182185067235439562827182,-0.0166305580393056942622998,-0.00263924644892731593420754,2.46079102670574334510434,4.53412052381531793798786,1.30951837046977614953391,1119.53446361207966219808,1117.95039101974134609918,1124.29641840781982864428,1118.91569132325957980356,297.651576574759928917047,221.381016659011208957963,580.457601690762771795562,-387.51512978143097143402,163.165106390512249845415
6.1875,0.667743238764156421538587,0.510638063020747212661377,0.308568714808508726132885,0.00726458993886655319399681,-0.00996732090141397818194857,0.0180205171853718912333697,0.00409059028603111357602629,-0.00429545596557513384428084,-0.0635044319573475624096659,0.997963806751963389274351,0.0257014534209756978500039,-0.00742147768601639223895461,9.81409552037304599991785,-0.0181918227148714153895703,-0.0166811046700035200962553,-0.00261776966238084921392848,2.46073902809236821909167,4.53408921717133761575269,1.30950850359181814042131,1120.20222682982489459391,1118.85162712658939199173,1125.93015162163101194892,1118.06651141728139009501,254.775247561115946837162,511.818253742432716535404,743.025921544692550924083,-294.558923366145677391614,163.163221685838294661153
6.1900000000000003907985,0.586517117626896178350648,0.682036815101933258098654,-0.18574700256487475247269,0.0110257464159177615004026,-0.00540876314658476214924931,0.0173972673242292139028642,0.00411747485224882043414185,-0.00429555205953698841098154,-0.0634843812563917198055208,0.99796496359571107426234,0.0258825785416048198550598,-0.00731298282747763761513227,9.81728624590692255935664,-0.0181597019943742880865312,-0.0167402972109681920376278,-0.00257862347438339535241059,2.46068738008926768401352,4.53405811080541631952201,1.30950080755547060284982,1120.80833984988521478954,1120.50948228845345511218,1128.01154801554321238655,1117.44289670642888268048,185.093376254193884733468,662.065178164007647865219,736.438334663641626320896,-156.264805615959318174646,163.161000962603822017627
6.19249999999999989341859,0.466951168862047516494584,0.682963074547391912894057,-0.543985994341869449897331,0.0126217719325381477757375,-0.00151744054483741379162065,0.0156458364645778343071658,0.00414417844160448137907915,-0.00429691795591933146242214,-0.06346343674409354873589,0.997966175903010510594981,0.025733036043439030948754,-0.00723310216308949149865981,9.82043116209702127150649,-0.0181228916788046152952507,-0.0168068639283210710666516,-0.00252512811654353021631469,2.46063597390009780596642,4.53402599936110561884561,1.309494943038200354124,1121.12769371109584426449,1122.16195301740935974522,1129.61234329494914163661,1117.28518738920161013084,82.6536437154135796845367,665.788939982908800629957,563.777083784101023411495,5.06307297100658537658546,163.159185338514731711257
6.19500000000000028421709,0.33384081076452615244321,0.555373181445624419794171,-0.805240830149047237540572,0.0124151362640542821391687,0.00143419987938794022200306,0.0127144974255752572778189,0.00416962466123259756917152,-0.00429465905819206936883115,-0.063445329762718119526177,0.997967231956457534458593,0.0251553564577048499595335,-0.00718554556529223120708849,9.82348089770889387750685,-0.018082386415714024607837,-0.0168790152002083887472494,-0.00246037907708546903576274,2.46058433910545337752751,4.53399157906048344557348,1.30949094980052560543982,1121.22160806846227387723,1123.83842698836792806105,1130.83043343446365724958,1117.46821207128391506558,-2.63489151839172475177975,640.586806212618284916971,400.406509158310086604615,114.718911890215792936942,163.157406387812557113648
6.19749999999999978683718,0.215546788946219342042454,0.359195139076150471435511,-0.968863533344239358235939,0.0113392557099792502112168,0.00305944182716117764331276,0.00916270193862329940248657,0.00419211213398306119931602,-0.00428552533536913100170596,-0.063434406704467760640398,0.997967876826342470408804,0.0240910895305930516929749,-0.00718704008214471334881068,9.82639055501045532992066,-0.0180394323026682040778113,-0.0169546181455603461873949,-0.00238710490342027925950164,2.46053195392753076831127,4.53395466286530801625076,1.30948835333571622641102,1121.11451925350388592051,1125.3648870484723829577,1131.61437584074064943707,1117.85878194865267687419,-88.0372138132334498550335,543.503993933211631883751,203.973161276194133506579,180.707708784488431774662,163.155657620654096717772
6.20000000000000017763568,0.125121579847417008224397,0.141164335120904621545534,-1.01459332199213436709329,0.0105549206812680304579111,0.00292593303283412639603789,0.00566439097940225292499017,0.00421033486202130723813353,-0.00427329336263475474677609,-0.063431226517795313846193,0.997968062407880940334337,0.022626018460279215260833,-0.00724147763633289920370828,9.829119117359674362433,-0.0179957365182657896829355,-0.0170313710553095451483152,-0.00230721383735682950694157,2.46047909176835322142551,4.53391573290656424433109,1.30948592620664827634869,1120.78142199939611600712,1126.55594695803392824018,1131.85029924084460617451,1118.37175061520633789769,-183.646646002233353556221,422.096950797165334279271,1.74386915436998624073794,217.834906800783357994078,163.153944372716551924896
6.20250000000000056843419,0.0340148191349354533929983,-0.0708186275907582152289166,-0.957433633237386172432082,0.010940266976388189623659,0.00129956593127116752477146,0.00232803970364223438566098,0.00422304095515678087902067,-0.00426202583378146575981971,-0.0634356307765461119307915,0.997967785095452697419205,0.0208588915977898636811005,-0.00735489831618807432533913,9.83163075985160084258041,-0.0179533824509964974602827,-0.0171072330828375071543057,-0.0022219664144865394067585,2.46042630310248888747537,4.53387525858377848919645,1.30948314639697160899345,1120.1962860234925756231,1127.47537180245853960514,1131.62309518651250073162,1118.9479564826567639102,-227.95166170167735231189,245.673343782487563657924,-133.761140666550204514351,179.461842190907390204302,163.151927686469207401387
6.20500000000000007105427,-0.0454775650081211887942878,-0.166506381613211407177744,-0.844836140175997840628952,0.0119896778138329496155023,-0.00083184042615931695976994,0.000395208424091555846676543,0.00423115283074331285928515,-0.00425554415385347595962573,-0.0634479061790505088902492,0.997967005668971784970722,0.0188887347739883498798363,-0.00749426332564909203348691,9.83389462364908339964131,-0.0179147952687933841031676,-0.0171807258438197094085886,-0.0021319511546438298446593,2.46037418959128828532812,4.53383365306805874439533,1.3094802606064837036115,1119.64166369088775354612,1127.7843136769463399105,1131.18149353751186936279,1119.26905982616085566406,-212.323561853831932921821,33.2365333450532318693149,-181.983447062706773067475,70.3279031243270225104425,163.150278150972326329793
6.20750000000000046185278,-0.140244143170751150995201,-0.158471363154669808714914,-0.700034933289100935738247,0.0126495292541458689145051,-0.002868899839438354606308,-0.000852839272879393002664561,0.00423562922791889326368242,-0.00425270084828575489072078,-0.0634657478291478921450519,0.997965870600270976709112,0.0167249525188845338252719,-0.00763505316005611001095588,9.83588562673220501153537,-0.0178827588920762205193515,-0.0172509762435155838966594,-0.00203740062572734491330717,2.4603234522745149881473,4.53379196707329867876979,1.30947656687964442134842,1119.13466821422343855374,1127.64155446918380221177,1130.71317795119898619305,1119.29959599827839156205,-189.05351294925316096851,-149.940626120318029279588,-170.844532322102168109268,-71.4425293341734430896395,163.148658961478275841728
6.20999999999999996447286,-0.264889881892170220289984,-0.0427044983928363680592,-0.521330401941143328770067,0.0123487469312509260538357,-0.00400071561547484313980938,-0.00187651279115023895613379,0.00423715118432268361692294,-0.00425101816790847235327799,-0.0634865728777617571720882,0.997964551664998866797873,0.0143588260557739738620953,-0.00776214013980223993538488,9.83758372867586494692205,-0.017860202838471637976081,-0.0173178400613673115493452,-0.0019381789878344913256869,2.46027462487133474766665,4.53375103554306058128986,1.30947157145433767944098,1118.69639612614150792069,1127.03461054634476568026,1130.32727087590137671214,1118.91184717948999605142,-121.855629413769619873165,-278.113318605170661612647,-101.055700852705172110291,-214.689524029658997505976,163.146749115005007979562
6.21250000000000035527137,-0.36512345875978624576419,0.115825487649752270624681,-0.383468202521141610095157,0.0112644772407554244475492,-0.00376334228173011908422096,-0.00246880316557109924860414,0.00423547801170766260309142,-0.00425210209324632625038642,-0.0635078202754596754520122,0.997963205802664177213046,0.0118701620293554105378675,-0.00787503716187193392173072,9.83897317387891057194338,-0.0178499888403783855961304,-0.0173818084098018438288236,-0.00183379776551736853665298,2.46022761105950449334046,4.53371139272781675799706,1.30946493376094541538635,1118.52539006715460345731,1126.25098787615797846229,1130.20789944693547113275,1118.226148378130119454,-24.5934706687881572406695,-349.393887785534559498046,-18.2199537679938892154041,-335.849100286630232403695,163.145184025237284686227
6.21499999999999985789145,-0.447474983224555811212042,0.303149936470855418946257,-0.265860749175282906620055,0.00947040416361360007369008,-0.00291579035387398103479351,-0.00280451179964112933679088,0.00423085468250440892984399,-0.00425668625050218754624076,-0.0635260480891464140995595,0.997962047819795139425025,0.00932749070129744450863285,-0.00796593737210506136481314,9.84004318978772118953202,-0.0178546749837958339257593,-0.0174437641213263348871632,-0.00172382297267028531534416,2.46018187865529291968869,4.5336737899113126459838,1.3094567744657727992319,1118.5734287727975697635,1125.28764110741713011521,1130.23617110706140920229,1117.23260167805688070075,65.0274431425728209887893,-439.837218496504931408708,10.4498932790650034263535,-474.225275889749468660739,163.143645180966643692955
6.21750000000000024868996,-0.521396283680298444629386,0.525034390709726128676493,-0.148564359763483172516274,0.00723903797897299926961123,-0.00159445204440206004560532,-0.00316977885809805424999208,0.00422722103561179972375239,-0.00426790521973965854968247,-0.0635399850367379948057334,0.997961127927819546812316,0.00684707253994651376949321,-0.00795202573097217313424778,9.84078744135349836597015,-0.0178762283634105387242208,-0.017504796204617346921939,-0.00160793277218525959559869,2.46013650145180307049486,4.53363834236269358513027,1.30944712108506999825863,1118.85052728286746059894,1124.05180178367550070107,1130.26014891333079503966,1115.85502199868142270134,127.831267559670777700376,-446.520639549872100815264,-20.3898199489235381065555,-503.947530263587225363153,163.141827789940322190887
6.21999999999999975131004,-0.569999090360064575300214,0.68426658676987595075758,-0.0666642725014443410236353,0.00617618704972023539051529,-0.000236777457488326952212213,-0.00364615576418185309559572,0.0042267667111353501158133,-0.00429004599247792463984075,-0.0635506142316561439820077,0.997960355728511161466088,0.00457376581618425953612572,-0.00778382447794949416941535,9.84120534121290901907741,-0.0179159277026405966415368,-0.0175658367888173114201855,-0.00148641093482371547396248,2.46009096751796851876293,4.53360428728421815947058,1.30943694899679607956955,1119.21258511059591000958,1123.05503790966781707539,1130.13422200731679367891,1114.71286402673899829097,156.548923428048198047691,-365.128942625923230025364,-100.568396483233627236586,-417.94184039277735109863,163.140337022165340385982
6.22250000000000014210855,-0.618537566717994757858889,0.789589209022152571648689,0.003321387161791174505443,0.00566007256540109263132088,0.00160652294663348404156478,-0.00414769877546377219862395,0.00423027977698197960726434,-0.00432646697719750190219701,-0.0635602293731916262453652,0.997959568040257871679444,0.00263809437201882601709002,-0.00744103402643966904683737,9.84130278836668637154617,-0.0179743806048056758983833,-0.0176273516603681519587798,-0.00136040009556967381003367,2.460045614560671278781,4.53356998580257020137196,1.30942769988386875645858,1119.63327190000768496247,1122.22615707054592348868,1129.75730693091463763267,1113.76531279671758056793,180.287997202293809095863,-292.287524483890365445404,-224.227589296844115551721,-339.618562529850919418095,163.13887037602475515996
6.22500000000000053290705,-0.6806237417889607899113,0.822341347622083773671875,0.072090344319497220992865,0.00442069346752941606804033,0.00465599002125456282175087,-0.00423110948470898761558656,0.00423678934223065996322877,-0.00437376515089120052048877,-0.0635714272461977009109901,0.99795861829906562512349,0.00104034075077240328877082,-0.0069470121101588289125317,9.84109335371195470543171,-0.0180515318448895220604378,-0.0176892000977370740522066,-0.00123215956122314654677674,2.46000035088309410014062,4.53353406130979141863691,1.30941984761203156217846,1120.11402509660752002674,1121.59360028724813673762,1129.01308406083239788131,1113.01477121408947823511,160.144272102710374383605,-148.858721949958180630347,-309.630556937333722089534,-198.891480877777809155305,163.137138022041739304768
6.22750000000000003552714,-0.72860700753109786109718,0.753524192589166585953819,0.111454147149990426268751,0.00285793091578570015651173,0.00788629413179324154081762,-0.00381731561217507793515313,0.00424373611471687804674868,-0.00442359073322370118658275,-0.0635862358640778418950035,0.997957424367762135908322,-0.000315848772137694577821776,-0.00636330571838394920547444,9.84059831077702718005185,-0.0181466620447355772571818,-0.0177507115180379655694498,-0.00110487590406283019486833,2.45995425582478022263899,4.53349603636929110450637,1.30941383352525675398681,1120.43399326052121978137,1121.48186346079614850169,1128.2091541462280019914,1112.77085539232871269633,100.062291180440610105506,59.2804132686536746632555,-338.566913557504392429109,-17.9748270025360596946484,163.135717434385611568359
6.23000000000000042632564,-0.759201420940138205217806,0.579629937478288170815688,0.126244300321296215594558,0.00110746318143413479719028,0.0112232450756898881338852,-0.00313068621640716403600746,0.00424993755033962680722759,-0.00446713952371015181330716,-0.0636035315664489897535816,0.997956101476109802561609,-0.00154064612509346998692195,-0.00572590360059914427193206,9.83984583937057344371624,-0.0182584938778557262506475,-0.0178108468031727418257049,-0.000982188699753939846448514,2.45990669893844859927867,4.53345636901343773672579,1.30941042720464118076507,1120.61433655250971241912,1121.8900023535913987871,1127.32024949304491201474,1112.9248970790767998551,44.5846404940321434651196,249.957646847138533985344,-353.924635906976902788301,119.982929133268783061794,163.134321052853238143143
6.23249999999999992894573,-0.764283401661329242493537,0.333705664941453428173901,0.119739508405302563787131,-0.000740628608029090412280537,0.0137293472389326959293143,-0.00242851203278306474950266,0.00425537069727202014318701,-0.00449786186618399575626315,-0.0636227251491388867687959,0.997954716315871070975163,-0.00270648538393061105500337,-0.00504598325676994252653174,9.83887053650516918423818,-0.0183851608476249088475196,-0.0178685972989688947321074,-0.000867791495938959088832232,2.45985746005111582945801,4.53341579948330952731794,1.30941015762614343387327,1120.65691646299137573806,1122.73165169503181459731,1126.43953096669315527834,1113.37077003799504382187,-15.6359158770559290019264,420.936679116730260830082,-336.753212670835523567803,234.007027361035852663917,163.1329451628133426766
6.23500000000000031974423,-0.725278926514071775599746,0.0426403844122160285978751,0.0924614111728076781826502,-0.00277007793524738053780876,0.0144203935768762569330503,-0.00199740438915625229468476,0.00426176921956312234479602,-0.00451663282265894923395155,-0.0636443084592654972908576,0.997953224461265220313066,-0.00374897107407110019572372,-0.00429159725538393044264041,9.83771216998890807303724,-0.0185243510936984427661667,-0.0179232046669273552275126,-0.000764820695095512546705929,2.45980680688215702645039,4.53337475036530523908596,1.30941236075396316707042,1120.53615697312443444389,1123.99468574917500518495,1125.63648342969077020825,1114.09493221588195410732,-84.3210437165471091702784,601.277416965162160522596,-328.018606327311943005043,361.469157890731821680674,163.131594738602530014759
6.23749999999999982236432,-0.61341184865784503799091,-0.290381598347025038364677,0.0474554857462640006238175,-0.00535250570154724002874813,0.0130577107520951189723046,-0.00184141999593662956252738,0.00426958012711762223412304,-0.00452569263069852682074279,-0.0636665179156094829249213,0.997951724942463314071972,-0.00458342312118874273263458,-0.00345485539436306277050193,9.83641571992691865489178,-0.0186735747808777149958637,-0.0179741503502961162686002,-0.000675808140237499745464622,2.45975506647376374047553,4.53333329202379431421832,1.30941608907859796673279,1120.23531124440864914504,1125.73803877985756116686,1124.79943793505663052201,1115.17811582744866427674,-130.009751957962237156607,626.967352312399043512414,-287.128559108856961756828,417.247918078746579340077,163.130004971694035020846
6.24000000000000021316282,-0.461350167123015797443486,-0.508472379851775069248276,0.00925952120922834964744652,-0.00727220512987418812866913,0.0106705178534753641894639,-0.00183833499013690525314413,0.00427793593078324568823589,-0.00452597345280416740037621,-0.0636875284349102954717381,0.997950333316447779630209,-0.00515866965907953167747024,-0.00255546371127858551464129,9.83503023137161314082277,-0.0188302048793542904647769,-0.0180213023952264621285746,-0.000602518183902697127690695,2.45970283362844854835316,4.5332920931685602994321,1.3094201526003297342271,1119.88610821333463718474,1127.12952251073693332728,1124.20084063414651609492,1116.18117180627564266615,-154.738835970150489629305,481.711988148810007714928,-224.91660959890876370082,404.375254511896400799742,163.128706972332878422094
6.24249999999999971578291,-0.252416155057596458544111,-0.629472994885517445062817,-0.0192501454502220503695042,-0.00839855226887690695103394,0.00797910978922794153489484,-0.00187214396965435067761441,0.00428461863730302504327252,-0.00451980454633412690595984,-0.0637078029940551099352675,0.997949019449607344078856,-0.00540499260493552957651531,-0.00163769868063272372449291,9.83360680032259004690331,-0.0189914551697449342226864,-0.0180650091517591572520818,-0.000545729028390445165472289,2.45965063397252636789858,4.53325137921072496283159,1.30942365495371104699984,1119.46161706455791318149,1128.14659872060155976214,1123.67485488706211071985,1117.19999210000810307974,-202.783969152328381824191,302.124997148946079050802,-221.284432486850334953488,432.713415180851484365121,163.127438498416893253307
6.24500000000000010658141,0.0496467578584206536973511,-0.650530259519552345182092,-0.0311769858373113287197675,-0.0088871240720432408827234,0.00483294135349162431308789,-0.00217103835772617347055213,0.00428797236821783483290416,-0.00450772463723053858075662,-0.0637266414835251093773394,0.997947834411494372197637,-0.0052996531914561231801919,-0.000736636509953522700122619,9.83219674746449712188223,-0.0191544874284768108785304,-0.0181059035935540839357127,-0.000505328216770471782062768,2.45959859354803800357558,4.53321175147009203243442,1.30942640019458544919928,1118.87218836757301687612,1128.640147496481631606,1123.09441847171228801017,1118.34473888217985404481,-230.012156662688056485422,33.9539852966883373142082,-205.377328431690955312661,394.003073010100933970534,163.125952606378945120014
6.24750000000000049737992,0.330560371550420617481336,-0.572764224838363422698251,-0.0159141398607745565563221,-0.00888401825114133562866225,0.00255358690751381718284097,-0.0026603669979853778772283,0.00428841825776495565170077,-0.00448921589227687690970559,-0.0637424847236270075701015,0.997946881718208778089263,-0.00485482639326911130650544,0.000152645005897122931770582,9.83084937490576571406109,-0.0193163476923197616197392,-0.0181447772965305648140699,-0.000480354613758679298805843,2.45954670177046352819161,4.53317328934294305753383,1.30942790192416214090088,1118.31155628124429313175,1128.31636864708502798749,1122.64796824490349536063,1119.17000746505891584093,-235.546978603320468437232,-287.42994016038824156567,-165.45459793619909305562,290.632672865382858162775,163.124745912560655369816
6.25,0.620979415796648726022511,-0.421457089228558845483974,0.028294495624773281089448,-0.00817653344210661839341903,0.00105583302278653323909297,-0.00313670206954604936788744,0.00428609504334060992941646,-0.00446370937203939902038208,-0.0637539051214799368239028,0.99794625926727564824148,-0.00409512682833206714816399,0.00103003414597435671851144,9.82961031544008356775066,-0.0194738770907097701046151,-0.0181824365253586001101027,-0.000469206270670270654456896,2.4594943060168525938991,4.53313560969007944834175,1.3094283440306009325127,1117.69445347455643968715,1127.20299779567972109362,1122.26714548203131016635,1119.79790224650673735596,-268.190480110621422227268,-645.187240361260705867608,-139.567747567301267963558,219.6403714424424435947,163.123573021492148882317
6.2525000000000003907985,0.947378410789236680145109,-0.196071592432321750720803,0.108483575718883465399678,-0.00595685201338876785248644,0.000318193468764378260479897,-0.00314126300599051411568952,0.00428490658291284191167003,-0.0044388018584592776535902,-0.0637601044478334766374417,0.997945970599215748109145,-0.00290138412417185326264146,0.00197996610895294355980667,9.82851836465664874253889,-0.0196236928320979130135893,-0.0182195701065001221252704,-0.000469349227729031143532823,2.45944089706968682662591,4.53309849578785595269892,1.30942753499532971162012,1116.97060388069121472654,1125.09043244527879323869,1121.95012950706700394221,1120.26820932227110461099,-239.975975929842775258294,-863.868316847920368672931,-82.4376811747715123601665,119.606871327416953931788,163.122205188220391391951
6.25499999999999989341859,1.17358115720005984350394,-0.00310975863689288978264358,0.188723565369945722736134,-0.00329597353465058704249935,0.000573221533464106283023431,-0.00258817955332314242680725,0.00428837340234171100067373,-0.00442516232415994525961622,-0.0637623205650811458733429,0.997945876325526004535504,-0.00110504557345014048364007,0.00308339868430565489099138,9.82760505007326301551984,-0.0197622023357905407525692,-0.0182566993820600202702575,-0.000477838112537781625841632,2.45938594937549304120239,4.53306162912770549411334,1.30942603600732332402856,1116.4945735949072513904,1122.88365621144021133659,1121.85495707615746141528,1120.3959366031438094069,-128.5883224942635933985,-909.022267642532142417622,6.69977634956936274335249,-7.33135929244797068804473,163.121098326360112196198
6.25750000000000028421709,1.32082346873780753782057,0.163316249276727554207156,0.27232996700493172781421,-0.000160460017704528671439457,0.00165292249087654104927614,-0.00181157209056488719550737,0.00429880655660717751753719,-0.00442298383272314143271897,-0.0637635885323747653163906,0.997945769596518372779315,0.00124798430724469555652689,0.00438430805704638493214276,9.82689505512809624576676,-0.019885752883492594650372,-0.0182941256931852050393594,-0.000492053462089609089727404,2.45932843475456319737305,4.53302457337541042647899,1.3094243241685852296996,1116.32766226821991040197,1120.54532110706622916041,1121.98362838881485004094,1120.23155252580886553915,10.6675533243562767893309,-900.433933401082981617947,91.633303191203722803948,-113.529274088480320870076,163.120025167143268163272
6.25999999999999978683718,1.38088314330459671630535,0.292398365782918556732284,0.353498912949320065468584,0.00367870563351559631479204,0.00328966033527430335228758,-0.00102864678842883678841491,0.00431775694547721286542519,-0.00443142827997701407166664,-0.0637659469189384292553413,0.99794551512876161769583,0.00408354655497297769350951,0.0059098912956913191019126,9.8264043355754981945438,-0.0199910032164446471725228,-0.0183318466083671922917109,-0.000509366900107410510226136,2.45926820224551434534987,4.53298662917945538453068,1.30942301688898798950333,1116.54791136152903163747,1118.38148654443489249388,1122.31312359211347029486,1119.82829023270141988178,203.247064498059216930415,-758.383179743639402659028,176.9963809190850554387,-212.59150432497787619468,163.118979166034279160158
6.26250000000000017763568,1.31555734487217712569418,0.372957541087196031703854,0.42739174499199200640831,0.00814112101704988523620532,0.00523125630813545908909257,-0.000235807981439863393810508,0.00434114649397716271389536,-0.0044447699404394679437158,-0.0637685567636857991713484,0.997945206666448481058751,0.007231492311531792505086,0.0075697074266327379898911,9.82614089518244604448682,-0.0200753225604113627600356,-0.018369582262236373859654,-0.00052745773481319277106727,2.45920563233750444354087,4.53294806410480521918771,1.30942183930196809349411,1117.34389759071018488612,1116.75340520834811286477,1122.8686102934102564177,1119.16859500418399875343,489.818942602929212171148,-530.070975608176809146244,282.497638506084911114158,-333.28311333815935313396,163.117964509739891809659
6.26500000000000056843419,1.08484460319850617437965,0.430772192091697925242499,0.500871547836196251424212,0.0129628035771519479341096,0.00698003371993522001709431,0.00088144812365349169656914,0.00436407643759525488980078,-0.00445604592455653425453477,-0.0637700245808257154545018,0.997944983972830268470489,0.0104931129976871678755046,0.00925412297840980113683429,9.82610361151273004054474,-0.0201370317051694884546986,-0.0184070006027376789625727,-0.000543966811289597678910623,2.45914170277816523935144,4.53290977706222797394275,1.30941976251859348856499,1118.99700607454406053876,1115.73113166639359405963,1123.72561178464411568712,1118.16187466601036248903,708.718345307867480187269,-198.242911738957133138683,329.064634766707683866116,-387.459151950778561968036,163.116781076251925242104
6.26750000000000007105427,0.776904785564768496364252,0.470710366872511498659293,0.542222763601449719850223,0.0161430502214157528539928,0.00734774900873648006277561,0.00208117581817450535489056,0.00438348717222576938351564,-0.00446300342986024126124001,-0.063771828409386055458441,0.997944775302174624798113,0.01375641251543024967674,0.0108936260764335435258232,9.82628118835819996945702,-0.0201755256377442286630508,-0.0184439014321185271172432,-0.000556199534289137840180339,2.45907748778102552833502,4.53287245055812881844304,1.30941655776616450168603,1120.88748931724944668531,1115.76219064965334837325,1124.51393346724375987833,1117.23129924443014715507,825.591843375213443323446,188.079265104537995512146,306.158587098441046236985,-365.220202778444729574403,163.115822157456676677612
6.27000000000000046185278,0.379422743128944806034752,0.529209071184668422560549,0.55250045245505563507038,0.0183789894432558678638578,0.00706759835465569068863045,0.00360000522084406122599876,0.00440015354642649039046409,-0.00447068893291194171396574,-0.0637760664580155484104651,0.997944418326545346076273,0.0170468712582067111194206,0.0125007385163037748609938,9.82665176199314593930012,-0.0201914678973049918631055,-0.0184800450144672508134835,-0.000561080389568607016195778,2.45901453787658974547981,4.53283625598986628091325,1.30941220273884662006481,1123.12496529142003964807,1116.67152799191626399988,1125.25640472013628823333,1116.3357736521181777789,1004.30924082322553658742,555.778954405434888030868,289.005849254141821802477,-352.813180677238278803998,163.114890885775110973555
6.27249999999999996447286,-0.146592853416650764630802,0.629650639545696555465781,0.518578799311945171091054,0.0193386312789950373658421,0.00744286890202243162778517,0.00548882969789234176349879,0.0044159945115975068885561,-0.00448116709384630603624222,-0.0637835111373605545548315,0.997943843797456042743477,0.0203316450584007518687102,0.0141038887621889041934509,9.82718552836987235821198,-0.0201867785434265839539236,-0.0185149013731531544846298,-0.000555853932773333323826004,2.45895401998222684625262,4.53280067841101086401068,1.3094066920397142705923,1125.90903552136546750262,1118.54108542168046369625,1125.9589627135144382919,1115.46723334104399327771,991.029037697874855439295,762.121215106451813880994,212.58302378046661829103,-261.511114723731338926882,163.113805533176218887093
6.27500000000000035527137,-0.576184063947756452961357,0.727131051556611396335938,0.447785887077691568958215,0.0183824182350414769282487,0.00891513458878796620499241,0.00677347354716928851808833,0.00443214643171276935496028,-0.00449317390562855613345139,-0.0637941408471926069134739,0.997943052668490815371172,0.0235172448484000928825566,0.0157088745798464046732335,9.82784641816623683041598,-0.020164359240641509946057,-0.0185474926612120109836734,-0.000538342223165631295934974,2.45889597046733676677377,4.53276542360198764214374,1.30940048969828803926418,1128.08011047990930819651,1120.4821340674484417832,1126.31931983903859872953,1115.02821807849954893754,791.020355712470063735964,783.665146587344111139828,93.5401997128357720612257,-96.9332378865167498815936,163.112928690284093136142
6.27749999999999985789145,-0.934575666834025264861907,0.815235665225010786016924,0.331683564080534010187762,0.0154942275409896031146406,0.0113371542059237245814174,0.00790118283289741908659298,0.00444805023882684398561782,-0.00450428381216112609652935,-0.0638070371366718097627668,0.997942116966634928942881,0.0264949475797664479870264,0.0172834415234154881169104,9.82859352002682662430288,-0.0201277435254233437456062,-0.0185762685702279585486796,-0.000507028734575898560633933,2.45884061650155238964999,4.53272898656605249811946,1.30939399086349417267172,1129.86413729992773369304,1122.45941115461710069212,1126.4266637120786072046,1114.98256715161141983117,661.100279283996769663645,802.018156853699792918633,2.38276991408388827409226,76.7883671742782070168687,163.112082253845954937788
6.28000000000000024868996,-1.223106226718117639507,0.887126951274283648274377,0.142351201715897546229428,0.0100344027620090803926134,0.0145526913755041134579393,0.00948310679983480932231377,0.00446061787672599654314132,-0.00451164261976903097073333,-0.0638203899398785273744394,0.997941179119777088679655,0.0291575360805559485877225,0.0187418162537452137605953,9.82938291108460937550717,-0.0200806949045825230970586,-0.0185991187411597251599726,-0.000461145321719153315417894,2.45878823997099393849908,4.53269039413866092758099,1.30938744916381821781215,1131.38561187632922155899,1124.49222485171685548266,1126.33123368860901791777,1115.41215991437093180139,442.852897134126010314503,648.789050508562695540604,-52.1045151052942117075872,228.405338591533421777058,163.111104688866390688418
6.28249999999999975131004,-1.32358426913987359263558,0.910644610708361224027385,-0.0485858159779467072003634,0.00457921048803972777913041,0.0170998458602827051178163,0.010635366475542140651811,0.00446862119335747834392158,-0.00451191630164437737504635,-0.0638354398774345355160875,0.997940180153711997590449,0.0313932626682599663636708,0.020031353261096868090263,9.83016885562704167966785,-0.0200266182342675354288719,-0.0186137263882477747845012,-0.00040056965913988598930115,2.45873780583301071445135,4.5326485558107130202643,1.30938071283090740060118,1132.07840178559831656457,1125.70335640715984482085,1126.1661411365521416883,1116.12459384456906263949,155.56742894946515320953,362.261620895568285050103,-53.644714140274352587312,331.106931865868091335869,163.110324689281355858839
6.28500000000000014210855,-1.28910106877411534398448,0.895552273387868913445686,-0.249136432180532496616365,-0.000137813952276700070823101,0.0194958050651513961626371,0.0105806424168508796807009,0.00447202954242994707434455,-0.00450373277947881296701116,-0.0638543872277132218417961,0.997938985564111757931016,0.033135135490260217427938,0.0211231462874087450032334,9.83090544448851133552125,-0.0199682490159671516272155,-0.0186178416750225617093406,-0.000325773759059585707453799,2.45868769123511965446482,4.53260284827822523823215,1.30937452012429211833933,1132.16344902107653069834,1126.30353295619465825439,1126.0630101179076518747,1117.06769457370023701515,-62.241073206304740494943,141.001077928445511133759,-9.99628393474111476280086,387.352811595368109465198,163.109584511200324641322
6.28750000000000053290705,-1.17615363104632275614847,0.852039580612954261518155,-0.430307282149873404630824,-0.00310288111215938251785662,0.0219671231017253797135336,0.00919798836544260742242862,0.00447436100329122281304972,-0.00448773427694165900903034,-0.0638760877705173146789974,0.997937649090864797862821,0.0343594378747163059495406,0.0220588861399967639531638,9.83154809820679886911421,-0.0199075910950140128052865,-0.018609608062706596565139,-0.000237734595548424511041868,2.45863682738703515084921,4.53255414082997276636888,1.30936873965705169453599,1131.76719641956674422545,1126.40836179680218265275,1126.11615971687842829851,1118.06135790254620587802,-263.310502333848660327931,-58.6698978039761414038367,74.9399970562551516195526,374.681727368314398063376,163.108880134681584195278
6.29000000000000003552714,-1.02087786352374831899681,0.783469133050792798655948,-0.557128477554963308371327,-0.00408046622049682266436532,0.0243358473875821164356115,0.00676402459350341871135992,0.00447901037265497573708339,-0.00446510306114701605029182,-0.0638993389257241362066964,0.997936226694671302261952,0.0350609054519250007420084,0.0228786159938194344487528,9.83205635692787360824241,-0.0198457739996106517776919,-0.018588189522834929617856,-0.000138084958522547698520078,2.45858433175485480148836,4.53250441649306612390546,1.30936332984563064130157,1130.84689650940731553419,1126.01018346717478380015,1126.43771010318891967472,1118.94110321054176893085,-503.336721387324189436185,-257.012201711000670911744,206.797327999952216259771,325.241681511813681026979,163.108221875939989331528
6.29250000000000042632564,-0.835218181667969794546025,0.691945794296520588773092,-0.625095313707861754970452,-0.00449562795095590980731792,0.0264214455253893275299415,0.00374930878006192068105373,0.00448658846235790425421852,-0.00443553538587781667756893,-0.0639243449560318033331185,0.997934703876827811086514,0.035215843315876571573142,0.0235677355078623418371819,9.83239647847124764723503,-0.0197831561664365725150549,-0.0185541431258108048540922,-2.92533282118449084688999e-05,2.45852995981723809748587,4.53245616320247446395797,1.30935870804085952023854,1129.2505128126301769953,1125.12330078824720658304,1127.15014635687816735299,1119.68756631010523960867,-643.177068986292510999192,-366.250970218887744067615,305.439770522304741007247,208.167011625350710346538,163.107488543149770521268
6.29499999999999992894573,-0.692616416686516966905174,0.625200383760875055827455,-0.612329359285037733151569,-0.00518594765089881466063604,0.0273467654059022062529305,0.00169102843123945692331567,0.004496278692942687858769,-0.0043956866664791507254284,-0.0639500116935623891256668,0.997933169464035652040934,0.0347498816960694900668472,0.0240831015032493406247127,9.83254295649163978509932,-0.0197197144205459029553396,-0.0185093206267642959583775,8.55814078627674103228948e-05,2.45847366415660273375465,4.53241134394685918351797,1.30935548616987684766855,1127.63101116447592175973,1124.17892861608038401755,1127.96490895580041069479,1119.98193826866850031365,-668.60334180206848486705,-389.638779257356077323493,348.828247451418235414167,48.9705925166173514639922,163.106926570545766708165
6.29750000000000031974423,-0.551076246384696100122369,0.583229036342784334934208,-0.542408572695310398081858,-0.00679104180992937643546181,0.0276982804956277389729635,0.000243959419660392292771717,0.00450668529017830051669469,-0.00434566817515310861025357,-0.0639750419277570481213502,0.997931713065189907041486,0.0336641478644943287212854,0.0243795263943510365223233,9.83247821524300036344357,-0.0196553683613306315325353,-0.0184566115311392622833075,0.000202919582621352340059268,2.45841501426036890265436,4.53237023960231599772897,1.30935403114025383786156,1125.90749610361990562524,1123.17510689196046769212,1128.89428759413522129762,1119.93241927268832114351,-726.225056111586127371993,-423.877210363716528718214,403.585635907219909768173,-85.7717565414550477953526,163.106417517573760278538
6.29999999999999982236432,-0.35854492053116526761869,0.560635131800927943857005,-0.416618052895431301152485,-0.0095037492952540266605288,0.0282327452364990461042282,-0.000934470246020185956251081,0.00451725586509049096411994,-0.00428918744932922473001025,-0.0639975913631552345561815,0.997930440895269277312707,0.0320362699323363669945408,0.0244391613071498481346566,9.83219299897025145185125,-0.0195903950217565375746531,-0.0183994757003424422303617,0.000319187029441229692255932,2.45835489945625207397484,4.53233145211827093135071,1.30935438907949586173629,1123.99988588391806842992,1122.05954256426184656448,1129.98283713533646732685,1119.55307948596123424068,-629.788604154750601082924,-374.187926394832857113215,373.358130638879401885788,-175.224776619556081413975,163.105869480511785241106
6.30250000000000021316282,-0.171062315667949077502286,0.550230711569460018139921,-0.293852862914102896940705,-0.0115389617973015983637408,0.029433060582525774617757,-0.00158650146505490423527729,0.00452659638680690673551155,-0.00423139534273825682064718,-0.0640154951000855010345703,0.99792947852733893121524,0.0299803475198443247773383,0.0242366535682276562635451,9.831687330931275781154,-0.0195257673716330709678957,-0.0183415571237801854065363,0.000430812577207328301596989,2.4582948927116570203566,4.53229383164314381104987,1.30935653614746616568709,1122.75855308284621969506,1121.30416725998634319694,1130.76107824732957851666,1119.05629538959055935265,-380.41879325033636405351,-245.410742378731583812623,265.569424340179693899699,-214.063795076849629595017,163.105465960311278195149
6.30499999999999971578291,0.0326968411619213070173906,0.522348858343304245366312,-0.169444296086626672304121,-0.0122111110480380424814228,0.0316083211278026451895862,-0.0019447215090739415881832,0.00453704605494496381740133,-0.00417910004541080428580591,-0.0640292681704742600024005,0.99792875540821357471799,0.0276452706337609183107062,0.0238298867507069356275196,9.83096940844757227750961,-0.0194631941476584094385949,-0.0182865459636087565598039,0.000534623883926254152634816,2.45823683550091942606741,4.5322570399696084919583,1.30936040115815388595877,1122.0977919176664272527,1120.83248885236821479339,1131.31068425703733737464,1118.48276051057700897218,-128.06658649251676251879,-122.04508459463146152757,176.718386491715278907577,-244.221606959404851977524,163.105118170010541689408
6.30750000000000010658141,0.262457412172661996851986,0.446521687007087331178212,-0.033701573984969736275108,-0.0112576908788430893326726,0.0346172641298719691027586,-0.00190134970324610987763014,0.00454802137167615097568252,-0.00413349508126887449366293,-0.0640406404670021689451431,0.997928159780311685445042,0.0250807044968896913905709,0.023219971918563828139348,9.830057359219440016318,-0.0194050771112189990308394,-0.0182379549323846736064159,0.000627542251739996175159686,2.45818164758020873961186,4.53222117333094143276639,1.30936560815429947624011,1122.11822015038364952488,1120.69394183701319889224,1131.64467017978813601076,1117.83518735479356109863,143.119090452160349968835,31.6248735863560490599866,64.8341196802347070615724,-211.118370430370958956701,163.1047653065529630112
6.31000000000000049737992,0.416560592327019862946003,0.347725838382762442169138,0.0600935314763840211504942,-0.00965539381235658127067278,0.0365910584140377512230025,-0.00151848309265049312248574,0.00455822782335307472023622,-0.00409371913267131751212879,-0.0640490775533757578097394,0.997927738833072397461876,0.0223045276440293066544385,0.0223983061724616488996631,9.82897691736436840415081,-0.0193543332095891078281635,-0.0181988137320871039281922,0.000706999298644768025406959,2.45812920431207304616805,4.53218651550477602540923,1.30937189744703075255927,1122.81338736992734084197,1120.99061322030001974781,1131.63485485543856157165,1117.42716865842498918937,393.574867907781708709081,210.117430652103337251901,-63.1572386838811112852454,-112.708289318291136282824,163.104524660781663669695
6.3125,0.512526911132383133917756,0.231358855085509296234392,0.12957370890484859460301,-0.00800654175335244536193535,0.0370414471790784308180555,-0.00105135451677932072883648,0.00456746920738959789887179,-0.00406081514319183312783368,-0.0640529116497285805342798,0.997927599020859590339683,0.0193778427142286130413495,0.0213862439597598541496382,9.82775884239435448819222,-0.0193139767871681224120639,-0.0181715110374833371809089,0.000771317363311582195571636,2.45807883614388167359266,4.53215301395415171015202,1.30937954160373593026634,1124.0860944899225160043,1121.74452899027369312535,1131.32888398636873716896,1117.27164590820211742539,570.259383845599018059147,372.451200016356551714125,-168.908960934644682083672,-6.35476865913928978812919,163.10433861771372221483
6.3150000000000003907985,0.554307893102408022478755,0.120726829465475360425586,0.179487417612360866669974,-0.00626907475574882324526049,0.0363522502752883155952013,-0.000626594923557873364518278,0.004574665219876852297054,-0.00402732148893023174374139,-0.0640538246994883653240294,0.997927664654706947366947,0.0162022829027951981162303,0.0201821417164893546214444,9.82643907309258146653974,-0.0192866506362287630504948,-0.0181577676644930005589451,0.000819362974767417952953741,2.45802946835101110423238,4.53212006688862345527014,1.30938763995641394011216,1125.66468428915527510981,1122.85286922038176271599,1130.79031005076535620901,1117.39539481512929341989,651.740630351255504137953,508.062664193914258703444,-266.524125839993075715029,123.327799630990639911943,163.104196906246073695002
6.31749999999999989341859,0.531258342742990441465167,0.031615296462542734345913,0.20871798566426014165387,-0.00433074212722963942240328,0.0353732819776272980338838,-0.00025859451409291570999488,0.00458104084809417538143306,-0.00399102448053890307422265,-0.0640527704368960143499478,0.997927872075636379634034,0.0127853005838953898143373,0.0188393514724873450960629,9.82505392685702361177391,-0.0192745476373794091817793,-0.0181583281132027644921845,0.000851318244311184777611823,2.45798052799543720325914,4.53208664874589484128364,1.30939557852230636925128,1127.34479764167872417602,1124.2848423112432101334,1129.99626335716880021209,1117.88828490635705747991,690.085690687661667652719,660.510452511621679150267,-398.24914182027833930988,291.241603124860205298319,163.104107110145577053117
6.32000000000000028421709,0.440223200178055995568371,-0.0537119996287184486849497,0.223023783751373438910548,-0.00224993515083217205524635,0.0349055729216963192551582,0.000205200692339807771839844,0.0045874347765189850065215,-0.00395228922006616353174158,-0.064050661029125266487938,0.997928153166736442436502,0.00918989171731846715696079,0.0174084427064508939775322,9.82363914756705547404181,-0.0192792745948795821164801,-0.0181729821422385237617014,0.000868495536125614767120062,2.45793185579555117925565,4.53205153766784629709719,1.30940351255822617915214,1129.11511274259351012006,1126.1554214829398006259,1128.79906434166400686081,1118.85160283075356346671,559.926439220601537272159,670.137914440889062461792,-468.27036801074518734822,393.025464552428445585974,163.104056877427012750559
6.32249999999999978683718,0.328488007163642181662766,-0.119784311230202319964455,0.218273387332304752428414,-0.00104153414658554013989822,0.0352755773762424632011836,0.000700363105244628837697807,0.00459471263497539250675317,-0.00391344383826658977904023,-0.0640490812349504279321621,0.997928390729894698729652,0.00552048204423323529699275,0.0159429094169330209940227,9.8222281809167135691041,-0.0193017510510628750863837,-0.0182007436485273066395507,0.000873293614078329990223215,2.45788333752429100087511,4.53201438593558147971407,1.3094102239073546201098,1130.14442983778167217679,1127.635531883447583823,1127.65491151711512429756,1119.85341222911915792793,275.872573568182303915819,523.660429181393055841909,-470.391804125948510773014,403.48135254403990757055,163.104060770237168753738
6.32500000000000017763568,0.206747741346441971099779,-0.194323379693224412845254,0.195593735978238897343928,-0.00047418348061054223230304,0.0359634892167953121311363,0.00138937286918389851265998,0.0046026793774059425803924,-0.00387737107813247976889626,-0.0640502522652896810750889,0.997928431013863415088849,0.00189509479203091302235151,0.0144745278800045285017006,9.82085106821854125769278,-0.0193421409815451375568962,-0.0182401092354696342523468,0.000868977067045785100257715,2.45783512352284816415704,4.531975747174245228166,1.30941385960388867459869,1130.49447561043439236528,1128.77372362884671019856,1126.44710532103431432915,1120.86900959347372008779,-26.2286351959532950672838,368.317698503312101365736,-525.33499960228232339432,399.987764510325405353797,163.10410925405258808496
