t,ang acc x,ang acc y,ang acc z,ang vel x,ang vel y,ang vel z,quat x,quat y,quat z,quat w,acc x,acc y,acc z,vel x,vel y,vel z,pos x,pos y,pos z,mot 1,mot 2,mot 3,mot 4,dmot 1,dmot 2,dmot 3,dmot 4,vbat
0.0025000000000000000520417,-2.2772607457424922650091,-4.10632070898712342454928,-0.595919539544168763711696,0.0076630422033289310665416,0.0269290535627416845187998,0.00098140280578081482733277,-0.00248589529763654139976614,0.00251115840841554258458523,-0.146068399920662533864046,0.989268120912916826270589,-0.209695822405761733708829,-0.162264351904598674858349,10.9603699776119647424366,0.0591788863839070033989742,0.0169426882158628701324776,0.895269149842699563102144,-1.47371873227800120886855,0.645315082615590784875792,0.186820821796315705842773,1181.4249155343345591973,1203.35011714709003172175,1189.92338293655848246999,1166.58513628947525830881,-1938.12298180555444560014,-1651.95540644344873726368,-822.946656367457762826234,-443.331866954576980788261,163.832537614324962760293
0.00500000000000000010408341,-1.67083354285771834568664,-4.63774799090550970959157,-0.378365813378670312605578,0.00612400505386457953693746,0.0181168474048575139923045,-0.00302502496467560791360007,-0.002472469469767706214125,0.00245681656081278608841356,-0.146034396652340525690761,0.989273286970179910326806,-0.199938261960029201036448,-0.159314440223483344549749,10.9664410053026308844437,0.0588326285007368735002764,0.0167718116914899427472019,0.89800152293695101324289,-1.47354693407122305792711,0.645321485374793946121486,0.189073212716490662854696,1176.5796080798206730833,1199.22022863098140987859,1187.86601629563983806293,1165.47680662208881585684,-1706.01342534173477361037,-1396.95027817128925562429,-816.155932313177004289173,-435.475615708219322641526,163.843949976734279516677
0.00749999999999999972244424,-1.29328993969017935761201,-5.15699365068917803256454,-0.0932768406337226990698852,0.00509442354007443292535084,0.00869918309753632372494092,-0.00508354711088191205115017,-0.00246122815607320967815075,0.00239667569175562719316352,-0.14601019160722589207424,0.989277014832903756058613,-0.190025659025008702984749,-0.156381692426851182098346,10.9724470428743963168472,0.0585001235389554924415378,0.0166006089573307834272864,0.900742804438172561809495,-1.47337723536324305406708,0.645327059102489108965983,0.191326243966130987717023,1172.89484840762588646612,1196.36536575623358658049,1185.84260327499259801698,1164.40775821093416197982,-1390.46692474967130692676,-1039.63760781552991829813,-862.979558023471327032894,-445.087789625858931685798,163.852870665338656408494
0.0100000000000000002081668,-1.00838910538744386258259,-5.70429653060023866828487,0.238446854228324095492653,0.00290198274854315584406206,-0.00358379066824509456834491,-0.00490315968275441532026049,-0.00245199183995132999683286,0.00232988325091638319788712,-0.145995630047299901344005,0.989279328666135548964178,-0.179928764251550105113253,-0.153445411387285540749659,10.9783235659625812985496,0.0581854971447678948059945,0.0164299846264795226802313,0.903499908222421765913168,-1.47321003180115162045638,0.645332024382095470471654,0.193581044189002682287537,1169.62727345607231654867,1194.0220405919037602871,1183.55111850552248142776,1163.25136767395952119841,-1236.26322094946749530209,-885.820393886569718233659,-941.730098693278478094726,-467.756300450400772206194,163.861192997927588521634
0.0125000000000000006938894,-0.749776925892277623653115,-6.21724300548848773928512,0.552872711787208426237328,-0.000516066328475202362215113,-0.0181875407263169877603026,-0.00279924094142576474972262,-0.00244332483824501742533664,0.00225798549204374960838737,-0.145991366777093789508513,0.989280130934234280815076,-0.169676240977691655809068,-0.150462767163558386318556,10.9839820553764209165593,0.057888910237176634254741,0.0162625221713826248470802,0.906280497066721091314889,-1.47304575184058306192014,0.645337241186382915003605,0.195838191997636162922092,1166.71353230287854785274,1191.93626378680073685246,1181.13395278152620448964,1162.06897670868215755036,-1082.27978551544788388128,-817.870008068803258538537,-963.735107756656475430646,-474.248321792902117977064,163.869029466819739582206
0.0149999999999999994448885,-0.467668752022024014625146,-6.61709282005143784033407,0.7876467038592332992053,-0.00423069059562977082405988,-0.0350818215462685781269592,0.00077044629305216189886496,-0.00243346121369656352706468,0.00218316431228663711261451,-0.145995304150208782267839,0.989279730212200392180932,-0.159316611844636552008936,-0.147382817790059850171502,10.9893116121244016625269,0.0576098111021781517093743,0.0161008118623610883834996,0.909092011769172869684041,-1.47288475972186749807236,0.645342907314957581199621,0.198098316721091238790109,1164.21587452849507826613,1189.93269055155974456284,1178.73244296673919961904,1160.88012606499501089274,-1009.45294428961437915859,-910.057667905311745926156,-1003.02824226114330485871,-531.191635481354637704499,163.876292850548111346143
0.0175000000000000016653345,-0.0673240111654604123092582,-6.89475160244930762587501,0.932996120488016500438277,-0.0074934141006082598951421,-0.0568068689489741596165828,0.00536559812592777782280784,-0.00242261840702560774310492,0.00210393519962958925467733,-0.14600199074942699084545,0.989278933179124075891764,-0.148819138886894353213108,-0.144183895014633717268637,10.9941822277178591349411,0.0573550055465407715438175,0.0159443524285639189053132,0.911940508807230210130967,-1.47272672854864317137924,0.645349253027706626362203,0.200361185688523346648537,1161.66626758143047482008,1187.38597544727417698596,1176.11881157022048682848,1159.4130185312753837934,-867.999915308564482074871,-977.564478776639361967682,-878.034298918919148491113,-557.882562603754081465013,163.884363475454534864184
0.0200000000000000004163336,0.3122229847733325458492,-6.93054061448941638445831,0.934265863490282288950084,-0.00857107235239869258425216,-0.0750827018800662576714089,0.00876721973861650620551966,-0.00241083742198466930567458,0.00202048884704657261135452,-0.146005565843082690813404,0.989278602172858567698199,-0.138197385596404487273503,-0.140845758886824018452089,10.9984462783317038514497,0.0571280800837260377411653,0.0157923704619417695771411,0.914830613028078776238772,-1.47257157095431323590162,0.645356446849106757390757,0.202627789886317688505812,1159.87587495195225528732,1185.04486815767654661613,1174.34227147214460273972,1158.09071325197623991698,-659.03331813797228733165,-988.023472543591651628958,-595.365678827102215109335,-568.55943130826767628605,163.890564011081636408562
0.0224999999999999991673327,0.704238494791997848842868,-6.76265401856591541474018,0.828308669833806465732096,-0.00743867525030597435964363,-0.0925477087034586448632822,0.0115292851286887300388262,-0.00240068349470584684393626,0.00192704443453647401331141,-0.146006240828235517303924,0.989278705204738151302024,-0.127333597622925759340617,-0.137386357892576138617358,11.001944913464816622195,0.0569434213359142141208658,0.0156417793499511494081933,0.917764073523314682923058,-1.4724179102130723340025,0.645363834365712873974985,0.204900075440308720997606,1158.37110099074061508873,1182.44585808455622100155,1173.14198317608497745823,1156.57022137473404654884,-612.428032604020586404658,-1193.65175553630228932889,-381.84333213926032613017,-730.396394975968973994895,163.896235430869438687296
0.0250000000000000013877788,1.13297048465464422761784,-6.35599909300949938995018,0.616659337608728264079616,-0.00369854985081196577928475,-0.111872424076301379969323,0.0142320038071021299358465,-0.00239028037304491987671828,0.00181439639787549450780646,-0.146004351599203080480649,0.989279208160711021058376,-0.116057869323967541297371,-0.13371719112971500176279,11.0045130977962326568331,0.0568199205148007258081577,0.0154984652584761704863237,0.920739595830372237195149,-1.47226479432558088333849,0.64537114666727857237305,0.207181009104026370160057,1156.81373478893215178687,1179.07660937999503403262,1172.43305481144830082485,1154.43873127709639447858,-540.572795401339931231632,-1264.34505963534297734441,-147.499444047161858861728,-835.593608730641676629602,163.902448282677312363376
0.0275000000000000001387779,1.42028016768189591090277,-5.87938843930845234098115,0.407040560747405910646535,0.000532426803810744000283739,-0.126254818863342332946331,0.0156457907232031186162136,-0.00237941026067685227132764,0.00167139214874442655796305,-0.146000657067298034164082,0.98928001302976087405483,-0.10416053035555931927103,-0.129781728894849457400795,11.0059829969245406289247,0.0567799706501162029792518,0.0153659635449039169707852,0.923753073364310006709843,-1.47211060693140138866397,0.645378467167103342383427,0.209472810528107705740908,1155.66823701373391486413,1176.12413278637950497796,1172.40448595584916802181,1152.39225333108083759726,-433.950343363540241625742,-1194.89737314238550425216,74.0260133126412682713635,-868.28866074524785290123,163.907145697384834193144
0.029999999999999998889777,1.61101107170250990030524,-5.30074639036877393039049,0.212893549472879917150436,0.00491846192592416096844854,-0.138586260335891775508088,0.0158103576172351316386777,-0.00236808432880307971613032,0.00149865072077537148792503,-0.145994424504198777592379,0.989281215244556033638901,-0.0916955066761343390302486,-0.12556897012918938338899,11.0061861693671350082013,0.0568242189858422230841484,0.0152441773387615858714739,0.92679947126707384885691,-1.47195480469179940108404,0.645385960306532613373065,0.211775273478572223506688,1154.64398307211445171561,1173.10212251428310992196,1172.80318487801150695304,1150.09728797337015748781,-418.813566144990488737676,-1331.04320688357779545186,221.847673082356720897224,-1051.7264217958197605185,163.911362083962643509949
0.032500000000000001110223,1.72111646667381767983329,-4.52314764098996668906238,0.0514565813176185576915955,0.0103461023621041377229535,-0.151551666206254653790353,0.0148005675281144243038423,-0.00235886737718806567196128,0.00130223987791482998313541,-0.145983774442927760617295,0.989283063841454812781251,-0.0788344551907383395139561,-0.121144994805790939818024,11.0049615131501141718218,0.056943739653488659180347,0.0151269359293618663175884,0.9298725745679781162778,-1.47179806868593798796496,0.645393931857842328980723,0.214087895125344984670335,1153.57416918300896213623,1169.46891675196161486383,1173.51372432126095191052,1147.13362122210173765779,-353.653336832803347533627,-1326.3867912461125797563,258.554913882426035343087,-1108.60108561760080192471,163.915885948080131129245
0.0350000000000000033306691,1.717681454751051051133,-3.81791210791030621862774,0.00364698514299932607940491,0.0149227065612045958070686,-0.161282591736253727576766,0.0133732923947060180352997,-0.00235335613368237162035257,0.00108642334597697145376349,-0.14596707924937693534595,0.989285778292057327298892,-0.065718811149116720948804,-0.11655428115396991584074,11.0021632223072831635591,0.0571325057337119662781433,0.0150106906672859436585599,0.932964531113909867343637,-1.4716416385663024790631,0.645402118401282143267395,0.216410743943349248574748,1152.87571638795043327264,1166.47018855805254133884,1174.09595944742363826663,1144.55428254528214893071,-217.043425997008057493076,-1188.20857918613069159619,189.44391465947782648982,-1040.00698804839021249791,163.919224299580577053348
0.0374999999999999986122212,1.6281743937110102482535,-3.05746898671993294627214,0.0559823928630516637339198,0.0189167614398197368730248,-0.169779196235576190776584,0.0118940520863664196682397,-0.00235075365747341134825543,0.000856147426806508674533569,-0.14594342528475090503548,0.9892894801536630255967,-0.052517117854381761832272,-0.111797652419605722529106,10.9976648336516760195991,0.0573825343586789396455039,0.0148966863780849410880958,0.936066514299121021913663,-1.47148700056203041164338,0.645410456849955238567418,0.218743226058872614059325,1152.4889520530239224172,1163.52787385603096481645,1174.46094389455834061664,1141.93358628185978886904,-85.3136064356931882457502,-1163.22838594064774042636,89.2653039889410564455829,-1045.45420464687640560442,163.922132522261563281063
0.0400000000000000008326673,1.48003961841311171276914,-2.25437948648615460456313,0.179879216147553200322307,0.0222526267230146873599139,-0.176887145399286183078402,0.0109039180398736723631714,-0.00234995145459364557574689,0.000613639597584318750682353,-0.145915322592751389718657,0.989293791495734708973941,-0.0393423906281259866402067,-0.106867841567002908043094,10.9913630837951004082242,0.0576905676601621314469881,0.0147884577571557127712021,0.939168689015605351322336,-1.47133489672390083136122,0.645418627629900210074254,0.221085245198445329295467,1152.44914835577196754457,1160.65404662834930604731,1174.54228596736834333569,1139.32701152204776917642,82.0591927070835680524397,-1123.36708020297828625189,-46.221981890721465902061,-1027.30633257665340352105,163.924697241662926217032
0.0425000000000000030531133,1.27375168168321106776375,-1.4115688381126418882161,0.355081707639502974771517,0.0252295950545245104001957,-0.181713215915388637267114,0.0110854531243647705385236,-0.00234880012030401008962799,0.000362787602608658497124056,-0.145883005629655698731639,0.989298674147506607035041,-0.0263488216977896434756179,-0.101747606152906261423041,10.9831799800118314891506,0.0580497523106667800973923,0.0146913059869566431370203,0.942261000529482251053537,-1.47118509632828353694833,0.645426238585572575878757,0.22343663233587848782058,1152.89924801655934061273,1157.91103845501606883772,1174.22983398510473307397,1136.79705461897651730396,309.660924827949372684088,-1156.69010063538803478878,-224.904069136664588768326,-1077.74050234875221576658,163.926863555974421160499
0.0449999999999999983346655,0.968615654280132742925957,-0.381256587970121796349332,0.563757479687378548760535,0.0287984150563338134332092,-0.184386996076627313057017,0.0128517949240317397308075,-0.00234467679794364732004386,0.000108523718240645456931635,-0.145848202608667265600673,0.989303873983809256564825,-0.0137138030666589284811696,-0.0964211709875676947767431,10.9730648781692501358975,0.0584504805761265205932276,0.0146117778448448306510832,0.945333364459318703509894,-1.4710372853939110981969,0.645433202358534852116634,0.225796639953162403546827,1153.99745297991171355534,1154.87059612517236928397,1173.41776562168502096029,1133.93830901030401037133,474.430321321370001896867,-1054.21498804698831008864,-358.805794657564717908826,-1004.00719225845068649505,163.929022788699171542248
0.0475000000000000005551115,0.67340723183817907671056,0.469015028992312454914071,0.691335613005572668932075,0.0314841597439273479519528,-0.184137972382009823535398,0.0153431040893451716561335,-0.00233676875101132813100646,-0.000145035014748813643982103,-0.14581166281018151376081,0.98930928165302201016118,-0.00158813105491445449857224,-0.0909177872378382490037296,10.9609953669457045322133,0.0588843060829209938300544,0.0145534791167584373616783,0.948375670685824401218156,-1.47089178893910133005818,0.645438707205461925653367,0.228165674947374247372167,1155.27139962316618948535,1152.63996351478112956102,1172.43580501181691033707,1131.77701865768426614522,533.150591898674520052737,-804.759097169061760723707,-436.416358664063920969056,-800.189819729939017634024,163.930469827961246664927
0.0500000000000000027755576,0.352334996456716231794104,1.28315086992839200163985,0.728926169443836147188165,0.0331046377736872038388682,-0.181699618456233169538905,0.0183813539580268796302942,-0.00232465018860849746348829,-0.000393978716697436710022368,-0.145772416569158819177332,0.989315044810549104603581,0.00988865499269783038149839,-0.0852825199893008228935187,10.9469774723157922124983,0.0593422179265903279588024,0.0145192353767108310591549,0.951378024434336166947901,-1.47074843039877478645394,0.645442139456376517969716,0.230544364500056248035165,1156.66320593940508842934,1150.84680063932705706975,1171.23568382836469936592,1129.93735991165431187255,555.146127995976939928369,-659.314266759747965807037,-554.906568912292868844816,-714.612893326011885619664,163.931568447933528887006
0.0524999999999999980571097,-0.0318810679503469945883509,2.19138444645908236907417,0.646131252386527688003071,0.03371644128906493842468,-0.176995614467757883536692,0.0219360726816848587705788,-0.00230559751394465934151712,-0.000631973312212768850888722,-0.145729271377892932726184,0.989321349533783922503005,0.0205255159527083265447178,-0.0795259993737045395301166,10.931045149115734105294,0.0598086641549262429395917,0.0145152893761203247852132,0.954331296753899827045586,-1.47060615000033512167477,0.645443384136510811543985,0.23293280785897604867607,1158.04713026314607304812,1149.34339218098239143728,1169.66127216725544712972,1128.20395419105420842243,390.950088766249052696367,-424.060621233093343107612,-585.339202730211013658845,-544.497075342542530052015,163.932503742545065961167
0.0550000000000000002775558,-0.324647388544388848519162,2.8714171636359542283401,0.471752336862833965280828,0.0331719913540592728495859,-0.171884095434129663404477,0.0243713130229515177738175,-0.00228026668895370786260823,-0.000861861178888841247477948,-0.145687036517288232007061,0.989327481770633232471823,0.0303518322322085462583452,-0.0737093212265192976317962,10.9132580210111953533669,0.06028470821716575001048,0.0145442506623517410491164,0.957226093328564120454871,-1.47046288634162225505975,0.645442375279967728296526,0.235330784343793425472668,1158.61795638323633284017,1148.72649753316159149108,1168.30898781471364600293,1127.21487453494160035916,32.9802515025221225641872,-97.2669939221304105103627,-538.125148263179198693251,-294.012584355914157185907,163.932977825205711042145
0.0575000000000000024980018,-0.557562735713343249344121,3.43922011998705823287992,0.209385923177673322070902,0.0314881387534175771758527,-0.165198895362522413243767,0.025982735607123951665498,-0.00224944240844013060992568,-0.00108810051303886361033502,-0.145651372722362726364054,0.989332603310673963648014,0.0394437429305287273750835,-0.0678957677455383212805629,10.8936987785275789519801,0.0607733016557526900536246,0.0146081992630956933321151,0.960053954467722014953779,-1.47031721358627875950731,0.645439818342222970670718,0.237738275015292738201467,1158.21203152065868380305,1148.85705721137173895841,1166.97064642593954886252,1126.73389126927463621541,-459.810693403096820475184,237.356860451473153261759,-582.768218803267131988832,-98.978282504640489491976,163.933150268022615136942
0.059999999999999997779554,-0.739313204411375823887909,3.93472071842933956986599,-0.162360019220321727395628,0.0288711593982441949712836,-0.154670181440986265197779,0.0266036214238104043450228,-0.00221335091735673809495988,-0.00131038883612742966706943,-0.145624789120276681986255,0.989336346732522797786658,0.0477854974946998328766412,-0.0621544723345037741779606,10.8724705286243015223135,0.0612674232415203814938742,0.0147075508991392177315927,0.962808475566766519548878,-1.47016851659672886931673,0.645436568063478821599688,0.240154326493544734155705,1156.31890291622084987466,1149.91328183541895668895,1165.39514672069731204829,1126.71998312241839812486,-936.887892517734599096002,529.110583892316071796813,-578.893880151281678081432,76.8523023123635056208514,163.933024375053150833992
0.0625,-0.797083118580502514305408,4.1449467790594356486622,-0.47787902202827242659211,0.0266947411897692603310883,-0.143720576601921973258769,0.0257770740563463135464062,-0.00217546220825381607030802,-0.00152917650403254804999942,-0.145606292847239748855515,0.989338853029209874812011,0.0554016885178469087325226,-0.0566227534513750879741067,10.8496931973594197273769,0.0617619898215664500651378,0.0148352560364807053994163,0.965484951951035119677158,-1.47001586733771238968416,0.645433046950142252917715,0.242577296976739631428899,1153.52759205807001308131,1151.50261013083331818052,1164.07617702518314217741,1127.11815278083645353036,-1334.46032320812150828715,754.248769640388900370453,-546.831153353286481433315,223.986945724163689419584,163.93265249488038648451
0.065000000000000002220446,-0.751117404895097595662889,4.09838560270020835218929,-0.746741242704587415701667,0.0244570435346390738229339,-0.131449491691733033604805,0.0236634556558279127158606,-0.0021369220456769382268658,-0.00174339727712442653373426,-0.145593526386063265576354,0.989340473569256362296187,0.0622910383771922426809908,-0.0513911955904620548762907,10.8255007210051523713901,0.0622484151497357807159005,0.0149870841091923681642761,0.968080705024922050228042,-1.46985913952116664660252,0.645430033334619013274391,0.245004632902249552817153,1149.64660130018023664888,1153.68452568362090460141,1162.66099095393087736738,1127.83991785103921756672,-1677.37557010736804841144,936.161131318066622952756,-600.887695382288598011655,325.885678989379528047721,163.932014455991719614758
0.0675000000000000044408921,-0.618793382942206648955619,3.82682611304535447160902,-0.941774954461231605939986,0.0219519095373203777799009,-0.119285238697045714584277,0.0207971046191492391075339,-0.00209708775257700817326589,-0.00194943293187589813605931,-0.14558458661082759877381,0.989341502916176507298474,0.0684056899031800919042112,-0.0465166441870741506625642,10.8000375662634393592043,0.0627132103811539748372539,0.0151607717035241815889401,0.970595055959418417934614,-1.46969925567898562768221,0.645428215017345929815917,0.247434941640726269174166,1145.14071420753316488117,1156.18341578742365527432,1161.07173854827169634518,1128.74758117578335259168,-1861.26280643329505437578,1023.41640593617648846703,-699.760017515426966383529,389.271331918689270423783,163.931162800246653432623
0.0700000000000000066613381,-0.391507813428117801279882,3.30762502185578721736192,-1.01663427923554983145493,0.0193567151145869371930974,-0.108916361094745617332791,0.0172837224420781150613369,-0.00205773909374938699518021,-0.00214292823609292222911127,-0.145576194911447104329838,0.989342434965393979773296,0.0737021966678873402534222,-0.0421047596998492257291957,10.7734550015642245313074,0.0631431264348002452280184,0.0153485086000390465177379,0.973028725431714147653395,-1.46953767887562958271985,0.645427691862383134946413,0.249867885077127427351229,1140.34028726801375341893,1158.80160771330179159122,1159.1621908663537396933,1129.78627451063266562414,-2053.53000430200563641847,1109.96247963421615168045,-930.439326118768690321303,466.027058595228425019741,163.930060834313081841174
0.0724999999999999950039964,-0.0434663317902255555424951,2.47223154614478080048912,-0.94756580553212399475882,0.0170029044457590053363027,-0.0998902368086023589865974,0.0126047558885193800720659,-0.00202046005836916103132195,-0.00232280074066073573268998,-0.145567647809539263414891,0.989343378952657448444086,0.0782165714452746352325363,-0.0382391966337488481419982,10.7459079936129615617801,0.0635322971663979524370447,0.0155438227674647311965517,0.97538275769689286587294,-1.46937516087535202657932,0.64542809979308712886592,0.252304429251622275298672,1134.87306418602315716271,1161.73322818559472580091,1156.41954191767786142009,1131.07771646875949045352,-1872.52436878743901615962,995.405310765183571675152,-1077.80485660073486542387,467.142052940062967536505,163.928456934477537743078
0.0749999999999999972244424,0.264125942885708397955824,1.67049165698932378099073,-0.762040173886632032917987,0.0164931080859797261906063,-0.0953071377276483583385058,0.00883376766394035339846624,-0.00198576221302348672817506,-0.00248558349984511406036147,-0.145559194138658642980744,0.989344311119499497664265,0.0819378087615618283523489,-0.0349794425799950237099267,10.7175533230243900106871,0.0638713106291642074285875,0.015741685596267419172678,0.97765876320143618727343,-1.46921272339563824260722,0.64542896879830824463653,0.254744641402116445139114,1130.97766542407657652802,1163.77863426712769978622,1153.77316658335007559799,1132.12198477533297591435,-1348.74313807786052166193,697.115518207464788247307,-1108.97280516542105033295,395.456492706261656167044,163.926890783863797196318
0.0774999999999999994448885,0.518050782070684112667891,0.845175650901413333393464,-0.476023408896887156860345,0.0184432400983682853734535,-0.0934449534454160068985829,0.0062049481866612724370591,-0.00195577897358613275041739,-0.00263375280725627620298512,-0.145551225629627745128403,0.989345168170678967989318,0.0849899547710035313530241,-0.0323910086669650237878315,10.6885465413438343063035,0.0641641124243275268179687,0.0159356767148928560318133,0.979857494862139355440434,-1.46905112357269529432813,0.645429803793627243635456,0.257189236084562289352817,1128.12934849563384887006,1165.21880577663205258432,1150.87467789185075162095,1133.05499893229080043966,-974.821037302125660062302,471.790720252374342180701,-1282.08075068518951411534,367.151415522721094930603,163.92509242434459793003
0.0800000000000000016653345,0.680382104571545354154694,-0.0886652711556284722771437,-0.0841534533889132102535413,0.0231857207575137773403195,-0.0938521051810700113193775,0.0053287970535605775485033,-0.00193039370251490093564894,-0.00277329932519511596425432,-0.14554301698841815015939,0.989346046396064382477675,0.0875638072081939417001806,-0.0304703557912653702488548,10.6590409303351929537484,0.064422284621475214838604,0.016124619632339572822266,0.981978856721217874259366,-1.46889028612490579739358,0.645429952393692052403651,0.259640359982406920824616,1126.10356023756594368024,1166.13758786838957348664,1147.36276282992412234307,1133.95774185294658309431,-518.684199370590704347705,201.408886872877531004633,-1247.18552457070359196223,283.060161542107152854442,163.922673341770860133693
0.0825000000000000038857806,0.663209395915219324102452,-0.774833782458422271055554,0.22508956334624266593103,0.0276541260493338159065502,-0.0958653353827433329925611,0.00663869777758282000879042,-0.00191079554695519019530403,-0.00290453881312012019214053,-0.145535667897341347565288,0.989346784462765693746178,0.0897304724096813915990012,-0.0292481505192435931039796,10.6291874852246603921913,0.064648033520827999365288,0.0163033343316129342159826,0.984023140280518293643297,-1.46872988675630478105916,0.645430057761426589912901,0.262098311952000506686034,1125.53592749878089307458,1166.22585021099644109199,1144.6387502689972279768,1134.4702997400013373408,-40.1067987509577150717632,-89.6673865524006998839468,-994.655312883059195883106,145.184252746275745948878,163.920445548347885278417
0.0850000000000000061062266,0.492612827373545780762498,-1.33115155721580769032641,0.456945285075175566813499,0.0310622598278024880658066,-0.0991285278957510229691508,0.00948081410413344552456927,-0.00189980212553613326924296,-0.00302934805571547201633043,-0.145530032818139837269555,0.989347248920644073422181,0.0915927266459415079236095,-0.0287729195138422544353318,10.5991333287129574358687,0.0648482769236158607117915,0.0164636750483382679477451,0.98599025282259078473146,-1.46857051297880714102462,0.64543062456360178469339,0.264562424012851737931129,1125.90302624381115492724,1165.68925093562756956089,1142.38948626550882181618,1134.6836631166779625346,248.49864176226196832431,-297.24480695990649792293,-791.929454617638157287729,33.4217265663027944810892,163.918004863868333131904
0.0875000000000000083266727,0.229634805598373681334579,-1.76530130730949497142035,0.599606986589613200067106,0.0330284049470194809861034,-0.1033335869627301922824,0.012638958830178492406815,-0.0018950946042231521428828,-0.00315170020941610068074268,-0.145523793453991384660995,0.989347775855089817120813,0.0932723151038249570499161,-0.0289677174657347741293378,10.5690213978065372657511,0.0650337821100955282282996,0.0166074812307488613172257,0.987879736831508648009503,-1.46841163054773415908016,0.645432723172710276493547,0.267031363772816499047025,1126.77842070759220405307,1164.73962617619690718129,1140.67910299590903377975,1134.63740837283285145531,398.833063545090055868059,-448.719401640620105808921,-540.319930921169657267455,-76.4967460917434038947249,163.915393132448542701241
0.0899999999999999966693309,-0.0791593099520706833249761,-2.04410626173064935429124,0.633859184276588383255557,0.0327912312573625380762721,-0.108641131163806442527786,0.0151971167196388382003569,-0.00189071495114498389078506,-0.00327384686118174133076519,-0.145517526584636736064482,0.989348287614493115960101,0.0948325402192191219130635,-0.0296744920311059132145282,10.5389904712327417968254,0.0652117906016400072921613,0.0167434841304948192619584,0.98969138261131406331117,-1.46825323788810169212127,0.64543753173050277816003,0.26950478452442638843678,1127.89719156153660151176,1163.4456539274244732951,1139.68788661090297864575,1134.30117938621924622566,459.621166472653328582965,-612.818736770260557022993,-282.520409940253159675194,-202.429940936963618014488,163.91258208227412751512
0.092499999999999998889777,-0.413423091238208750830552,-2.20113586054398790992082,0.576598591787443326417417,0.030143573778477809887999,-0.11576582840334885549094,0.0172897806023318764689911,-0.001883564588549626684158,-0.00339574489935928281250654,-0.145511472188345869493986,0.989348758995982069386343,0.0962856157808740925618807,-0.0307928303476929093873693,10.5091745881050684374713,0.0653866785934049399298118,0.0168742752663875311691655,0.991425409904912791070331,-1.46809665417870172099413,0.645444992428669928052898,0.271983477598171208278188,1129.07652653995546643273,1161.67553249234561008052,1139.26650094620777053933,1133.62525866814803521265,354.975455561543299154437,-668.117332257860994104703,-55.0701009773092167165487,-282.329091618839584043599,163.908987732920905955325
0.095000000000000001110223,-0.610939081637007941338879,-2.19659115445876595984487,0.476121862282042229708168,0.0269475162737023155035132,-0.121762313461022023131086,0.0184295564111645882032775,-0.00187268536550549177625846,-0.00351348124498628488696084,-0.145503563358485216161498,0.989349513954667303394785,0.0975578871655772422721853,-0.0322700028291961690807277,10.4797029560845338380659,0.0655564165690779437900559,0.0169972399904399808223676,0.993082732844830839979977,-1.46794346229663252856312,0.645454639053821832561653,0.274467524999749690195472,1129.67206883934431971284,1160.10506726613516548241,1139.41253610601643231348,1132.88953392812504716858,122.355880481336384946189,-642.50867894011150838196,113.424899210303820495938,-317.256912632091996329109,163.905815101864192229186
0.0975000000000000033306691,-0.694209967011438222606046,-2.07972864568665061213437,0.356774827680098050031177,0.0239824360209014916800463,-0.127408160622990263011189,0.0190289370263519580506184,-0.0018565003943877243786087,-0.00362398391781852766829752,-0.145494742440455654408638,0.989350431065896152027506,0.0985803606066499998883401,-0.0340296166220568699345428,10.4506989790460238509695,0.0657203339223252913647855,0.0171121843122052502694785,0.994664425929405959792007,-1.46779415092211307225512,0.645466363294250111692918,0.276956276145529034504733,1129.68830594236214892589,1158.46298909764504969644,1139.83362544225929013919,1132.03897410498757380992,-135.796445364303394853778,-747.915332939418703972478,190.33567773340092799117,-386.074976924964744284807,163.902466084813625002425
0.100000000000000005551115,-0.662694495278787210068572,-1.85581072817372727534746,0.227819179186183079499628,0.0213282642721940099428402,-0.133138412163272767951838,0.0191410344928301598410592,-0.00183775044145399399364571,-0.00373458170734266648241317,-0.145489437171822277861111,0.989350825264154409843798,0.0995020345956492829886386,-0.0360461346358152759372651,10.4222779485884053940481,0.0658988012607710088586188,0.0172145786430113710563372,0.99617063357692159364376,-1.46764855987941267301267,0.645479486176750549830672,0.279449382356821873774066,1128.99308661252280217013,1156.36549060143806855194,1140.36421449468343780609,1130.95915904350022174185,-361.653871012458353106922,-800.204494934359217950259,163.905398907263446517391,-394.939283756684403670079,163.898251172029659983309
0.102500000000000007771561,-0.541173086171400474775339,-1.63754126127383670130655,0.151539385001433685173922,0.0198933361110069928390232,-0.136560517455228708216808,0.0188463270298232614397005,-0.00182015291899904094012619,-0.00384979310962371788079617,-0.14548818312492317605944,0.98935059189568386184277,0.100407201652924257806454,-0.0383176861555009767856816,10.3945486524381003334838,0.0661060096848317402251638,0.0172974143791998179187086,0.997602383509733403599284,-1.46750630556876893173524,0.645493302103167798655647,0.281946090910901447923465,1127.88003658729985545506,1154.46196662297325019608,1140.65315243679560808232,1130.06427768620415008627,-523.59372573978464515676,-800.711598091449218372873,58.8808551117837168931146,-345.183486804035680961533,163.894580310597206107559
0.104999999999999996114219,-0.342251321870634783728349,-1.42580064615770352176582,0.119218575047037159131413,0.0190813969550299132593718,-0.138642292681926238007151,0.0184116676951874939927034,-0.00180394383950732446059151,-0.00397058216545534588270971,-0.145487927975532949087523,0.989350172133812599817304,0.101290538975829721990429,-0.0407783266694002888286263,10.3676132829616634012382,0.066346594259541591398488,0.0173598111684658447384511,0.998961648395666923505587,-1.46736686845299502124362,0.645507533801223942759862,0.284445361271905006184113,1126.37511798382388406026,1152.36193261098082984972,1140.65861877024235582212,1129.23324160948004646343,-700.729832333628564811079,-963.513664245649124495685,-68.0490821123841129747234,-341.055232661893285239785,163.890750080848476954998
0.107499999999999998334665,-0.0363532219958031185824687,-1.20033865102175596462075,0.128822613506906546998465,0.0186105730813545776347606,-0.140288423610395229790271,0.0181264728733592575538047,-0.00178973078987541551858331,-0.00410441414726232627063762,-0.145486944848190802304089,0.98934978339681456382948,0.102279315277483712209872,-0.043348899154169562297767,10.3415651032568511880072,0.0666359506845046606349214,0.017402915114698543769256,1.00024997568386209145785,-1.46722902388753473346128,0.64552138136942216473102,0.286947991134621549491612,1124.37638742563171945221,1149.64439830174501366855,1140.31290702623368815694,1128.35900152289468678646,-723.011509379193057611701,-1014.23064135205913771642,-174.680348308220203534802,-296.009302612264662002417,163.88597439726808602245
0.110000000000000000555112,0.260491974792038005759309,-1.02828380088995174901356,0.166376991390887213340122,0.0185814127829641191624876,-0.141612726327984272955973,0.0181459453493179982686012,-0.00177822178695975579264255,-0.00425409392494583479121806,-0.145478614140848894198399,0.989350380216009295253343,0.103406798835889227050622,-0.0459674396257306536184295,10.3164897164308584365244,0.0669780435532472961934758,0.0174262980667713764104665,1.00146994677283296404369,-1.46709073650087407081344,0.645533451842780769958097,0.289454639172915140221676,1122.76006043692791536159,1147.29077940422052961367,1139.7852170287012540939,1127.75319509641872173233,-586.090611181679719265958,-931.252225371917234042485,-235.37803885328665387533,-215.752866346246975126633,163.881847997840594644003
0.112500000000000002775558,0.582591862978439123388341,-0.837032067421196290801788,0.214649694173123239959722,0.0190404439263072919330533,-0.143643252570413465507571,0.0183404688812925237284546,-0.001767199313672018811186,-0.00441611778948984481235618,-0.145458448798012562885873,0.989352635077178743649995,0.104574916461514275112243,-0.0485333640846332958762588,10.2924652471328386127425,0.0673608903483364218622853,0.0174341851382927952307522,1.00262541716574338224177,-1.46694988865463771254838,0.645543814873201005077874,0.291964179290646719255875,1121.44593436972331801371,1144.9881371748854235193,1139.1360168319672538928,1127.28023719116345091606,-439.424274212842249198729,-885.609858113638551913027,-255.545885779838272355846,-169.324865661837833386016,163.877571968694269344269
0.115000000000000004996004,0.907027826637743062043739,-0.592739181567044082221685,0.253122303035128448644997,0.0201230902786952679794918,-0.146527695121017792478924,0.01875780879200875453372,-0.00175587992506110986482004,-0.00458995779830577779745404,-0.145426482203054735498071,0.989356541914367060286395,0.105761134189994429610771,-0.0509700290218099844041788,10.2695602498921552125921,0.0677763899131408470433158,0.0174296713302274260126712,1.00372034288391165368637,-1.46680474602475374723554,0.645552160247963913164426,0.294475060102482477653041,1120.56293906586370212608,1142.86273011365233287506,1138.50748759980206159526,1126.90657076810953185486,-209.489318928353696946942,-770.954754863031894274172,-216.717609704573789031201,-132.431120425962831177458,163.873173287732271319328
0.11750000000000000721645,1.20253603933870190090261,-0.247103994535837534485267,0.254273967024770453093652,0.022326978093597578400864,-0.149771784167147703481504,0.019706061986746063741105,-0.00174807937747187844626517,-0.00477842339039702326125569,-0.145385087626352771383864,0.98936172779724373960164,0.107037043539241788492333,-0.0532889852350717507789568,10.2478331334218069059716,0.0682226494516631476461299,0.0174081447282790312269807,1.0047586391520657578269,-1.4666543531831697233514,0.645558445742124176192078,0.296986580709261649424491,1120.39848777508154853422,1141.13336340057026063732,1138.05242878344438395288,1126.61808158903363619174,132.261129851667902812551,-621.897775562775905200397,-128.898237219209732984382,-122.390515003826521933661,163.868628038208214547922
0.119999999999999995559108,1.47342995089165240685247,0.298351941031701595186121,0.1822302557690878566099,0.0266702209155888284031199,-0.152258477574244377450441,0.0214946073348838175010034,-0.00174525656915394265962516,-0.00497843710021541718119265,-0.145333593842539549045867,0.98936829722400410069838,0.108361346362019675404476,-0.0554771867086170933358602,10.2273343857993239680582,0.0686845986207538367063208,0.0173676361244637089686904,1.00574510131712591132214,-1.46649835285868079814975,0.645561897058730904674917,0.299499342335323881503228,1121.22424471512204036117,1139.7532412358384590334,1137.86299641370601420931,1126.29461819309040038206,483.926617000316582561936,-360.018347748110272732447,3.1373801296467775934218,-130.294015567187926762927,163.863005648838736760808
0.122499999999999997779554,1.59321559633822107393542,0.840716063204265395825132,0.0481480439203166507566856,0.0316873252830568649662801,-0.152052501426895275704609,0.0231403023927187999342348,-0.00174764580999599641875086,-0.00518998648657414702461965,-0.145271678921799207717669,0.989376292503730381255878,0.109765641231218527562596,-0.0574941183361258600914567,10.2081053355661985904135,0.0691528501254202593306886,0.0173095380138175783391041,1.00668393295520575136948,-1.46633687090630848715023,0.645562041401135711105042,0.302014822253339920710147,1122.81812086008312689955,1139.33327166182971268427,1138.06811568409261781198,1125.96661151119769783691,807.48206121461339535017,5.96996711578867156333672,157.223010362076678347876,-165.173405228688210399923,163.858180994772084204669
0.125,1.57476273158573176758068,1.42226511190939586271043,-0.158745392168176124858547,0.0372980562379808811002135,-0.149151712321270613070823,0.0242244908321813078033724,-0.0017504870185823802157532,-0.00540930613844686682817331,-0.145202021947763632025996,0.989385345970401952619966,0.11120420177712893317068,-0.0592166480851598064916175,10.1901802174780033993784,0.0696098632830183389197387,0.017244329783694310048725,1.00757956704164230998799,-1.46617058264851585214217,0.645559688700364953106714,0.304534199429937646463884,1125.26165502119511074852,1139.78309107141740241786,1138.64911146551639831159,1125.46875116694695861952,1206.67053062938862240117,397.191377805711113069265,319.780132222603867830912,-281.780711448572901645093,163.853212339956598952995
0.127500000000000002220446,1.39341148629673972081378,2.09515268288146039310504,-0.459445689303026150174247,0.0430514657099415332108805,-0.143213011152656249924675,0.0239723922647642265215673,-0.00174578948166104305946,-0.00562746440746640999575057,-0.145129124762248179481006,0.989394857507681746433548,0.112528926230678213982195,-0.0604798460441585764013617,10.1735869364506754664035,0.0700285185519948227828024,0.0171873963161476642214076,1.00843702119018518992277,-1.46600085081087039284853,0.645556317616628794198164,0.307057290734114474162197,1128.8514735132300756959,1141.31922855085826995492,1139.66701634520563857222,1124.55770795395483219181,1353.81115513723557342018,705.054686704897221716237,396.563006254791275750904,-396.444700543906606071687,163.847083881561246698766
0.130000000000000004440892,1.1315102156698886304298,2.59020001774262675908744,-0.718242837556370083973434,0.0464896222946719964164153,-0.136644262027654422864131,0.0222333334783813008073139,-0.00172888926957749894212923,-0.00583668953981084873833263,-0.145058461662841808870184,0.989404075593134813004781,0.113632840458195993882384,-0.0611906344757384354493546,10.1583459288653674690295,0.0703873602098090689338505,0.0171476626315848479364945,1.009261274736640956462,-1.46582843587393440998312,0.645553003603041575253485,0.309582264993762845683989,1132.03071079688129429996,1143.30836450494189193705,1140.63192649679035639565,1123.48652766422742388386,1210.31215127063546788122,887.009767802327701247123,364.896181563289815130702,-491.459052981508193624904,163.84183854728539131429
0.132500000000000006661338,0.794283111397455110491705,2.97879751646763413219787,-0.942070308404182821249151,0.0487356281384312348126109,-0.128562312890398044995521,0.0192464094896670351308998,-0.00169817961345259207418812,-0.00602849992142012562623687,-0.144994322634175054620442,0.989412424690883640643335,0.114406525819491969309105,-0.0613275292735252497422493,10.1444712290839600399295,0.0706673553682177074675153,0.0171273758060347218445951,1.01005757725874834029867,-1.4656557750576593157632,0.645551129649189592285552,0.312107458955529826205577,1134.90303426958325871965,1145.75427738986991244019,1141.49149725302208935318,1122.10041268904728894995,1083.14051423694672848796,1092.17547205953360389685,303.065784876752957188728,-661.688372685466106304375,163.836449610945294352859
0.135000000000000008881784,0.352568546833432250320328,3.30358542965145396408388,-1.13401120131511934374657,0.0502904187773438038355778,-0.117788076055905313599403,0.0148543201917088231456265,-0.00165543672500834538989511,-0.00619892155761226238547268,-0.144939282149095211016387,0.989419550551923543402211,0.114838415202928659231141,-0.0609314505546112994416319,10.1319703659437561071854,0.0708626331299841982769294,0.0171230904123859523080498,1.01083052978768850316271,-1.46548544618309328768646,0.645551055962112152464272,0.314632952042944891157816,1137.44641336806603248988,1148.76924186523956450401,1142.14725542117412260268,1120.17808580080009051017,721.755373954055585272727,1047.9019470476478090859,151.514937173578658757833,-722.544499281547587088426,163.829816712307604120724
0.13750000000000001110223,-0.010576129944186871134626,3.46319486421499789230438,-1.21891189180686998483338,0.0506672758610070828044769,-0.108854183292646081171462,0.0109999130833772496007583,-0.00160418432020312425045905,-0.00634764772180340230284257,-0.144898236640002620045919,0.989424735753601902743526,0.114987703499659227324159,-0.0600749307615530275805682,10.1208456976084324452358,0.0709780371481145144763047,0.0171294223191206761158778,1.01158392023279852800499,-1.4653192526996157152297,0.645552655049317247737406,0.317159915794917479647808,1138.51181113935354005662,1150.99378712510815603309,1142.24907193888998335751,1118.4876901926395476039,170.66152594666149866498,755.514819595054404999246,-62.1842927265788034674188,-657.138343312635129223054,163.824150853187603615879
0.140000000000000013322676,-0.327186231112727599068535,3.5354508058163136574592,-1.23131010198905621599863,0.0500957501071242553014606,-0.100767092351011333661859,0.0074661132399156506303517,-0.00154909082885320453261413,-0.00647758979223770053196274,-0.144873942654871218360668,0.989427556350101045090639,0.114968227133093500724748,-0.0588516496259336302498966,10.1110956767624546870366,0.0710277503239185314942716,0.0171396826755408036857542,1.01232060985332972258277,-1.46515860446899415236999,0.645554848270332715109987,0.319688949530605281967865,1138.29972099779934069375,1152.54681596321483993961,1141.83633395754122830112,1116.89239408423691202188,-295.805210043499471339601,472.925841550113148059609,-241.273662406956418635673,-593.468672245034554180165,163.81834162646015329301
0.142500000000000015543122,-0.575517158527360961350894,3.56074011873960261098659,-1.19839829176972267887891,0.0486918013623149903423837,-0.0933639432107580824471427,0.00442607622376627474897193,-0.00149289531848367166937119,-0.00659119303084394932146228,-0.14486518898994102388933,0.989428177019087251586882,0.114861735592114627690918,-0.0573258368676652224626977,10.1027169945884747193077,0.0710264025564900508546984,0.0171507247424899159082834,1.01304298884135213221214,-1.46500405617034679117694,0.645557249020565993014031,0.322219458984855877670128,1137.03278508913604127883,1153.35841633285872376291,1141.04270362685520012747,1115.52034683141437199083,-730.376298375953183494858,134.327254000573418579734,-381.43255826253329132669,-466.512425962448446625785,163.812413995975930447457
0.144999999999999990007993,-0.709406091886416678704563,3.55021515534679732439827,-1.13435920402126688699695,0.046233834278004468099077,-0.0862361764127855395800637,0.00199212708512485833778349,-0.00143382799333448599475582,-0.00668763674456465066070487,-0.14487036969608760306194,0.989426848560120530962081,0.114652387984878909032993,-0.0554887587168559071049145,10.0957063684114558554938,0.0709817571592175761141519,0.0171676557088864152611496,1.0137533443677253508497,-1.46485589300714891258792,0.645560240357205050720779,0.324751785576735840788132,1134.6478395059195918293,1153.21845223321770390612,1139.92917116622857065522,1114.559831954424680589,-1240.98025032677128365322,-251.604751379865120952672,-517.98650142686949493509,-309.976039164031647032971,163.806344484934356842132
0.147499999999999992228439,-0.709250021917481099364977,3.49921884476800748586811,-1.04917944203597746088974,0.0422618779617809151027963,-0.0770565637553992932584634,-0.000388473964718035239505889,-0.00137330553317416238431892,-0.00676747327457515816112599,-0.144888803329342480408215,0.989423673142641901812055,0.114341171224521531701868,-0.0533987130836358903085426,10.0900596474820503090086,0.0709053571030522772344895,0.0171897975127912258641594,1.01445328465884232471694,-1.46471339486602181167996,0.645564315429816182323464,0.327286281700102710257028,1130.82788383750221328228,1152.1003925759594039846,1138.45277111972086458991,1113.97046663559422086109,-1499.12276867284936088254,-519.444812352093777008122,-532.89925178669318484026,-127.77736824064038501092,163.798898635583498162305
0.149999999999999994448885,-0.571880973210060483680195,3.41206267345129887758048,-0.984570845990379694967487,0.0387001634585176779168592,-0.0686411932386581380427515,-0.00220983435320733093490397,-0.00131519299160750050524393,-0.00683140391314712366876982,-0.144916712939302333440494,0.989419202406127684668036,0.113919253679053422700918,-0.0511694115071509997294541,10.0857727711042404195041,0.0708091745445172254802557,0.0172111777199007304206546,1.0151439563873954075035,-1.464575350368198636275,0.64556935450978825130619,0.32982368996220040591183,1127.15222566255533820367,1150.62122817145723274734,1137.26467490729510245728,1113.92094511322147809551,-1492.71305289171186814201,-628.215353021323039683921,-439.687371389390648346307,45.4347192630848013550349,163.792559888503518550351
0.152499999999999996669331,-0.318297829318895109107501,3.25843339914126017831109,-0.932097256485384551005779,0.0361788391555098315377492,-0.0599194980065189466977849,-0.00417151853418495574543634,-0.00126028170117908682942853,-0.00687630293525667325715833,-0.144948358884686517855656,0.989414305201358867947192,0.113274406120237897122038,-0.0488705697417748524680192,10.0828433634472141022798,0.0706952424865372880402603,0.0172305639663792656279817,1.01582667364953582733733,-1.46444108252216032006743,0.645575008386161330875552,0.332363799981523821980289,1123.36431857304364712036,1148.95931581085278594401,1136.25433426277390935866,1114.19764023190964508103,-1601.50646528122570089181,-680.383369156106141417695,-392.322948998025481159857,153.830625381942667218027,163.786084382380266788459
0.154999999999999998889777,0.0535517738088796546591652,2.98378655966030992274796,-0.879790463986672821583568,0.0354783355224538507477483,-0.0498445297421217653477399,-0.00669604273428306417947908,-0.00120734129417192728207786,-0.00690396274360510417422709,-0.144981000940536813859083,0.989409379642733677329147,0.112372000121953752316273,-0.0465222710157936966690606,10.081268907365489084782,0.070572782134634748363311,0.0172525567124317651124255,1.01650183524657888867182,-1.46430974766190691305212,0.645580797180599796902811,0.334906929443122836076441,1119.144693336149202878,1147.21931132567669919808,1135.30306016230497334618,1114.69009824013119214214,-1434.44084349766717423336,-537.424358615589426335646,-310.212637551557861570473,178.691275432356462715688,163.778158782120982550623
0.157500000000000001110223,0.358850871608109300847644,2.68206034631704204329594,-0.840057402721065327177996,0.0369820821602493618462937,-0.0422145192359657320246846,-0.00874601984254812052366201,-0.00115336182751506416757636,-0.00692237721363245760153315,-0.145013370490112120103632,0.989404566427494969182987,0.111285093478777338815711,-0.0440949655177977906106435,10.0810459622126646905826,0.0704605152149875707534576,0.0172872411422134650282878,1.0171689557362086908654,-1.46417989195663067469866,0.645585660714875664289991,0.337454521234372029070414,1116.19211435555530442798,1146.27219401777483653859,1134.70327107501611862972,1115.09109660907142824726,-1011.98969300303269847063,-225.938279951560417657674,-216.849920693220866496631,139.70296923903322294791,163.771427624194757299847
0.160000000000000003330669,0.593622821856972571197275,2.32250966026214422655016,-0.797881015672718518771944,0.0400575829309741740513751,-0.0359142099746074250354866,-0.0105526579331581167597864,-0.00110019291016037789113224,-0.00694182407116204942820747,-0.145051567894047078732811,0.989398897960729550860037,0.110140799864254346207559,-0.0416516209501973724838031,10.0821693855431497865993,0.0703803397436804645259656,0.0173362908702979975905656,1.01782766023377324593469,-1.46404977399974001173177,0.645588085482335372056184,0.340007391390247326601326,1114.08474487113403483818,1146.08961992591889611504,1134.21881055883886801894,1115.38861308632635882532,-701.371222506349454306473,122.770817555965436440601,-212.082679419563447709152,110.45008217743078660078,163.764568858506891047
0.162500000000000005551115,0.748617304102721758951589,1.85754540366759490765958,-0.735373753078196079613349,0.0440676012391311017202256,-0.030206820297243357209549,-0.0124114768346498521162102,-0.00104730155673344520021739,-0.00696636617761356262412686,-0.145094293712659055950454,0.989392532131257662619817,0.108933930950661547742975,-0.0392270634124062128611499,10.0846332437458876540859,0.0703386447756408628162461,0.0174029006532845642585272,1.01847926575163238993582,-1.46391775072301322246915,0.645587868332765157930453,0.342563989285668502038362,1112.68525824302355431428,1146.88604810555466428923,1133.64285767791830039641,1115.64334701995858267765,-324.170320341363265015389,461.759663335032712438988,-227.40122199043051409717,92.7983930436766115690261,163.756195761136808641822
0.165000000000000007771561,0.764869065067125042389762,1.46742444357143941857657,-0.663812521131844190946936,0.046791031199649425753595,-0.02675917367529047005692,-0.0137876561789394610352266,-0.000995362736073161042879565,-0.0069954439222069814130478,-0.145136146468494126038351,0.989386259438105430952248,0.107574656481497166193861,-0.0368928886996478661020049,10.0884286215735041736252,0.0703307301044638066844783,0.0174851646958145562349429,1.01912699591820099520589,-1.463783062578488891603,0.645585555308670344665245,0.345121992162342128285246,1112.46389326942721709202,1148.39841824259406166675,1133.08180444888671445369,1115.85260505154474230949,86.4157810115101909786972,761.210317875474402171676,-254.564391805115292299888,110.453050732667080069405,163.749103444770526039065
0.167500000000000009992007,0.677303766236115434296039,1.09800280155307050655722,-0.555857225604936222573826,0.0485617784108242286911228,-0.0242971318211294383393462,-0.0154217884618305170474351,-0.000943736664241202546921095,-0.00702427977614086991586806,-0.145175490201214091312565,0.989380349960561678024362,0.105894162694554497261556,-0.0347036551974260268349504,10.0935420351100688662882,0.0703410338028319509495745,0.0175820571260818341030596,1.01977602768433994739894,-1.46364539369404811353093,0.645582139051752212921542,0.347679840953147134552381,1113.11733714808110562444,1150.69209969493203971069,1132.37003571889272279805,1116.19561227362191857537,379.518052759430815967789,1017.1819655355639042682,-312.127267222240050159598,178.752304504678079410951,163.741897492882714004736
0.170000000000000012212453,0.520321096594981824523529,0.756310742248260226006096,-0.404582578614535837147059,0.0496716662228758390473793,-0.0225628964899687207978918,-0.0172525680783475326984799,-0.000893996257926187986447841,-0.00705091448096212356638768,-0.145212237539749849934978,0.989374826337388713071164,0.103799165729543604874685,-0.0327448699085981023704228,10.0999523503029386972685,0.0703589387104211483325855,0.0176880188805313559585741,1.02043238444599793091072,-1.46350482758311306596966,0.64557892586038800875059,0.350236769487755172924892,1114.36148353322437287716,1153.48432807027188573556,1131.52116811277551278181,1116.74636657406813355919,602.389421266524891507288,1184.17125824143909085251,-366.147975421608521173766,285.443243961617326931446,163.734601844063746511893
0.172500000000000014432899,0.297697291682495313036583,0.452724531038136590588294,-0.191624065042044045004133,0.0503309110036710624647149,-0.0215919112962704475011666,-0.0188349505334966457748003,-0.000850104059493043268114221,-0.00707755319282797785984673,-0.145246229149981476158615,0.989369691157817809923358,0.101302508623029571821483,-0.0311309209963901711848422,10.1076292997148939889485,0.0703820978279058317994554,0.0177928580421662894950341,1.02110241646322230657518,-1.46336077566230371438394,0.64557706039515816431873,0.352792441254407673767446,1116.12928425441373292415,1156.6129559861392408493,1130.53929584178467848687,1117.6228284934300063469,851.940739200335087843996,1371.20179792104750049475,-444.967075830754367871123,465.411851577709569482977,163.727204108557430117799
0.175000000000000016653345,-0.0283111426138070512714684,0.12944432473140959904967,0.13196561411346544034906,0.0509768916783185921381971,-0.0210626915993040800256786,-0.0199398803210518067718926,-0.00081233860432547108122725,-0.00710830186691583688907148,-0.145279261477172599859031,0.989364650636863629529216,0.0984625315848523946504756,-0.0298887331692802432625555,10.1165334130941069190612,0.0704104691423537987216008,0.0178938618283663621044699,1.02179261584171254817477,-1.4632129108681468654396,0.645576825421955269312946,0.355347015065928806265561,1118.62118722922605229542,1160.34033705987712892238,1129.29633273362173895293,1119.07342583195668339613,945.461705434040482032287,1299.29741186297792410187,-449.173839495144704869745,590.854453450131586578209,163.718217303556031083644
0.177499999999999991118216,-0.337314380604794294971072,-0.112724034807619777343035,0.443764046056591920930146,0.0512039151709508047471964,-0.0210203077943671469418607,-0.0199555635351002964850142,-0.000778179124226747965728523,-0.00714851844722208355775717,-0.145309953102516015155388,0.989359872366546544419919,0.0953736569391130939443713,-0.0289760471570617433867412,10.1266157477573610634636,0.0704459468522927317879478,0.0179935502420921142330279,1.0225092687129651025657,-1.46306071651067193251095,0.645577808531705876760043,0.357900557609621638999187,1120.85659278158391316538,1163.10944304545409977436,1128.29342664430896547856,1120.57710076068065063737,897.682795211498728349397,974.77874734286615421297,-372.47602498678310212199,644.356910773333993347478,163.710643393121131339285
0.179999999999999993338662,-0.664219460270227490816808,-0.33693835761181478716253,0.769385343916763386751256,0.0504101145382446699794166,-0.0213515225596982230471532,-0.0187739033647916116198662,-0.000742772724155445619557969,-0.00720070106689754945578086,-0.145335433646931716511475,0.989355766177816287054725,0.0920854189500038555760142,-0.0283017742611839651090122,10.1378187776672135100853,0.0704846753218268673446545,0.01809812617924841035566,1.0232586118586535217645,-1.46290411711793999494091,0.645579648752315105042499,0.360453454746695101107434,1123.1096012052835249051,1165.21423079659143695608,1127.43395260868783225305,1122.29521038582333858358,969.017854117872957431246,733.151040473966759236646,-324.901370773568203276227,779.720650796570453167078,163.702988871292632211407
0.182499999999999995559108,-1.04221157993709279132588,-0.59468541524152529476055,1.13138058051469725384663,0.0477505397633471578844322,-0.0222400925959274145538025,-0.0157252587910366899148773,-0.000704624933200083880188713,-0.00726129853753747916966788,-0.145352863303109536285973,0.989352778078507633097161,0.0885537798842508383501126,-0.0278491718776643221167078,10.1500773596127942255407,0.0705127992487375732100219,0.0182055335019800784701616,1.02404697555874979464363,-1.46274481508431186682628,0.645581648043447753337887,0.363006892692932570110287,1125.70168205217328250001,1166.77519824782393698115,1126.66891979044112304109,1124.47570401466350631381,917.191961312300122699526,412.006120723435401487222,-229.199643972333234387406,802.420769813897322819685,163.693718886849779892145
0.184999999999999997779554,-1.31807562864782412681564,-0.802658174243392252833473,1.37626708363737448870268,0.0441337973503246328021987,-0.0234391700899223669185556,-0.0118231848032900235118126,-0.000661923696491069162538279,-0.00732699607027385239194084,-0.145359061378300014055753,0.989351404128787526026656,0.0847538799048446478412444,-0.0275840838181991114541614,10.1633193645170845087478,0.0705185836553103295720746,0.0183149388485796121850413,1.02487952521702441188722,-1.46258522604198915040286,0.645583855502016579208657,0.365562450845614506089731,1127.69556101184502949764,1167.27426140020861566882,1126.28795438882616508636,1126.30731423489282860828,750.47641776577552263916,66.5820930132667285761272,-102.247584567021391421804,722.022004756717478812789,163.685929706845996634001
0.1875,-1.52945112276379258098302,-0.999784678581105756833836,1.5332425155953570694578,0.0394697141796371137045796,-0.0252764830060871470429618,-0.00703767854166975192348188,-0.000611184950627408031184618,-0.00739175958235503260257415,-0.145351870630078483515035,0.989352011286736776618511,0.0806137150348412573341861,-0.0274370649701340396653393,10.1774679126433973408439,0.0704862004674820241678646,0.0184288833025066066395592,1.02576056687204997253104,-1.46242751018826822040353,0.645586619631442593103543,0.368121920471206232061689,1129.45406414100216352381,1167.10810871289027090825,1126.15768186760601565766,1128.08581403844709711848,710.99376411561866007105,-159.815465716792317607542,-14.3934127895135919317227,763.873767940958032340859,163.678081380393194876888
0.190000000000000002220446,-1.70265853988575921462711,-1.21119410053566189944263,1.6097915480229494367137,0.0337125171001143170146364,-0.0283013815451028764857977,-0.00135363517003813218012032,-0.00055644732805265725763405,-0.00745030420619829762685082,-0.145333917180896249332633,0.989354250031274751187027,0.0761077779155397149413176,-0.0274795587789015034740903,10.1924425163318961296,0.0704052861899135962175933,0.0185361454108227720338764,1.02669330516842993716864,-1.46227273510758126739972,0.645589743606680199761172,0.370684826910500864194375,1131.2505298324231262086,1166.47518407162465337024,1126.21598732487859706453,1130.12668307459762218059,604.698399323614808054117,-248.638625580860889385804,43.4677367715721274521457,732.711523525585334937205,163.668603737250265339753
0.192500000000000004440892,-1.79105905959348921108187,-1.35403598693617510662079,1.58891575062991763367393,0.0293751892325261609872911,-0.0314656070064266643604434,0.00285626419256645612196333,-0.000501597286556682247886385,-0.00749550043285313744023668,-0.145307389042968942982625,0.989357849887377627240426,0.0711785354573972323111164,-0.0277789605618155716060258,10.2081619221856438883833,0.0702632773526773585226479,0.0186258111905815322562052,1.02768028078587914109221,-1.46212137039740563970724,0.645593312345715042432914,0.373249561229778092918963,1132.47755613762024040625,1165.86491558498596532445,1126.37502055146387647255,1131.74937165607502720377,437.333529643319309343497,-200.866442124697471172112,74.0446620734928018237042,634.425858530038908611459,163.660662420063403033055
0.195000000000000006661338,-1.84396276209934506518096,-1.4476026576427243330869,1.50163485044793487688253,0.0255577538978711861494819,-0.0353398989136980215541861,0.00629582703168520690928389,-0.000452368267149300161758529,-0.00752363890674582428547135,-0.145274531547502111505921,0.989362506239785832740097,0.0658452964848083438509363,-0.0284249475777068709436701,10.2245455908965254820941,0.0700562813088737856848098,0.0186847598219493302162952,1.02872268382804477049319,-1.46197341149215742639456,0.645596909990488354580407,0.375815554484993652462066,1133.43719748063972474483,1165.47085186100116516172,1126.58621063524606142892,1133.29881236724781956582,343.873057509835859946179,-88.8880025032903233750403,90.784675773284021715881,607.375719102855669007113,163.652684025090962904869
0.197500000000000008881784,-1.88265210020986817340827,-1.49307216351625449135554,1.37669469849835301999974,0.0217833550094455492829315,-0.0396959247601188919274406,0.00914830562354893017662505,-0.000414406724256362920654623,-0.0075406870713281524964966,-0.145240932071312695006426,0.989367347822690090808351,0.060322999048808653710374,-0.0294736902426088881457034,10.2415154818045603946075,0.069800731329865986496408,0.0187037619748058187019168,1.0298193241222479699104,-1.46182913372950462616018,0.645600485973362725466984,0.378384261121371801017688,1134.19692142516942112707,1165.42047557246951328125,1126.82894393033029700746,1134.78625025158930839098,262.501965433329814914032,80.7098538241006480120632,112.922817294111055730355,576.909026525754029535165,163.644681053532167425146
0.20000000000000001110223,-1.91379493392867883194697,-1.48215706917641432127652,1.22109799271004648701933,0.0176524302445374495218466,-0.0440100153680800521005523,0.0116588329698299134756789,-0.000389076551903686515890279,-0.00755418549011511140933717,-0.145212986406227234637001,0.989371374808841852477315,0.0548442394658083393066406,-0.0308881222079835926486169,10.2589991271553433449526,0.0695153731749754005830866,0.0186831625214006549762225,1.03096767989294724188198,-1.46168814787725387382977,0.645604345495854436975947,0.380957356292197624192397,1134.74970730780637495627,1165.87440113012166875706,1127.15082472171661720495,1136.18335749987659255567,205.381848598835688335384,307.624076793308347532729,182.491155537672796072002,588.817865070313359865395,163.636656443454342024779
0.202500000000000013322676,-1.94471268465070989961418,-1.4215806675631199595955,1.00658540744919156040282,0.0123296223580389666812929,-0.0483857015216841157556615,0.0147415461357039648954137,-0.00037876625247240631533599,-0.00757248125530432265178904,-0.1451937803236715840427,0.989374067977097815251852,0.0496575031598701366331028,-0.0326484561436854447968869,10.2769309771106023276843,0.0692210733830008750899765,0.0186212325858511502929549,1.03216422629237625230303,-1.46154906450051269573009,0.645608665344564069954458,0.383535586248269999565252,1135.22383066816360042139,1166.95859595643605644,1127.74139970801866184047,1137.73033957694087803247,150.335511886760144761865,458.55390865790428733817,271.788951015150587409153,543.986112369065722305095,163.627012959879778009054
0.205000000000000015543122,-1.96281446399318970641446,-1.35103938354848085445781,0.805576102853742703757689,0.00782631449776742538215757,-0.0513004141928158907681734,0.0172218649346547077183534,-0.000387674250474166434167478,-0.00760321329622467602382674,-0.145182963822853922097877,0.989375418054696531555692,0.0449972098486140226203389,-0.0347739664759963360007866,10.2952533742989622567165,0.0689377180354656671212865,0.0185120586540374297557232,1.03340494875089250470523,-1.46141066381529927120653,0.645613389001561399638263,0.386119112371315964526985,1135.50138486724017639062,1168.16717067341119218327,1128.50976947679237127886,1138.90328806172192344093,96.4700594988243267380312,491.428782934189712250372,390.350598457734690782672,448.451171070018574482674,163.618973724849951167926
0.207500000000000017763568,-1.96755543739283744741897,-1.2809928217216741686002,0.584296878117058549051421,0.00354594263198386135463314,-0.0536478044274643281474901,0.0191715071128373201747586,-0.000416331165419353815132508,-0.00764926553313107805698312,-0.145175954164724979600365,0.98937607357348256176266,0.0409833579151615418068033,-0.0372246025489035986533182,10.3139172086696611074785,0.0686742301543429856103273,0.0183554701772980395635404,1.03468615946204600675173,-1.46127207954435456294107,0.645618162829904806976344,0.388707971410920283261703,1135.70618096565772248141,1169.41573987110700727499,1129.69315270030733699969,1139.97259543229097289441,84.2242612510748926979431,484.265406132092266489053,641.777154455715617586975,458.537315988680688860768,163.61094236492033360264
0.209999999999999992228439,-1.94555252321516602975748,-1.20975533638760479604457,0.30492865374342914552841,-0.00141257051837467644504753,-0.0561375679668719845816227,0.0206844025642093053141135,-0.00045833832918784709470339,-0.00770969114860202767158803,-0.14517017546879784628544,0.98937641877025739312046,0.0376291443200619524223072,-0.0398326776573944135728667,10.3328815714912742862452,0.0684292738713918879955855,0.0181648797948700709004033,1.03600464349232157523772,-1.46113363013111863253357,0.64562296213110303977345,0.391301942857303242107037,1135.92250617349554886459,1170.58849770407164214703,1131.71865524907093458751,1141.19597464166531608498,82.1854797313339275888211,329.898871699244125466066,855.961646641348465891497,451.271833126522608381492,163.60132750698198833561
0.212499999999999994448885,-1.88848893524131544729983,-1.15813678767021022153472,0.0712304757609961564090995,-0.00578079147808946078312964,-0.0583831853583934093365748,0.0211997389078768805337205,-0.000505607834270229545246822,-0.00778640458420002540274041,-0.145163398797408971230283,0.989376765730707319335124,0.034992216369271092468729,-0.0423897818456648936558118,10.3521123372805821105658,0.0682067020899960324564759,0.0179584599847919523796236,1.03735713109980332014004,-1.46099627872381732096585,0.645627326804833923112881,0.393902056092500951756108,1136.11710836431439020089,1171.06523422960322022846,1133.97296093351405943395,1142.22895459792357542028,90.7889040351618916702137,60.4449028120142770603707,1023.34626264346206880873,431.419708651491930595512,163.593344716531731819487
0.214999999999999996669331,-1.76631725549433316047043,-1.09872929716945866296385,-0.148689499840971961486247,-0.0106920356719721280219781,-0.061284107939411150423048,0.0209516425993520362391909,-0.000553146767636274443863398,-0.00788425327563400078767497,-0.145156567798560953708176,0.989376937447274062975566,0.0331908928240037121026873,-0.0447455800530218925081805,10.3715804522894963213275,0.0680171690199406070442834,0.0177496844680194477972268,1.0387407391558423075395,-1.46086006497949361104816,0.645630653308749025143243,0.39650821070591379946535,1136.37645069367135874927,1170.89072221813171381655,1136.83538656228824947902,1143.35307318492277772748,142.762774339780548871204,-207.480337836068258638988,1386.38361726702783016663,527.35606360852170837461,163.585406069544490037515
0.217499999999999998889777,-1.51938270987128021261015,-0.996297143833054565931207,-0.380524195637790718649285,-0.0167288848987948018942618,-0.0651332708761562517718602,0.0199474287330814181729011,-0.000598174226352272465391524,-0.00800551454062364137298502,-0.145151445181414678886611,0.989376657447858631755366,0.0322886950060519706262596,-0.0468071731372433491591423,10.3912600264103165415008,0.0678667184780342019889687,0.0175470544383173193692116,1.04015411585949602013557,-1.46072480701089180143981,0.64563247703849391267994,0.399119093066847729911473,1136.83092223601329351368,1170.02783254042287808261,1140.90487901984920426912,1144.86573491596618623589,201.860806829381374427612,-377.74882871344709656114,1573.42044976221450269804,582.917393489196342670766,163.575947094885464139224
0.220000000000000001110223,-1.22351007311101378505214,-0.875452180570325588782055,-0.537528722634047717576777,-0.0212193953395378963333595,-0.068008453910323715674302,0.0186188986642741340082896,-0.000640853024629289965904966,-0.00814647790743128208390544,-0.145147180268057812702054,0.989376079665061913814839,0.0322254276534351125071964,-0.048564942265767997719994,10.4111258511646660451788,0.0677501169723398605215792,0.0173509321439721357627217,1.04159819264922370862791,-1.4605907563540814209091,0.645632690864805458552667,0.401733106668104467118496,1137.38575472781826647406,1169.00197807456447662844,1144.70248881109932881373,1146.267660152368762283,271.96866421768368127232,-392.083719821357249202265,1557.62974748354145049234,581.552509483844346505066,163.568133122522880285032
0.222500000000000003330669,-0.845583457353303424852697,-0.717722921624035614662773,-0.649435808129130931476425,-0.0245752815209069400137487,-0.0701812693104615498151944,0.0169030921422458763059282,-0.000682835296020156646765176,-0.00829938590956442144574989,-0.145142615388969470346936,0.989375437407775115694619,0.0328520423183616822049302,-0.0500579085861245082211823,10.4311509446975687609438,0.0676543352681542170534712,0.0171571552199236768143642,1.04307594189736851930661,-1.4604575139245230541718,0.645632236993897934418385,0.404349325797092817857958,1138.19076555710171305691,1168.06741394131609013129,1148.69302775726691834279,1147.77349746338541081059,371.931521261694456370606,-294.127957344335015932302,1585.49606858073138937471,607.812280332381646985596,163.560405453347101456529
0.225000000000000005551115,-0.421581819148757641624314,-0.535388946334895421408362,-0.721628671589318204659946,-0.0265773125521213578192903,-0.0717344338690103500155715,0.0150394519159850609257845,-0.000724629467548694710526958,-0.00845121498925433152493714,-0.145138525877703594701984,0.989374726296491924237841,0.0338971782878319666254541,-0.0513237636477932857026474,10.4513045090272296278044,0.0675551543619607314239417,0.016962203310585295679136,1.0445923552758422658826,-1.46032605676610427458684,0.645632279137238418442735,0.406966474767579244886662,1139.24541233412674046122,1167.53133828784280012769,1152.62996915400299258181,1149.3067215540306733601,488.785432492795280268183,-57.4867597289539347116261,1509.40012909099868920748,603.678410673955454512907,163.552761079452096737441
0.227500000000000007771561,0.0211842705077005602487539,-0.333109196026730614015321,-0.747030026320376405735146,-0.026715382500841357293897,-0.0725273114435877747085968,0.0131224323185844156391955,-0.000763538627626329509216763,-0.00859106164976556480050718,-0.145138719724512949005302,0.98937348266049751632778,0.0351134836370824987561434,-0.0523336874103281918246822,10.4715500818901912083447,0.0674316652536791349970002,0.0167698217906917523833954,1.04615306025586596305743,-1.46019791785649810655912,0.645633685408876778488718,0.409584147672688025920706,1140.63469271956569173199,1167.77998014267132020905,1156.24002840272191861004,1150.79188951675519092532,691.355695346646257348766,328.174523890947682502883,1459.23930589365090781939,625.265315283103859655967,163.54523182731514907573
0.230000000000000009992007,0.526148917994139431186795,-0.0777489758296863453512771,-0.728487920845041436734846,-0.025266682610231641636922,-0.0728309657597545623275437,0.0109379921194658197292071,-0.000792644160895648593016805,-0.00871467668983491247636231,-0.145143526503255654303004,0.989371698197345161851501,0.0363691370667571095554038,-0.0529555482141637820503455,10.4918440826696315326672,0.0672753523809049708281904,0.0165938649553756048526942,1.04776323116201375285073,-1.46007326842245821474364,0.645636585912829130684543,0.41220305771464499366985,1142.70219081085997459013,1169.17221090729753996129,1159.92616568347125394212,1152.43304813044619550055,820.815636549240707608988,685.739702717727936942538,1223.34748328380442217167,572.077593272433205129346,163.536349443455918617474
0.232500000000000012212453,0.895919327309909085954587,0.141285915726300670414162,-0.677370180808519073423213,-0.0231604691105717457044744,-0.0728375668270006410009998,0.00939969743248185614359347,-0.000810906492731728700644467,-0.00882312987232577138063672,-0.145151513409001037269164,0.989369572206029390670778,0.0376531877993691588280001,-0.0531670056659220846562164,10.5121340584540750029419,0.0670900675750689123866266,0.016437314227991800530404,1.04942745895977163073098,-1.45995039770722123684266,0.645640309365316800160883,0.414823615552934676919961,1144.73877090231189868064,1171.20867865625996273593,1162.35676581914094640524,1153.65227748311735922471,865.660033970743029385631,951.70601923818969680724,840.444200493310859201301,458.400446453287770509633,163.529089546043934433328
0.235000000000000014432899,1.18649196902057907365702,0.363241347419550220099183,-0.594678682672460601210673,-0.0203226685692902316049402,-0.0726320817769394305729591,0.00800052893980153674580169,-0.000820003398073326935334426,-0.00891897403521868178954968,-0.145158103915024927488275,0.989367752334180505791039,0.0389882283201483381684938,-0.0530018774380715679273024,10.5323587679855688037378,0.0668829697572946163530716,0.0162975615155531196320826,1.05114983258456651249446,-1.45982793640450236871686,0.645644027417086485698405,0.417446338333947009058278,1147.0304909807136937161,1173.93074100348849242437,1164.12838668593781221716,1154.72505036271263634262,1039.16527961969131865771,1272.72521364434282986622,654.866593788346449400706,446.987440238535384651186,163.521995276427816179421
0.237500000000000016653345,1.42139146553743889178634,0.623858971774331250159662,-0.462708122738445304378274,-0.0160604177419824967198991,-0.0717559160792491101954482,0.00604638695870076715854768,-0.000822449781664343006377937,-0.00900463749145137895557589,-0.145156815011137058091251,0.989367168010891084861669,0.0403928662759515666458299,-0.052516215779218812509388,10.5524488955684301316751,0.0666605651495952716834026,0.0161700169399978631312731,1.05293379345219006992806,-1.45970497663193299331397,0.64564700569062360990813,0.420072474637714576850556,1149.9345973004103598214,1177.5723047244816825696,1165.63109878808268149442,1155.88721468431003813748,1064.7593422852473850071,1327.99380393290152824193,475.676639273481157488277,411.513057333697474859946,163.513693938232734126359
0.239999999999999991118216,1.51128466449139331473361,0.823464098405613742492903,-0.330033593154101689837177,-0.0118049646779998743811868,-0.0702392414023361028041492,0.00445292722688136587833041,-0.000820197247503357700949833,-0.00908278230574398499908018,-0.145146593765388215446777,0.989367950402233242712668,0.0418869174000771060661918,-0.0517588914367933319859993,10.5723283463642037105501,0.0664289622075762281605549,0.0160519838112031937304991,1.05478184123885365686135,-1.45958187748843637443485,0.645649128807786576444983,0.422703421358223863091297,1152.35428769213990563003,1180.57071002315296937013,1166.50676988230520692014,1156.78261564938111405354,936.170163510409793161671,1112.73741267555647027621,304.594318287173848602833,346.04662687938957787992,163.506966073006623219044
0.242499999999999993338662,1.48796257373881912755564,0.984203666147847489042988,-0.18765381295657090898743,-0.00729246916644863373002661,-0.0678847528983185094508812,0.00347580297625135715630651,-0.000814620026528612589146461,-0.00915489877069750566940254,-0.145126198603492156946615,0.989370270286262787351461,0.0434626626973765306516384,-0.0507743624976385449221183,10.5919160567489107904748,0.0661913409232641747337311,0.015941568449604631013683,1.05669564792567460820294,-1.45945946236021861786014,0.64565093814617813272605,0.425339083256963679247065,1154.61544811796238718671,1183.13599178785943877301,1167.154070379518543632,1157.6174478187069780688,926.289953905506195042108,958.517788819471320493903,257.531855168099127695314,351.350862568096715676802,163.500449563579934419977
0.244999999999999995559108,1.34284715125457654316676,1.10817406375900873172213,-0.0321526018780151495723985,-0.00251379413336887775828887,-0.0641988844009114267841198,0.00314113348932650113948251,-0.000805861887471968256838051,-0.00922597955157602317433074,-0.14509716201761968523698,0.989373860541748584296329,0.0451821169433461733433433,-0.0495745875003841887651568,10.6111280647434753632297,0.0659575878165770818073455,0.0158407997154972300657416,1.05867541194641345825289,-1.45933747222428467082977,0.645653151383216439285206,0.427979059806210593297493,1156.98573746166744058428,1185.36329896725032995164,1167.79442915814570369548,1158.53936996222159905301,793.833953855391200704616,647.024903111650360187923,219.776698894383827109777,321.991616242484894883091,163.492888376215859125296
0.247499999999999997779554,1.14495000663035106924781,1.14180071247705616777068,0.0624599531929522430728774,0.000642078389382133986156009,-0.0607515057181659753893221,0.00355630643415132683196611,-0.000796963873699637844784383,-0.00929994911408833779820071,-0.145060472701029924413874,0.989378542596508814277456,0.0470948957535923667938604,-0.0482387821009497494428864,10.6298798547488786425674,0.0657362364725751630034623,0.0157452344052366466353732,1.06072049599026385635625,-1.45921615319596953419534,0.645655771997509342341459,0.430623909248161906848651,1158.58461788723934660084,1186.37111630341769341612,1168.25295387399046376231,1159.2274058999194039643,546.647149091813389532035,227.449432077764669202224,165.085406191110308782299,257.030655806692948317504,163.48681187217951560342
0.25,0.897972550405794378569624,1.09959624503948294460542,0.0974885492431740302565757,0.0029631624238189865037929,-0.0575922939611336198728608,0.00476756817875844014775755,-0.000790110319358591447515272,-0.00937974990110855208480523,-0.145017430461200136360134,0.989384102475692750466862,0.0492291572200260346692247,-0.0468343524520228732255234,10.6480894137359349826966,0.0655335158943285422949998,0.0156519958542331791284674,1.0628293230907712718647,-1.4590955875627567017716,0.645658629928650307228111,0.433274369978281337356663,1159.71897320712650980568,1186.50054612763915429241,1168.61985618910125594994,1159.82452324125506493147,371.232156065343247064447,-68.8449860296713609386643,123.250423892977664763748,225.250457664514925681942,163.480977384363512783239
0.252500000000000002220446,0.633903488462100539457822,0.999871645636472350382462,0.0740451153326319583269921,0.00459218091665209576790474,-0.0548782249667997060194047,0.00641643217334332115892037,-0.000781535204674320437868984,-0.00945931300074233025187986,-0.144972136338546941924932,0.989389998722225660898744,0.0514069949875182036214127,-0.0453339695712374410319079,10.6656808718429552129692,0.065334799629732154269135,0.0155683835551881123715479,1.06500040078597546511219,-1.4589762844185010237652,0.645661165159628680498827,0.435930498772737318180504,1160.44077866756606454146,1186.02689137326933632721,1168.86920599345535265456,1160.35365818824197958747,191.400316456019766064856,-280.814391427338478024467,59.2557060740545651356115,200.026560895594059275027,163.475349074133333715508
0.255000000000000004440892,0.375263034056717015296556,0.842470499971696762386841,-0.0123582608764565352044151,0.00534836385645959082324463,-0.0526384882399470385716533,0.00778176077338595811871969,-0.000767045749456802769018771,-0.00953689237629176331245695,-0.144929946709767137891234,0.989395462997015417982993,0.0535421383554407492866289,-0.0436894439260655728651805,10.6825861948497706777061,0.0651343230369848674721212,0.0155042525042172110033567,1.0672306344648572196121,-1.45885851763171414674503,0.645663150469719115953637,0.438592040497323976122601,1160.67597478940660948865,1185.09647417050246076542,1168.9161347194715290243,1160.82465604573303608049,8.64385310969736764263871,-427.71195038690126466463,-36.9685740110980631811799,201.930717999039018195617,163.469974596143799772108
0.257500000000000006661338,0.0981979438978225760426,0.604198254733058215393271,-0.15270513270974828134996,0.00543941983719857524715025,-0.050435274727420847939996,0.0080168726186841884895351,-0.000747376287283309671122256,-0.00960906535553229107504691,-0.144893304034984155004295,0.989400166876606812493833,0.0555303993756157271421969,-0.0419623814342990342218798,10.6987476634397911112728,0.0649243317404220171562557,0.015458302014781103578267,1.06951622082895725363016,-1.45874242605760562341288,0.645664393702117367368487,0.441259677312738907151157,1160.4839979331145514152,1183.88833162133482801437,1168.68436312339986216102,1161.3633117782371755311,-124.129914195964261125482,-392.449571067208694330475,-134.371844968927575791895,199.386449652410931321356,163.463824070354121431592
0.260000000000000008881784,-0.091620542323707920839837,0.37822139775478902379291,-0.262065093211325927935462,0.00498016891975021098321053,-0.0490717519018794220975188,0.00692636217223414289018146,-0.000726060524387876489275928,-0.00967058083348533610579256,-0.144863666129425527895336,0.989403943084237180727314,0.0572402177453966154452303,-0.0402799320843495040067594,10.714120353829978071758,0.0646939638626981006197525,0.0154225360208183285420924,1.07185267698535890978917,-1.45862757292131695052717,0.645665277021752470609783,0.443933988376955523946776,1160.05532521842678761459,1183.13422631516641558846,1168.24427549462689057691,1161.82158829399509158975,-183.416773196313272364932,-182.844996307403391710977,-220.931508154171552860134,192.569123255588976917352,163.45895094322358431782
0.26250000000000001110223,-0.231120790759049676843517,0.142398553276006645251783,-0.3199924098816618323049,0.00395682660324830036413513,-0.0482646156047558325119518,0.00501241601196812398139047,-0.000707695555923610469806206,-0.00972213340563185882126085,-0.14484237632439964094111,0.989406583032136466293593,0.058672474609329908212807,-0.0387734290109537360624614,10.7286735222780578169477,0.0644451421800094764735789,0.0153883003284204910449118,1.07423389609335617755903,-1.45851360918273020850222,0.64566588604838437426281,0.446615810534739143822236,1159.56691406713298420073,1182.97410663979781020316,1167.57970558262900340196,1162.32615739451512126834,-168.61630077646609038311,112.151235515329872782786,-329.641020501594255165401,240.405006673654270343832,163.454342907287724528942
0.265000000000000013322676,-0.343130855347585361769802,-0.126475208557530305331085,-0.298632863410529192371712,0.0024488944318847177296361,-0.048145612520258840305587,0.00261202440111019552199112,-0.000697865239353656131339465,-0.00976763847642728513798183,-0.144828748445465421701428,0.989408144039689130266879,0.0599032499835738113658223,-0.0375839278885525540641055,10.7423919248858243946643,0.0641869594076633076529248,0.015345316037921509152997,1.07665271302393850127999,-1.45840017743466865418611,0.645666184481527349880992,0.449305618987417776377669,1159.21224371454445645213,1183.69498249274306544976,1166.59607039211891788,1163.02361332736336407834,-50.7629081164850077811934,421.981307172836352492595,-378.117770592052352185419,275.35742166783143147768,163.449122585056244361112
0.267500000000000015543122,-0.400715969218720824418511,-0.318058489221494655740941,-0.199559636766876463687126,0.00130749022060718564190729,-0.0489275301996521805314444,0.00103107830916350485216115,-0.000701694644923255526902661,-0.00980986381176625864275476,-0.144824945274501210024098,0.989408278688615139273566,0.0609871119077633194738297,-0.0368444946720588722977041,10.75527673446899079579,0.0639259008555037588905634,0.0152838716462946437590897,1.07910174786662693691142,-1.45828740850066229661763,0.645665829195522289474241,0.452004150763172518612265,1159.31309952655055894866,1185.08401317566199395515,1165.68911672966873993573,1163.7029445028542795626,154.513471313566554954377,692.584227526367044447397,-361.910688170882735903433,294.219997448953733965027,163.445031610704774038823
0.270000000000000017763568,-0.440452173902696475504825,-0.452770141047285690216739,-0.0281435952715494881737346,0.00042198182778346870775571,-0.0504986618338574833053656,0.000174494931290201531247711,-0.000720807178559301851145102,-0.00985308493210219557556506,-0.144831260508074211035279,0.989406901518167569697937,0.0620036110491570535696582,-0.0366050695399547168507048,10.7673452963744793464684,0.0636707721393703629519933,0.0152015865542053721370941,1.08157337371233186473773,-1.45817594677553841187034,0.645664342616766195881439,0.454711429174812220566082,1159.98481107111228993745,1187.15790363037490351417,1164.78651695126450249518,1164.49471331460813416925,367.842074162581070595479,902.969796558544771869492,-343.711949609587179566006,334.265099726780761102418,163.441210963419251811501
0.272500000000000019984014,-0.480893690353540292914403,-0.52840655245158274500028,0.184162640428897406152942,-0.000295003979759714230705209,-0.0525360741007169784744235,5.99972238950013243391187e-06,-0.000751354103873486827737394,-0.00990310136952284557343429,-0.144844947959983316732036,0.989404361160540202213554,0.063051313233768571664406,-0.0367883967872305803203936,10.7786302353119740615739,0.0634322350971302656441608,0.0151074765281616636009021,1.08406009280038317932338,-1.45806545241329987838697,0.645661811554823161785066,0.45742730935161829419755,1161.15230989736346600694,1189.59886215845472179353,1163.97055698162080261682,1165.3742700014881847892,566.263572694560480158543,1003.18256385730728652561,-283.246763797569428788847,370.021156551183253213821,163.437614913565113283767
0.27500000000000002220446,-0.537113095154923225749144,-0.529841374922039642925142,0.415659095679096479702963,-0.000916863221155868974784897,-0.0548304328165263726857503,0.000737111113968506219754073,-0.000788912982455480262487801,-0.00996333720304498279829453,-0.144860345479031260573777,0.989401458482488727064208,0.0641796195104542416265403,-0.0373048377408440531843858,10.7891777857902102510934,0.0632160279094010485456678,0.0150101745727911732586346,1.08655548523967260265977,-1.45795587817698768517971,0.645658481775921999634704,0.460151167490301937768038,1162.81612893458509461198,1192.17381644966144449427,1163.37028313227665421437,1166.34481909736405214062,794.924061045957614624058,1084.7071677183057545335,-186.551458017902234587382,446.522882838825864837418,163.434289670081909662258
0.277500000000000024424907,-0.632206912488674888095375,-0.460539599870066762576926,0.674036701373975200013433,-0.00164969222683390096678702,-0.0571113566778505901688767,0.00271288732394330336927801,-0.000828398828714082212897052,-0.0100333157388071692039944,-0.14487144932958570531234,0.989399085331123306907841,0.0653554439946529286409316,-0.0380543107178926490186122,10.7990456021664922303671,0.0630195681622515574415999,0.0149177721577320922946575,1.08905471307751500198435,-1.45784744513444919356004,0.64565499656035130193743,0.4628820824062767069762,1165.12693020259325749066,1195.02239799704625511367,1163.03779969153129059123,1167.6068844156823161029,852.02840054876025988051,956.516437014715052100655,-41.0444878369161969544621,481.311217892516197025543,163.430611741662090707905
0.280000000000000026645353,-0.731609347901108209022425,-0.366666737337370429727912,0.845235405599718991886959,-0.00237958880290446532501658,-0.0580462070518204531488493,0.00520863999448997055941035,-0.000861711227327280619887884,-0.0101066117938242387014336,-0.144874721450553411994377,0.989397833105750024174085,0.0664115404470611292442328,-0.0388816440519265185682407,10.808300229831518279866,0.0628266252194577823342314,0.0148424666819686728452821,1.09155495300481453213592,-1.45774053993602170642419,0.645652976813394063881901,0.465619702544206370831148,1167.07627093732889989042,1196.95639863473502373381,1163.16506069309207305196,1168.75137518682663539948,729.070095907717814043281,645.808364841604429784638,145.899616003680279163746,481.497693525988779583713,163.427806109501489117974
0.282500000000000028865799,-0.834625404278752758280291,-0.268225498383594496143445,0.946128507187725231730724,-0.00373478927370005358427063,-0.0580924996553403849564035,0.00819846332231445248939217,-0.000888102184600975878663032,-0.0101771808241760981089685,-0.144869420503160234448004,0.989397870804997081606302,0.0672137518166955050258338,-0.0397777222699814900219728,10.8170126206922212475092,0.0626240834561143100422953,0.0147802555384077220074213,1.09405478866561867157259,-1.45763491958337110254718,0.645653977177071625170868,0.468363107752645335679631,1168.77228068213184997148,1198.25143982125428010477,1163.76729777154969269759,1170.01437288331226227456,639.750239403473983657022,411.142105904491131695977,374.827987185562619742996,582.462011933284316000936,163.425267898085792239726
0.285000000000000031086245,-0.927694396968377743561973,-0.175023115604707707460008,0.973749369659687724620767,-0.00653602164758025107327288,-0.0578667866653520546194045,0.0118731028667648369490095,-0.000910119692667237401711988,-0.010243702418874388662684,-0.144852982881432140738198,0.989399581994408028329246,0.0677410867934989391336842,-0.040778617435894323750567,10.8252543951447144365829,0.0624101092701613638369373,0.01472072797709046351744,1.09655361509020821131344,-1.45753043863252207401615,0.645658277092780563677366,0.471112467704333348628154,1170.27502213434627265087,1199.01210916425748109759,1165.03920062901988785597,1171.66368524649305982166,445.657700972833083596925,159.723808235594191273776,549.116023486657923058374,617.964511667650526760553,163.42252852120748229936
0.287500000000000033306691,-0.952406108233794790329796,-0.130161064939308318555433,0.921224206418237101523516,-0.00973004709540551890323279,-0.057846997741681643878664,0.0148016982250910294344193,-0.000933076101762355183955044,-0.010305358472369905917243,-0.144828123577328354842919,0.989402568968403173244042,0.0679944037079007607138337,-0.0419686307063234093073234,10.833094624608435196933,0.0621845728931022107000004,0.0146479510173371119813313,1.09905213495783637966952,-1.45742674653164150377904,0.64566523271239062431448,0.473867676211124744245495,1171.00056918699601737899,1199.05005886243225177168,1166.51287788898298458662,1173.10419544165051775053,186.3270355883761055793,-72.5096374726497856499918,654.724433106100491386314,567.319742345313329678902,163.420498706515246567506
0.289999999999999980015986,-0.899478099802258901362961,-0.124393638459421390640713,0.804904122527806631381964,-0.013007137877856175117719,-0.0579338353202791395135662,0.0172802110555206819841878,-0.000960048636080051932470414,-0.0103630862069651105000778,-0.144796842179131607375453,0.989406523672276883019094,0.0680072950323221542268115,-0.0433692673410681212020634,10.8405966503197142003501,0.0619502673946476026256569,0.0145514853102182550176336,1.1015520769345952256657,-1.45732336434939857561233,0.645674341444689159352777,0.476627789572640458981567,1171.2066573122881436575,1198.64956097689423586417,1168.31282279455035677529,1174.50028395821959747991,5.29081502068043807440745,-220.71608129304192402742,831.322328420546341476438,566.859662958683088618272,163.418728129772290458277
0.292499999999999982236432,-0.740903804109674046785017,-0.162001963097934020829882,0.619900065529814248144191,-0.016194020347841234924724,-0.057943000159900386047962,0.0194376760275803868449618,-0.000991815966248401877439211,-0.0104185157848081296622089,-0.144758130987698518943319,0.989411574129588800019519,0.0678230939390028209068362,-0.0449420441002338841296471,10.8478151545852838921746,0.0617106346149435408543482,0.0144263692093845596886581,1.1040561877595875817093,-1.45722011786156846468998,0.645685224531633128464136,0.479391958898221837159781,1171.02702326209941929847,1197.94647845596705337812,1170.66948953108567366144,1175.93849375644390420348,-99.507910523425294968547,-252.583040610124726299546,863.537402320797923493956,459.015319281888480418274,163.416898603896925123991
0.294999999999999984456878,-0.537945021504420028968241,-0.226126736194918048772351,0.452171011756631713307542,-0.0181858599145695576382309,-0.0581588378804063430016491,0.0205339776679453085705962,-0.00102818885058784340730265,-0.0104757049155891710651156,-0.144713612360859611438713,0.989417439259929754058476,0.0675368634877205470390393,-0.0466140541109918288276148,10.854793386561162549242,0.0614738688878699868212152,0.0142716960474199641706328,1.10656776766994169314273,-1.45711738746644448028178,0.645697189103808355525871,0.482160197987281102793844,1170.70911775967101675633,1197.3866457738436110958,1172.6305098061543503718,1176.79536055462904187152,-113.64081326992153719857,-178.333874632516938163462,738.882632851390781070222,244.366394711914608706138,163.41561626209269775245
0.297499999999999986677324,-0.280829549445180071121086,-0.314409423766060569516156,0.298329352232876376938009,-0.0194965776254901676511899,-0.0589456174599662374724574,0.0209803014461357045794543,-0.00106756426197966410376883,-0.0105371530779369854818883,-0.144663688780313298698488,0.989424034878639058199212,0.0672083048720650277907396,-0.0482827070431801758099155,10.8615616675712018945887,0.0612442374466265482269023,0.0140901715849425929194538,1.10909084030950788601899,-1.4570152371110225431039,0.645709468575594414119223,0.484932625959307916918561,1170.45881919574981111509,1197.05480908280446783465,1174.36390269534263097739,1177.16032573000347838388,-57.2453002875135510407745,-78.784947480335105751692,622.370331751562275712786,55.3491431556266846314429,163.41458063843236914181
0.29999999999999998889777,0.00166388063956446341506989,-0.414538906683768637595477,0.173078647290676568282208,-0.0201343925215177292631363,-0.0600747889793399048041778,0.0209424821664809975019228,-0.00110512517750190790780107,-0.0106041678865815107435377,-0.144612192602125627649556,0.989430791078145577266412,0.0668643036744484137168243,-0.0497790885290964602027941,10.8681363367887531268252,0.0610221988060867248648833,0.0138928118431474838245787,1.11162974723968566159726,-1.45691287759734033890879,0.645721471696513060756217,0.487708865643971034575799,1170.42289125823344875243,1196.99272103644193521177,1175.74236146491216459253,1177.07210627040717554337,63.0496304190273235690256,38.6865821443279500613244,433.292657708306762742723,-136.020852074579920554243,163.413745980836750959497
0.302499999999999991118216,0.286411870082061148501396,-0.522053163730676006437648,0.0949890451258824930480529,-0.0198673074034533339582431,-0.0613271739245291186426456,0.0205153542598561708376614,-0.00113767283936624594153919,-0.010677732967404790498378,-0.144561045059948767299574,0.989437420325684269251099,0.0665322900460757482576923,-0.0509711964539007814090077,10.8745188547327824579725,0.0608081136224259341527265,0.0136881442719257277740308,1.11418873098145265743142,-1.45681061499035613415742,0.645732838971447731246656,0.490489470640299185522082,1170.77406734784494801715,1197.24824199352610776259,1176.53036598388416678063,1176.48022146963057821267,257.141297458474355153157,158.872029507892733590779,187.319494802886595152813,-340.377140532291093677486,163.41314923074349962917
0.304999999999999993338662,0.590716692556338962560858,-0.654509058275284827388418,0.0588821922884828763411491,-0.0183843552388459237356688,-0.0629665204687563234697834,0.0198921787790384933802823,-0.00116373041178059809068468,-0.0107591195338693941530028,-0.144511076552175626863672,0.98944379176881613879857,0.0662536864306154382742164,-0.0517673244326515014090972,10.8806960323579993143994,0.0606037741936563956191009,0.0134822068374836085552504,1.11677152376889488039069,-1.45670931446194362735014,0.645743325553720048937123,0.493275774809966482958856,1171.70859774552582166507,1197.78708118398139959027,1176.67895893892659842095,1175.3702205677457186539,423.353873325413189832034,204.641543213074157847586,-76.7942396085799572347241,-433.177342834732883147808,163.412702397503579732074
0.307499999999999995559108,0.784499927010161024476531,-0.764724456627027149302478,0.06897529313745960621862,-0.0161327515636297443013536,-0.064445902086766551630781,0.0194908598461290584469285,-0.00118256147147197381713779,-0.0108458574697049905943835,-0.144464122921261095555678,0.989449668964755169042746,0.0659940596357514591696614,-0.0521106783226396863550889,10.8866414657154386702587,0.0604032295518932421662939,0.013279498667890283700177,1.11938161706587924193457,-1.45661039882598819517057,0.645752161905750909909329,0.496068233934797431228247,1172.89083671447201595583,1198.27144970959147940448,1176.14639478584126663918,1174.31433475545691180741,535.653179723976336390479,161.266796194240527029251,-324.04363359073585115766,-396.11550021863843085157,163.412550177187569033777
0.309999999999999997779554,0.888920254191543968147471,-0.869236037513263282150433,0.101078432148582336713716,-0.0129943950825917933777909,-0.0661511179991386005783127,0.0194695161791201623580072,-0.00119477922736294919422995,-0.0109343648459535921352304,-0.144423069728082192897389,0.989454673599041489850947,0.0657013259113509856534918,-0.0519866665900814983736211,10.8923169105020889446678,0.0601987141559504057575225,0.0130822528858712365529282,1.12202182178778486765225,-1.45651423674687685583251,0.645758978842126962760517,0.498865987879307859476086,1174.38686364414570562076,1198.59341516495260293595,1175.05874077097291774407,1173.38964306665252479434,689.880052343323200148006,70.6402338701536223197763,-553.328201126805197418435,-324.465842265544495148788,163.412621350825190802425
0.3125,0.897810860011634570554406,-0.97692629042876799605466,0.134187165675734632053206,-0.00892374378248852670458824,-0.0686589561159287875558022,0.0202030039727131849325303,-0.00119637488906240772694456,-0.0110204748079040567437792,-0.144388569106264602615042,0.989458761785984686198958,0.0652978065126178092159037,-0.0512939236935719758414542,10.897674968023959962693,0.0599798235353826564297819,0.0129032482210355119167655,1.12469402251160444095035,-1.45642089610693981072131,0.645763960109927204200631,0.501669261482763251258632,1176.34023697618863479875,1198.6246508789422478003,1173.37975378020723837835,1172.69200554412918791058,704.336592271692325084587,-57.0611989913231312243624,-630.274773200152935714868,-163.721332987097270006416,163.412959053533029418759
0.315000000000000002220446,0.81539282043080929529566,-1.04118423054946984684932,0.135507515558994928728254,-0.00592414713196434249836697,-0.0711450023324369240640408,0.0214021038285501473408257,-0.00118733155976888816313108,-0.0111094910131946666975722,-0.144363932418953178071774,0.989461384480519012818434,0.064924557937355090175835,-0.0500002582677110257725062,10.9026600542728218101729,0.0597584456313848683128853,0.0127501195674140834629418,1.12739785913100609704429,-1.45633036212405109210977,0.645767054341556567820248,0.504478594970313332090939,1177.90854660550417065679,1198.30810916999598703114,1171.90736690497215022333,1172.57103640171703773376,565.737026114220043382375,-189.860932149076518271613,-547.79134373393344503711,54.6909308062367429670303,163.413446328219976066976
0.317500000000000004440892,0.66664229248977180386504,-1.06600648467263980911923,0.0937681407194685956341118,-0.00376339596362279885100044,-0.073914188070796887908287,0.0226276458444502545641619,-0.00117063037618502429823564,-0.0112063617499277116962286,-0.144346851991512037383103,0.989462810924357061281853,0.0647257848059770574122851,-0.0481516590016309101174308,10.9072121819039686840824,0.0595467763137108724302848,0.0126231846430125554947566,1.13013179850781964042028,-1.45624255382446410322927,0.645768542998945149768986,0.507294783067672061527276,1179.16892210675973728939,1197.67534621819686435629,1170.64079706153756887943,1172.96546019816037187411,434.314695830243692853401,-325.125124130999836324918,-455.848458590480333896267,278.637115154014963991358,163.414141915490006340406
0.320000000000000006661338,0.456745214983917902085153,-1.03875556781939426542749,-0.00527412950228761320814463,-0.00241266958614430680057916,-0.077512199332495743120397,0.0233677453217796884943347,-0.00115190552310279322942299,-0.0113161152859787405428049,-0.144334916294716147922017,0.989463323101828162720039,0.0648575237126122888797752,-0.0458642796461451313083657,10.9112699354607496360359,0.0593578932939871004026422,0.0125165111671142279675673,1.13289303676554831135093,-1.45615732876483061630779,0.645768493478713900834975,0.51011872771193522702049,1180.08012008465539111057,1196.68248354934098642843,1169.62812461201974656433,1173.96422197748711369059,212.112761590651444976174,-379.146560499929933030216,-259.352899425811983746826,432.880150083019145768048,163.415210796591196640293
0.322500000000000008881784,0.289994394561749413430363,-0.965290033973120631394238,-0.11774573611226113456496,-0.00232462522852207613063835,-0.0807047766333821026130124,0.0232395102529406420710512,-0.00113735762703976199181066,-0.0114401203334692780355653,-0.14432636983446131551112,0.989463149582081369359798,0.0654002117524488252309212,-0.0432905521415549374153464,10.9147738583409505963573,0.0591965308530617156934639,0.0124210953892246889901374,1.13567801359703479668894,-1.45607440091736073384254,0.645766618976404860319462,0.512951549564962472338436,1180.22948591471299550903,1195.77961341569721298583,1169.34403256440850782383,1175.12986094857546959247,-69.5042781855135558544134,-349.764867791281801601144,19.3850429167014048914552,503.993463620462989638327,163.416291440143623958647
0.32500000000000001110223,0.163810387921572486735755,-0.845846712850590320975641,-0.244127384816629988684156,-0.00297358176067072160417282,-0.0834618877113688512059397,0.0226109503045525753184286,-0.00113218550635893542948007,-0.011579417659036226467828,-0.144317016399402309190236,0.98946288154175188189754,0.0664251518374572441638648,-0.040572889099916693844694,10.9176689282230388045036,0.0590659612461891525558855,0.012328889165170369562885,1.13848222118561270832515,-1.45599294013424973570636,0.645763278634539417133453,0.515794649764625412480257,1179.73259869372782304708,1194.93365921038457599934,1169.7250498266032536776,1176.48418929558943091251,-289.469465810361441526766,-312.105224064680157880503,262.500781033258817842579,548.473323427969717158703,163.417562490112629802752
0.327500000000000013322676,0.0829505660952945950148418,-0.702201810857714492364323,-0.370202240633537293934552,-0.00374694950323435941805239,-0.0853338914087738570346531,0.0218048689730338425551981,-0.00113890184596056212411319,-0.0117316827530675668600502,-0.144303839114389181874643,0.989462981549610764986369,0.0679234377312805531756723,-0.0378154146370627206041881,10.9199071249093737634439,0.0589604837388391922470277,0.0122357184098383451470449,1.14130095348932436571943,-1.45591158100071593750613,0.645758842488387885261147,0.518648114537274884661144,1178.78213858566118688032,1194.21908729537381077535,1170.65653646957480304991,1177.872227565715320452,-450.73000389052100445042,-238.853448327972529341423,488.065799985042303887894,536.005870305916232609889,163.41898607213670402416
0.330000000000000015543122,0.0539760997213266924266151,-0.550714122580534093387428,-0.483579081583112579956207,-0.00405416658069241656742188,-0.0861644141309392819216839,0.0208951753073262358473272,-0.00115632870049949313361048,-0.0118942670155801830111919,-0.144283439895401183195034,0.989463977449188236690247,0.0698676925003971910355105,-0.0350500281298196450507909,10.9214489101742486809599,0.0588720629075573931299203,0.0121443122520164693139977,1.14412941341033547182349,-1.45582925904838744735059,0.645753693709261944455591,0.521510853041687427733564,1177.47894867427521603531,1193.73939196874471235787,1172.16537882652846747078,1179.1642186471190143493,-590.102656852604354753566,-144.410334869735237361965,753.757869907757822147687,516.421205262030980520649,163.42058666735124461411
0.332500000000000017763568,0.0614507335880806124239761,-0.380357259185743257212664,-0.588477255489372796937175,-0.00363422531060383219303489,-0.0865775476387724562954418,0.0195614422310581397013163,-0.00118150727197074674815203,-0.0120617321113859685133285,-0.144257013320357230234947,0.989465763253995600479129,0.0721641023621591021219857,-0.0322836630830093049282503,10.9222644945414817385654,0.0587855332130994279182801,0.0120596431011620475876045,1.14696342912190907270542,-1.45574513501406266335891,0.645748629903945992047909,0.52438127432136072414437,1175.83162530139816226438,1193.49703562102513387799,1174.42532581911359557125,1180.45433359202547762834,-568.652362158354208077071,-30.6617495135469368960912,860.03588379044151679409,412.832108739985073952994,163.422702526823513835552
0.335000000000000019984014,0.088326819995014085873386,-0.252889052886452081470026,-0.635821982962095355595977,-0.00301970749295234512296626,-0.0868094664510457025841106,0.0180682890209189067620699,-0.00121184311208724420846905,-0.0122293454199896081679988,-0.144224647730322896865829,0.989468387938985838303552,0.0747330453563889302026624,-0.0295301733406297603479196,10.9223341177584476469065,0.0586877376210894613484115,0.0119847730123399057872158,1.14979926348704797334221,-1.45565887839668972603135,0.645744265961819996491045,0.527258896521318520811406,1174.63568686348344272119,1193.58608322117697753129,1176.46555824548067903379,1181.22837919081894142437,-392.611594509844167077972,90.3732942757868897842854,792.151700346538973462884,234.086256274849603187249,163.42462103514250770786
0.33750000000000002220446,0.124966409425652597020573,-0.135396572874811049747024,-0.62362070157518378898942,-0.00261484457104656795381481,-0.0869980488912451555005845,0.016021059985685218163276,-0.00124264634885977963418835,-0.0123908145101115814423753,-0.144186920425081299690362,0.989471853993505345847836,0.0774508429663876285520274,-0.0267621607418568330238884,10.9216487077092416768664,0.0585620024123893398448892,0.0119260310984369514303305,1.15263392159191990771205,-1.45557068619769647277451,0.64574151160098258728226,0.530143141090517855396058,1173.86856732884893972368,1193.94890209240406875324,1178.38608432084629384917,1181.62476487339972663904,-206.271027560887716845173,204.717736090196751774783,760.744035411561753790011,81.5234512770984309781852,163.426691762240579919307
0.340000000000000024424907,0.172822757431233819946925,0.00840405976189376874296855,-0.525563567205613479949022,-0.00244782351020060486707086,-0.087223796420505553261826,0.0130923754957240345841996,-0.00127223366585357800483125,-0.0125352513557823990603124,-0.144145971987412302439679,0.989475991125014053828579,0.0800983686356218776980498,-0.0240288792375638812770511,10.9202100119202825112552,0.0583832636133370386222197,0.0118807527524002112112589,1.15546548934191894986157,-1.45548249131509188636358,0.64574084362842087969625,0.533032832202167350388322,1173.60433172567900328431,1194.60967190162796214281,1180.26927842253849121334,1181.63599644720443393453,15.4013408513946927769211,259.357295220615696962341,593.086349960912571077642,-71.1971756982620149756258,163.429342740838166037065
0.342500000000000026645353,0.210080242699727942623511,0.142684539971701301874774,-0.375010450541773454613548,-0.00233092511495672444557514,-0.0874255627163945253643718,0.0108413428180796286848242,-0.00130110151147853816272493,-0.0126537921518355585270843,-0.144103646469500051852108,0.989480645919558421397255,0.0824994939406576838214491,-0.0214154979708338147337265,10.9180297172248916837134,0.0581331565801154123707128,0.011841438629474218546811,1.15829214714163652999446,-1.45539620501991584511359,0.645742495469614485870125,0.535927137837744482773417,1173.94557403310591325862,1195.24568856850714837492,1181.35151607065085954673,1181.26877899490841627994,233.81052066342797957077,240.802646740075715570129,320.240386281875260010565,-215.685311259448809551031,163.431683727778619186211
0.345000000000000028865799,0.233043561125722248350556,0.302967720460969425211317,-0.172275557962748071538783,-0.00178054401991741191070562,-0.0874812835095179763822415,0.00981929199590699484934131,-0.00132634822648694918403867,-0.0127429545796227915166465,-0.144059115062879189439471,0.989485989925483533369288,0.0845741232564703043772525,-0.0189104614929845524229357,10.9151286681234491737769,0.0578059684766229625596523,0.0118097434529053739449278,1.16111142927631805221722,-1.45531347994533977185938,0.645747068414233238442534,0.538826599934625893872919,1174.77338432899614417693,1195.81368513532834185753,1181.87048035394786893448,1180.55756989090718889202,433.150162513311045131559,193.182302064269435959432,109.984484540154781484489,-373.566362763267193258798,163.434154448625804434414
0.347500000000000031086245,0.227533790983290379328352,0.527966643357934528602016,0.092994028804708583901828,-0.000453768037772196459068291,-0.0869619168720617008450091,0.0102480317409827850066995,-0.0013474250415614699456085,-0.0128053438054980209953593,-0.144015521530522244697536,0.989491533673655276892589,0.0863700006374682333065707,-0.0165279655121174373633153,10.9115357387159672697408,0.0574118982962703028327667,0.0117844332601024920359478,1.16391987866512902627392,-1.45523518975965426847097,0.645754842545708807044491,0.541732110367633468150927,1176.1113248456724704738,1196.21160007882849640737,1181.90143849335163395153,1179.40094718109207860834,507.862328234113647340564,69.8718025490961167633941,-64.9309964543135151870956,-456.274852575688385059038,163.437261976030924870429
0.350000000000000033306691,0.187363460234077822130772,0.736384637786345774834729,0.305042614088469721256303,0.000949682014750532371184788,-0.085652737038735493602104,0.0113249770782869307178542,-0.00136005825347882986636749,-0.0128476614825548344361872,-0.143976747219758838269854,0.989496632541161713625399,0.0879991236565538514913243,-0.0141823837624919270317125,10.90728732510122078736,0.0569701878890846100111922,0.0117746960645381364141127,1.16671306435594823724955,-1.45516153745060217161722,0.645765716115509147421392,0.544645444073701523457487,1177.31269597016671468737,1196.16304414807382272556,1181.54582537167630107433,1178.2761956280287449772,447.900363360899973486084,-124.711890480013067872278,-184.624134699199260012392,-457.410689271732849192631,163.439965728728054727981
0.352499999999999980015986,0.112866802185050990603443,0.952944863272657372021968,0.484409476612591705091404,0.00197391358367455128225432,-0.0833396694619319977626049,0.0125603079578379545067079,-0.0013601532398402173609786,-0.0128770989674903101052106,-0.14394695283087619031015,0.989500595744309929813198,0.0895715129374002605455729,-0.0117843543989703172097938,10.9024265560551789633337,0.0565016353992052050569939,0.0117902228355108908836035,1.16948605347832956802279,-1.45509238303803911662726,0.645779372882454349991121,0.547567701754182900586443,1178.35082666247694760386,1195.58804062642843746289,1180.97831781985564703064,1177.11389373473343766818,354.391695313510354026221,-326.408373801362984067964,-233.083864796847251454892,-450.20058748655634417446,163.442783012777908879798
0.354999999999999982236432,0.02187053695026030739057,1.16647175059942420638492,0.625114858597478173507511,0.00234223237160191772102125,-0.0804967995138983205549721,0.0139463336919689821075119,-0.0013488304273947316659632,-0.0129032812058617815664796,-0.143928628221022675282015,0.989502936850583436623197,0.091253161746063821135877,-0.00934383006795221071616453,10.897001521126327361344,0.0560343015236502220433046,0.0118302309429082312675074,1.17223346513198811713607,-1.45502759686425298113477,0.645794749732688355692289,0.550500404131748055647222,1179.0846544467342482676,1194.53100227906702457403,1180.38040604769207675417,1176.02519269059598627791,193.465601114439607499662,-532.628029209217402240029,-217.848789365143403529146,-393.597761587033915020584,163.445691265893941590548
0.357499999999999984456878,-0.068060603617994527847479,1.36900652930916466587519,0.708093697027073143424047,0.00188604748062764517556322,-0.0774847150832107256501757,0.0158307172830742665103898,-0.00133224005964973930132844,-0.0129352602373262477036819,-0.143921362344179265546629,0.989503591640175539367874,0.093201548555061880518835,-0.00697616147558828038344192,10.8910639515816942690662,0.0555960667477233341782217,0.011882784351180905937917,1.17495026283798620347909,-1.45496596730495664218097,0.645810547117443123354974,0.553443640680466808490223,1179.31815466804914649401,1192.92490048038234817795,1179.88907387302992901823,1175.14590492679826638778,-19.2295983312305729384661,-802.612028794009574994561,-169.408529221391148666953,-315.255904288733006524126,163.448705987791413463128
0.359999999999999986677324,-0.150349457257316521108237,1.59251943011613961154183,0.730366609361494667496117,0.000737776488996449444045245,-0.073586565303204398702519,0.0188452628379852001050399,-0.00131628803831073792202089,-0.0129783068792344025155217,-0.143920017446034165242708,0.989503232481338312886976,0.0954818205907707606705515,-0.00479916310341779381309912,10.8846675897317748393789,0.0552050546656444596216318,0.0119357337634166948969749,1.17763262627503184631905,-1.45490627281425610739518,0.645825562832073041263925,0.556396654855152772434224,1178.98850645507809531409,1190.51794213509697328846,1179.5333634015851203003,1174.44891316915231982421,-204.480880009896111459966,-927.629091230573180837382,-86.3658198610209382195535,-189.102271614774338104326,163.452443339624863938297
0.36249999999999998889777,-0.187442939738125202708829,1.75521602731808923358869,0.684389595418185670006039,-0.000436751854915245292434317,-0.0695780571368233846651918,0.0215345036811861699488357,-0.00130533111724843780762639,-0.0130355436263801700846887,-0.143920263470077108847178,0.989502444691420013356264,0.0981005464629864515346824,-0.00290177579798418273926419,10.8778653783873764382406,0.0548726300976693295852193,0.0119806467391789552012771,1.18027825377940165374469,-1.45484772321198563282962,0.645839123767533940245755,0.559358052040995867848494,1178.29575026799966508406,1188.28675502422947829473,1179.45724477372482397186,1174.2003935687243938446,-320.708882755888851079362,-891.80432631201176718605,11.4837879818423864719534,-37.4225671431304007796825,163.455655597834947911906
0.364999999999999991118216,-0.192168485091746971127336,1.88257946587473901089993,0.586169141429172091406485,-0.00159751821702543259258456,-0.0647308051977337345350705,0.0235911095228292302938833,-0.00130174041858573835174495,-0.0131052218608291408397104,-0.143923436339106064485449,0.989501054511762401233455,0.100948699749563816641107,-0.00134480372236645516481612,10.8707071029112949389628,0.054596728803750861624966,0.0120130858411118240230975,1.18288700788006195807611,-1.45479011493996202020185,0.645850815833656666242746,0.562325845521315148545227,1177.38496204129864963761,1186.05892050353691047349,1179.59078234149433228595,1174.26180033343666764267,-390.234423901165087045229,-926.340032589313636890438,95.3164954773909869345516,72.8192031980596965468067,163.458967683817775196076
0.367499999999999993338662,-0.176427410917322002870122,1.98750080216268454336159,0.441021550646382820559666,-0.00263560509922341947713909,-0.0586746187058600696118127,0.0249068510174008800328593,-0.00130780373343272228459089,-0.0131837263825914305370723,-0.143931096145454545665032,0.989498880470476516180156,0.10387570815284329073247,-0.000192414565965583553297513,10.8632361494355613729113,0.0543696573820149769984411,0.0120284571923397823334234,1.18546070917568613367621,-1.45473411665133833814423,0.645860034468299093468602,0.565299281043223134091136,1176.34457814849383794353,1183.65505486128290613124,1179.93382725111177933286,1174.56448958471469268261,-334.879867530662238550576,-802.25606699882450811856,144.115605812794314033454,121.637662775492458422377,163.463056420428046067173
0.369999999999999995559108,-0.16516906716857740478055,2.03640224003820113907182,0.3243627439203920492794,-0.00296477067311742793417895,-0.0540085336627342746385061,0.0251634011775544626232648,-0.00131977635620683241175766,-0.013265230730719571039522,-0.143941963253019389323839,0.98949619062127269764062,0.106666903529079232226806,0.000614654605919454435913885,10.8554869900104993263312,0.0541753662629727503197152,0.0120352742167212194146497,1.1880030566035064687469,-1.45467985890522188974217,0.645867105327901480649189,0.568277314449985082589478,1175.71056270364533702377,1182.04764016854278452229,1180.31136037055830456666,1174.86998864731413050322,-181.816611267367818527418,-526.622573424537677055923,150.394713651030400569653,95.3632648158872200383485,163.466558538011355494746
0.372499999999999997779554,-0.182190021549333641681656,2.0495637957651995364472,0.237567376225760129582198,-0.00273867017696144497002075,-0.0497508904778628524567807,0.0248937267407167497901277,-0.00133282792152885081089775,-0.0133423692979332923769231,-0.143949564928771173155653,0.989494030090778631247872,0.109076909197526189521099,0.00115480671607683452184467,10.8474829515909245714056,0.0539927532524054898388499,0.0120432994724712204986927,1.19051936906034949714694,-1.45462690498774138703197,0.645872917102739640959896,0.571257815207626529208085,1175.43549509215699799825,1181.02194199416021547222,1180.68580081936693204625,1175.04130590879412920913,-46.5219753126802544329621,-288.551811728666223189066,132.568693061511908126704,2.7393445363486512711404,163.470159246756963966618
0.375,-0.258240319890361114119059,2.02126215795729091695421,0.180544459435303339400747,-0.00217885790502549961042411,-0.0444653107768890748507928,0.0244417752485647510329869,-0.00134318622893783343706653,-0.0134105422116182169955945,-0.143948362209546015799688,0.989493270728372009692464,0.11093175828113922831708,0.0014926290871019650546847,10.8392339646496402849607,0.0538064146470789567144877,0.0120601511660961054767105,1.19301568645730937667793,-1.4545742345150616259275,0.645878632368994787249505,0.57423935311116569568668,1175.47795282708193553844,1180.60488110989945198526,1180.97420383586586467572,1174.88368536999587377068,49.4097430192141047200494,-8.35987715049667912126097,51.1250066901538531283222,-139.880535946713166595146,163.474594962523383401276
0.377500000000000002220446,-0.373211099329248119360614,1.95132686269886623797731,0.168758025864807897908904,-0.00180211419908823705822443,-0.0395038087584269684282567,0.0244201088302586598322019,-0.00134957735919676827425484,-0.0134685935314494773656913,-0.143934423594868021734072,0.989494501323001429682336,0.112150343087572670897067,0.00165084594119861184646769,10.8307357438473363941966,0.0536088789131166712498278,0.0120880197785305822100188,1.19549802475966537862462,-1.45452069013951112985694,0.645885190073688719714085,0.577221437916451529659412,1175.68254380725306873501,1180.98014260840773204109,1180.94142585281770152505,1174.34190322906056280772,67.1989692040824024843459,291.256300141048711793701,-102.502649208827193660909,-308.631509503402128302696,163.478388125978881362244
