t,ang acc x,ang acc y,ang acc z,ang vel x,ang vel y,ang vel z,quat x,quat y,quat z,quat w,acc x,acc y,acc z,vel x,vel y,vel z,pos x,pos y,pos z,mot 1,mot 2,mot 3,mot 4,dmot 1,dmot 2,dmot 3,dmot 4,vbat
0.447500000000000008881784,0.426365002445151353160924,0.129783475521401098218277,-0.063592413109946732685529,-0.00534585616679058781008926,0.00466440305460246850549622,0.000154497679970123875719742,-0.0187272531309820716716175,-0.0646381539821467981932201,0.0130248633305238975532703,0.997647572398374871127658,1.2901047973033989979541,-0.375786906408339171914434,9.69876266317162993857437,-0.000201745266100523886225113,0.000382934663565037637558003,-0.000278244410149284734923292,7.51057218948885196851961,3.04330830028313226165437,-0.0513935848419092011774012,296.254346087050407732022,318.926962777935443682509,293.88677887030308966132,321.845170097299273948011,-49.7004591714925965106886,35.9681543594205948011222,-114.143514413490166248266,-117.900101988959605137097,166.953455252771249206489
0.45000000000000001110223,0.393736909481205210603605,0.0708343736183875555267875,-0.0615501966159254371158127,-0.00364980886789080961191134,0.00400934184153687624141416,1.71507483779647523260137e-05,-0.0187377894754003591903935,-0.0646562284648160012778817,0.0130346374213208375525408,0.997646098597553598885668,1.29133675338389397602157,-0.376521874069297324272299,9.70045724727954805644003,-0.000133184079532404754751124,0.000312417241833293950811073,-0.000323141511457504429071647,7.51057300047513098917307,3.04330736734430473688917,-0.0513944000219107299809451,296.129769293919537176407,318.987456857758331807418,293.5610307991713057163,321.479339668111947503348,-45.891318271821958774126,17.0887772218406865931684,-139.666261759316398638475,-168.655252250118650181321,166.952757134480009426625
0.452500000000000013322676,0.342784427817258707804626,0.0194175244947384882665542,-0.0525230715375283943591178,-0.00269760602328434490049247,0.00347965852687525398559409,-5.17653664556388677219639e-05,-0.0187478357324353979429521,-0.0646794654400586893627789,0.0130445715140860753894492,0.997644292068413873764143,1.29237869078178957416014,-0.377057473730669501232882,9.70224105328393093827799,-6.69126703256439766751007e-05,0.000241097325849470465672364,-0.000357635019029652284714565,7.51057676243290384121565,3.04330639672058333999871,-0.0513934534016906446884931,296.024889495691297724989,319.012406664044647186529,293.188447561506507099693,321.001893836048679986561,-34.6046364707603686383663,8.6032482272685157909109,-154.242643569716477713882,-209.684211622606909486422,166.952026054695096490832
0.455000000000000015543122,0.294203192857635631440871,-0.0242020586784892147158565,-0.0398034327692769196449518,-0.00264994683324258411757923,0.00344138433219646046670737,-6.81145257605916983317113e-05,-0.0187595748629372366389489,-0.0647092790445597532134059,0.0130478848386593529462552,0.997642107455800175586091,1.29326253803343305115447,-0.377427493676203817951631,9.70407057721400612138041,-6.62468397389089110722203e-06,0.000170195373357938308390286,-0.000383553631600358079130342,7.51058246744087121271605,3.04330567496829562657013,-0.0513925026083634148288404,295.956746111565735191107,319.030473098894674421899,292.789817581322722617188,320.430918609998911961156,-20.8990359337690101426688,17.4714004628526566875735,-173.787793048427232633912,-255.370979242956991583924,166.95125350477906067681
0.457500000000000017763568,0.262735333601707421458116,-0.0750928563899200263165312,-0.0246989562349336777558051,-0.00318964077719949886530193,0.00383754769994069846322793,-5.82471407604616156993525e-05,-0.0187673271661256309272847,-0.0647415965084643246774121,0.0130419122999522706096709,0.997639949318130714317476,1.29392281303243006362891,-0.377520225312983626064778,9.70592493679020051899897,4.47533390411743094584179e-05,0.000100690279643954775181704,-0.000402554120995978652938069,7.51058994971423832254231,3.04330571495207280463546,-0.0513908662683478095756229,295.920394316022452585457,319.099763666358910541021,292.319508596264370225981,319.725038939833893891773,-6.42666796820776120569008,40.2253452155718704830178,-166.538164094492771027944,-247.290274445310615192284,166.950276022453152791059
0.460000000000000019984014,0.263290258590890668966011,-0.118746710381732387129539,-0.0141764358679668175944322,-0.00350959019100412434113978,0.00411950106202321492815388,-4.07005006006354143137903e-05,-0.0187657590294890430637764,-0.064769727419375991428474,0.0130281482884541648797905,0.997638334366634849104116,1.29424875389202220787865,-0.37723928661767031078611,9.70779272530451287082087,8.53352915523893497222463e-05,3.34185449381114852546691e-05,-0.000416061544229044384755195,7.5105982603022374277657,3.04330682260407270334213,-0.0513885239671912907866158,295.924612771724696358433,319.23159982497253395195,291.957126760850258051505,319.194467237772357748327,8.03003725459347350579264,72.5016913997477985276419,-134.924718980505417675886,-184.066877938709978934639,166.949417446823218824647
0.46250000000000002220446,0.279297840942519470797123,-0.158380961769188227661331,-0.00680400671203432172440273,-0.0029567560818954960813465,0.00387596578047621435209047,-2.35655317190082284114355e-05,-0.0187584186363246273321348,-0.0647867808488360452656707,0.0130117681329930574840592,0.99763757931398389100508,1.29412761027028078153478,-0.376670158829413626033755,9.70965944247143042389325,0.000114442095942556389467915,-3.07802633945350239894068e-05,-0.000425190105549277529324581,7.51060526224214619617214,3.04330779970240472565024,-0.0513860027775168148878038,295.960544502295419988513,319.462272123357649888931,291.644885001361842569167,318.804704550140343144449,22.9610811344286744883902,123.871380926129745603248,-122.920029404269712358655,-127.273751893403527901683,166.948510611360745770071
0.465000000000000024424907,0.290985110500189103621693,-0.188835237999150418186645,-0.00161062982165190442425395,-0.00130343790704792587310801,0.0027822336623714101662419,-7.96218741073566552298411e-06,-0.0187525496134357226585276,-0.0647909982025267755512132,0.0130005570312148634182225,0.997637564924436226476701,1.2935488247293942531968,-0.375978483771837124205462,9.71149791949436824722852,0.000132538835747884848692904,-9.09936546164971860788453e-05,-0.000430689243124791562317838,7.51060922068062186696125,3.04330702161989652410057,-0.0513848214850345305637624,296.039418177396839837456,319.8509567296031832484,291.342526613828908921278,318.558098478305339540384,35.100729579426086957028,157.960223698205339815104,-97.3686784244136163124494,-52.0488321661332022927127,166.947363369919230535743
0.467500000000000026645353,0.280294710204994523827793,-0.193810814411342985374986,0.000122496411387003605736323,0.000284860838733076704703401,0.00159576245317575617088668,3.58128996972871552305074e-07,-0.0187478025136399821526378,-0.064786981071577043334031,0.0129941682536814772513933,0.997638003591073907472264,1.29263419034465876222839,-0.375175615100747983365892,9.71327377235688516066148,0.000140893766456725650281986,-0.000146333887715258110064423,-0.000432997809373812344354432,7.51060973600630354951591,3.04330469850429974343342,-0.0513857739483964265359006,296.136048150192550565407,320.252073241848677298549,291.15804160923977406128,318.544460389309676884295,44.9366676997442056062937,171.029716624434371397001,-58.4919716457647567153799,27.1739206764777669889099,166.946355755581748780969
0.470000000000000028865799,0.245234856466107264960641,-0.180779755305460060332834,-2.76839052368191783880247e-05,0.00140206120866193367086039,0.000653418720735298927393409,4.46868700301001580256575e-06,-0.018736867996455526530486,-0.064776327214373694007854,0.0129895687909156228728724,0.997638966836254525993866,1.29145170025410771508234,-0.374135187073915964628412,9.71496857103340616390597,0.000141077193319013444172683,-0.000196115199037715903351148,-0.000432411611770847255364902,7.51060765927466089664222,3.04330204808802218252595,-0.0513873508927238098475954,296.264101515895561078651,320.706105312725355815928,291.050066755600084889011,318.693968081687728499674,55.4128984535850079851116,186.210807602594570653309,-29.952020558187061993749,75.7876641737538392362694,166.945292401215823474558
0.472500000000000031086245,0.196774975660726075821216,-0.163138436288189914158409,-0.0010427741055731799737355,0.00202861151745067436538705,0.000147967583691454722437733,5.66924828154375363167784e-06,-0.0187195513790125098174677,-0.0647627184879335793254995,0.0129842144821041699520592,0.99764024942575579846249,1.29010825896469527584998,-0.372872975475696144531668,9.71655588595649533090182,0.000134484596242630526649955,-0.000239941071652823674151267,-0.000429224460880890928277109,7.51060469046710554863466,3.04329994414749283038191,-0.051388557354000226340407,296.413112642460475854023,321.183127279861651004467,291.008281506448838626966,318.923398710178446435748,61.9867888691032362658007,191.903650792482778797421,-1.16261906782710755514643,93.8679723688209435294993,166.944181964343130175621
0.475000000000000033306691,0.14489207504371315327063,-0.156811141628181105467377,-0.00221182320497013799875941,0.00209245468426347107360197,0.000341340984520101763371319,3.55625582816762825320162e-06,-0.0186989747709670993403019,-0.0647450486195780688936097,0.0129783723008973870399752,0.997641858509280998745794,1.28861511599426337149055,-0.371473492989792541951743,9.71802150386195151554602,0.000122074342280223353601407,-0.000277679944472917323520372,-0.000423724163877064422412816,7.51060227207169983643098,3.04329843403869615414692,-0.0513887754589770762159162,296.574035460241077544197,321.665623566687770562567,291.044253660260949345684,319.163307943531833643647,69.098348045474665468646,208.339251921154101410139,31.089247676334224479433,86.2146909265674565858717,166.943014716339177994087
0.477500000000000035527137,0.0921088925931367596966481,-0.178371527235334087491125,-0.00260626309056144001355393,0.00185601485299905638592932,0.00114693162148301122660321,-3.36743704613180474678985e-06,-0.0186765085783937995200787,-0.0647259275167147568597059,0.012973605648468382323113,0.997643578062850311383158,1.28705502753440792496065,-0.369990315289120297315151,9.7193454978543147859682,0.000104351778349446436592284,-0.000309373882255656003966576,-0.000416094788211218995135215,7.51060218338190388465136,3.04329777139063395452467,-0.051387963534713004820631,296.758604382687849465583,322.224823539467422506277,291.163727744830509891472,319.354472164811284073949,63.3407204294719221593368,197.707230289122179556216,52.8402664734590814532567,42.0671260644216715718358,166.941549578345700410864
0.479999999999999982236432,0.059879114789484905179151,-0.220440136408692449743185,-0.00121387627402132236044408,0.00175658185699963196452211,0.00163240501663366771763208,-1.35204318434694779286348e-05,-0.0186509537668252262099244,-0.0647062579636218243583912,0.0129704098055114930287957,0.997645366148456225197094,1.28547737159946584561965,-0.368425254758211695449432,9.72051640162386121346572,8.16130243238133689645183e-05,-0.000335119755004627760917868,-0.000406295579232585492117369,7.51060493186300348611439,3.04329816745803283239979,-0.0513864714644104020324633,296.890739062388433922024,322.654159718133371370641,291.308454992628242052888,319.373643573853939869878,46.4251715731625367311608,158.537138210728500098412,61.5758390664502215372522,-26.9346856580116771340272,166.940276762043481539877
0.482499999999999984456878,0.0379126034270531597769605,-0.26992468558908755404957,0.00297192356249730699202516,0.00196013829415113893447908,0.00125715188041905707484747,-2.85960202386216529707973e-05,-0.0186304640091236664578567,-0.0646858137793811516225162,0.0129742591963186229553351,0.99764701100046548898348,1.28390327638874990334727,-0.366968801007027389804449,9.72152059014256586522151,5.43135606464600160917834e-05,-0.000354932574431740587104361,-0.000393992353728402164986244,7.51060821110477938589156,3.04329833880737199436339,-0.0513852018717358416388663,296.990730240553659768921,323.017509230521056906582,291.471606940162757837243,319.219798736521227056073,36.6135843117035264526749,137.790590714871427735488,69.4699016258709320936759,-100.947151091850088278079,166.938953400746640909347
0.484999999999999986677324,0.0191155105600542135624309,-0.305046946484210268479842,0.0121449865086048942874886,0.00246712113544440532833524,-0.000359874933155863497603877,-5.02421230805422970849133e-05,-0.0186229856908121868541706,-0.0646696407447890225794751,0.0129901414851741614508995,0.997647970579031095894607,1.28245502997666127598109,-0.36580718110552823407744,9.72233333385557685346612,2.3302970243753891581729e-05,-0.000368699593719797719636178,-0.000378568479071963222976072,7.5106096535596682528535,3.04329716917517556495909,-0.0513860395783189149998549,297.073806983946951731923,323.343112671707729077752,291.655804500757596997573,318.868907818394689002162,25.5364481626656711910073,97.0439366007780392919813,61.8564039121906148466223,-143.740037825113972758118,166.937312145176832700599
0.48749999999999998889777,0.00984559106881471163275066,-0.293307084463948375407938,0.0235418643678091989157597,0.0028125125664975824356373,-0.00237288955239527924595544,-6.61616575461382040159938e-05,-0.0186316096733985421540769,-0.0646653623196381116544629,0.0130182967234095635367108,0.997647690566836664594064,1.28130636964406119382431,-0.365024933852762578645468,9.72292917248617172276681,-1.02591063426049145993315e-05,-0.000376270979428388815946072,-0.000359285987423082304667576,7.51060882829111786662679,3.04329483620821950040636,-0.0513889836555842874354916,297.118412481366988231457,323.502728913524947529368,291.780888959723711195693,318.501098547395656623848,15.0303348148781736881574,39.0009427177232836925214,41.5588239726502806092867,-142.643050043034122609242,166.935904641728910746679
0.489999999999999991118216,0.0129968098941354616437938,-0.230934373500467304829442,0.038393135836170821928448,0.00263830713585397596404603,-0.00438160528529497970279261,-6.70737147947445526028828e-05,-0.0186544372605097659445494,-0.0646734934098574104632817,0.0130574062746440754112509,0.997646190497164075949854,1.28049229783394769022209,-0.364603491650055122619278,9.72330658858842511449438,-4.51965402493121839620424e-05,-0.000377615332514869787156053,-0.000335541292811499620649118,7.51060707718898079576775,3.04329165960579883787318,-0.0513923573256562446487372,297.148958658021342671418,323.538117385296345673851,291.863598620620848578255,318.155692568179517820681,11.9008396433173295747565,-4.6335723371157611083504,25.5049889739666255650263,-119.738389090446062823503,166.934461521986122534145
0.492499999999999993338662,0.0318470706133000061588412,-0.137572268655705542972356,0.0549408284671723812220279,0.00210743857961135207593206,-0.00565890422415163407698913,-3.94674372309660595535379e-05,-0.0186961564088708592779042,-0.0646918509580520217916444,0.0131019152197683601962508,0.997643597433166551269323,1.27999293318960472021217,-0.364644831228229882036374,9.723468551693127182034,-8.05619582887724889133652e-05,-0.000372955052145200873035119,-0.000307057818368334481569371,7.51060565127651535988207,3.04328767326555515992936,-0.0513963190345971127070968,297.177916679583574932622,323.479561051839368701621,291.908413904593544430099,317.902406601943425812351,13.6851432275761784040924,-40.4648191270666401919698,9.2288485711151135859609,-67.2923587625973027570581,166.93299301494113251465
0.494999999999999995559108,0.0702300534016569999451463,-0.0368439838761436544434247,0.0708951050637612045779434,0.00165042210743770903329242,-0.00539525606973604437976988,4.98103347609918413745229e-05,-0.0187593986756958222561487,-0.0647149876519715477884986,0.0131475821426601247043919,0.99764027533034538297585,1.27972290422367485085431,-0.365208511597315210739367,9.72343093197428842699992,-0.000115712802243633333361753,-0.000362895653623213456425572,-0.000273989679944145185942067,7.51060427185594914334388,3.04328325560873302890741,-0.0514011630645787448434803,297.217384374159223625611,323.335793289661012295255,291.909742863476424190594,317.819230774366531022679,22.7525919695380949292485,-73.6564857300890452052045,-8.13019316735789487893271,5.27596050347937772784235,166.931498760565943939582
0.497499999999999997779554,0.128119678876613379836513,0.0518129891464751968221947,0.0845290475352669656849969,0.00165654160050884673160976,-0.00390216371298073450707422,0.000267110355287553916277254,-0.0188349040157348018853511,-0.0647364448719040530555446,0.0131928195771018313270373,0.997636842958541047998722,1.27957788505708824899898,-0.366120793633794461285902,9.72322480402833022594677,-0.000150307296113692535595788,-0.000348505842315237021090957,-0.000237037188053580005894436,7.51060274268126448760086,3.04327982089533977116957,-0.0514064777261707822608727,297.291679639431265513849,323.111278623188923120324,291.867762938756754920178,317.928786404460822723195,33.4593382756110884201917,-84.8634918932702220217834,-21.1212305288426982485817,66.710242021451847449498,166.92968199139136231679
0.5,0.172551622348307148735458,0.0813184282649146855659339,0.0872723343631785636320686,0.00226774591739438251269956,-0.00253780884022910451294774,0.000559819440496014258945578,-0.018905826714358708179331,-0.0647516967382218144866357,0.0132312066595646118244423,0.997633999206039567830828,1.27949415355168749641734,-0.367049859337898631839181,9.72288655118471112359657,-0.000184310889514968060266115,-0.000331260481220906489573802,-0.000197561818856804020027793,7.51060054567592416674415,3.04327838678557860419005,-0.0514122241953896622068676,297.384681065537279209821,322.911475830194660829875,291.804136710832210610533,318.152781984473790544143,44.747965194368958918858,-78.1824920182761786691117,-28.4737892223230346644414,97.7815036759568130264597,166.928152621566425750643
0.502500000000000057731597,0.196998927508017313003919,0.0647033302209904653823358,0.0769617245699250052126672,0.00343856799565695012838029,-0.00166406941470016722650627,0.000954539664221451837275434,-0.0189634868828764020787236,-0.0647536637544790516507476,0.0132612273010041369775136,0.997632388714292939191353,1.27935311339728507995517,-0.367824838660864017469976,9.72245795811716995160623,-0.000218056340216928577508543,-0.000312826946384072389611281,-0.000157656755657938020456083,7.51059731261196628082644,3.0432780947416904204772,-0.0514171528132829069868137,297.515419465403113008506,322.720366163097537537396,291.725393992645138041553,318.417693922840612685832,58.2685864141921641135013,-74.4108504405402726433749,-30.7929733609739457733667,95.9635236610210142771393,166.926612286394970396941
0.505000000000000004440892,0.19880910658343450836405,0.0223556858613462028362306,0.0544863278921195667847677,0.00478603415274733798995266,-0.00137310111943851989070586,0.00136586934770838402779247,-0.0190026238806737940434388,-0.0647412298602492580767986,0.0132833851293720234948426,0.997632180164297555080566,1.27914997814559283639824,-0.368341228608353998819069,9.72196858955230247545387,-0.000252331602916717480898645,-0.000294849244201077025605284,-0.000120088699694955044171285,7.51059396235751819403959,3.04327839208720307695444,-0.0514201757525602418108512,297.676023997608240279078,322.539421577991959111387,291.650171844027340739558,318.632599602778896041855,69.4420610261999513568298,-71.687901162567811752524,-24.4301587483960034319352,58.2534581886533899819369,166.925066499968153266309
0.507500000000000062172489,0.178203077692614231253287,-0.0291144330565379014230665,0.0191347870693574784173308,0.00581272088650635915946241,-0.00177417011565314183818565,0.00159792631563809828763867,-0.0190129252590191220873006,-0.0647213746750750773539806,0.0132913365449094725279089,0.997633199372504386737148,1.27904125880875096932243,-0.368384738993685345587181,9.72143675145591679154222,-0.000288385238681772803053666,-0.000278822412041016237226748,-8.80832798322736759775303e-05,7.51059251028517582682298,3.04327937670237425038522,-0.051420220652319457987911,297.862629770534113049507,322.361926657284698194417,291.603243198903157917812,318.708961213783879884431,83.6176165155847428422931,-80.4196302849731381456877,-8.05301533486044007759119,-6.29761690859140266240956,166.923518406512215506154
0.510000000000000008881784,0.147800008629845963659122,-0.0760268381813326149520904,-0.0320994908999024525231292,0.00617433840671639637409651,-0.00279728347784397686145996,0.0014497999489854549847595,-0.0189932416741106779856096,-0.0646996827114519612589305,0.013285110737379816209236,0.997635097896998890298903,1.27915017542183928611621,-0.367923877813183863860758,9.72088220543342274027054,-0.000327730553883558411304433,-0.00026601087168816111520192,-6.49846120605685145885794e-05,7.51059360146135102098697,3.0432804837527438479583,-0.0514161160665458638607817,298.094112080186164348561,322.137323426567093065387,291.609906767353038503643,318.601111518235939001897,82.0471861021264174951284,-85.542257788008100760635,15.9729234925183618543088,-68.7573305776610226303092,166.921663163986295330687
0.512499999999999955591079,0.135987386804783672022978,-0.0922515718252910343899487,-0.0775039133862208823311235,0.0056717992262780847489978,-0.00369834654797763237935038,0.00111726093185116840539317,-0.0189540828822692061783606,-0.0646797979831799652039592,0.0132632216666669251747823,0.997637451192359026030942,1.27955791104308858052718,-0.367149228983781439339396,9.72032472170483785589568,-0.000371745272239359025520655,-0.000257432112410925712561033,-5.3783598832149743921606e-05,7.51059677370633060888849,3.04328146745936756190076,-0.0514090143208447147848972,298.272865701044736397307,321.934215368344666785561,291.683107816365748021781,318.36517456089558208987,63.8469883782703959695937,-83.6788898592885033167477,43.6962132823964211070233,-110.796356783089223085881,166.920122511983691993009
0.515000000000000013322676,0.15195075933528801037653,-0.0843908630098094275640008,-0.12294608853466604259097,0.00476151709598505480658392,-0.00407942303696297216969446,0.000791627366746082980833443,-0.0189071117744545220962227,-0.0646624052414542099809225,0.0132266884363658049350576,0.9976399752991240710287,1.28028436923658461843445,-0.366273182203681157975694,9.71979324790597765115763,-0.000421266786209196597394466,-0.00025388135131339684830154,-5.6648388957464154659302e-05,7.51060008523458133566919,3.04328248842496229542576,-0.0514006931453642179619123,298.413347022077516612626,321.718928977270650193532,291.828387833765020786814,318.047129734320492389088,49.1845851202469503959946,-93.9225145947829389569961,75.9926333269731202335606,-137.51400372537989369448,166.918590878552748790753
0.517499999999999960031971,0.196745512751842044352202,-0.0559105371009709084528794,-0.177323286160205706440962,0.00417331155559971019725074,-0.00385818830250194387543328,0.000486506134271770399393753,-0.0188552155103632289312454,-0.0646478273934157909863529,0.013183193638172361478178,0.997642488978818464673282,1.28133894358139710512035,-0.365342223887113293212536,9.71932508539197925756525,-0.000476366490759050299676897,-0.000255945629660059054306942,-7.46250638267650109967249e-05,7.51060288696031808086673,3.04328384828150388941026,-0.0513928189037361898838796,298.51878862664597136245,321.46460279537075166445,292.06307098300061397822,317.677604542268682052963,27.2885533481485005324885,-89.3049588593043210948963,89.9675542545650444026251,-119.262431131266922079703,166.916766658203385986781
0.520000000000000017763568,0.235173100151414932179605,-0.021321104073811963930396,-0.222184412620847510089206,0.0046400182811549596506584,-0.00342990900401902651384312,0.000271685378692255151151375,-0.0187964994147083279407706,-0.0646386959960387613710608,0.0131407376063341803373863,0.997644750846890415729717,1.28277267838436270785962,-0.364308685722797342965151,9.71895408162678187125039,-0.000536317035324100329155006,-0.000263978294543211922541098,-0.00010757254706899660933947,7.51060566059611023348452,3.04328577601333094548863,-0.0513869031286775454492322,298.549789788818259239633,321.272404182974128161732,292.278225605037846435152,317.45081757866415728131,2.15137054029810137478762,-69.6672966623281695319747,81.3478247147485689083624,-63.6937065627193419459218,166.9152599248461967818
0.522499999999999964472863,0.242493596891967727602335,0.0261030933967539673090652,-0.263048740236513589607625,0.00619572348082914319683523,-0.00330511477998552891111039,-5.49006560120638234002988e-06,-0.018734809456400772914586,-0.0646330843969863538811538,0.0131067674651868283641765,0.997646716456314641696679,1.28454051075856590102831,-0.363234782066462924543515,9.7187179542849602142951,-0.00059962899784184273566795,-0.000278029515311117186339429,-0.000154324516342637193698148,7.51060800772841030692462,3.04328758601492221913531,-0.0513828679806157956333479,298.529545479347461878206,321.116266312059110532573,292.469810106574357178033,317.359136009455085059017,-13.9014657645475256941836,-55.5024175756102025047767,66.635101054305266643496,-13.5207895319012880719356,166.913769059995445331879
0.52500000000000002220446,0.205099519053927425993322,0.0897465363214048211792928,-0.294357879914869113857634,0.00826066093777532567399291,-0.00363953745749297057077154,-0.000439531138316991761439551,-0.0186787911640613549235646,-0.0646281150654245267750397,0.0130842098144026836026299,0.997648373866586224423258,1.28657218618952895461405,-0.362270956895374363071483,9.71864793192210463246283,-0.000664105796041235111638878,-0.00029780960276238683170566,-0.000212934170860649431798739,7.5106095454977879199987,3.04328861514257908993386,-0.0513797769220966996095434,298.48028245999552154899,320.994892095096076900518,292.611401110309373052587,317.383213631004650778777,-22.7429860250708557600774,-40.8287646859434616430917,39.4924604456150163400707,31.0901790642105595452449,166.912292406651914689064
0.527499999999999968913755,0.110097735436453736390661,0.176900900611680206298004,-0.302457793358025917029863,0.0100871506758965640004888,-0.00435256044896082348871769,-0.00118555623082804151291469,-0.018630361591859687792061,-0.0646264536761769620154539,0.0130717070573427608659589,0.997649533765499918480657,1.28890087767887728809058,-0.361432983651538697333905,9.71875902057065843564487,-0.000726935002507178009908961,-0.000322738707289727368501819,-0.000280843672230477034088003,7.51061071343306174696863,3.04328893124380384094252,-0.0513769471714143471929859,298.415830549222107492824,320.912122488629393046722,292.667272408802432437369,317.514586904776137998851,-27.4638470679860553502749,-29.8465706866636288907557,2.19152161600959338727534,69.8455964220101463979518,166.910833745323259336146
0.530000000000000026645353,-0.0458903658500332614633699,0.298142716296180276813743,-0.268585209480132647286155,0.0108924197572160853797474,-0.00483720776438828319043761,-0.00251148207586937653040815,-0.0185902987939115596494055,-0.0646278671514467217829036,0.0130683718859133605333378,0.99765021199916781302619,1.29149444916516054071565,-0.360716064002051195469534,9.7190655510371080083587,-0.00078476697127537046235618,-0.00035203260769454248037616,-0.000354961013273267296953134,7.51061137124803046560828,3.04328878899581978245692,-0.0513735549342414707374438,298.342963224655591147894,320.845659241662758631719,292.622358718389421028405,317.732441613114701794984,-23.9736593970746767467972,-20.7727044026228035988879,-34.1182132408789300370699,81.1737951767553767012942,166.909105115773570560123
0.532499999999999973354647,-0.178242945557563453595762,0.390840065979883799496264,-0.194954541664456221239377,0.0101831231878072320934381,-0.00418058522724262544151275,-0.00387412912582508865699804,-0.0185650954729709091739487,-0.0646317458519467258337698,0.0130674703401050893575297,0.997650420090082534763098,1.29430477116125253189693,-0.360222159246191553361172,9.71956853464681991283669,-0.000833777528156680997582784,-0.000384781254428636688719872,-0.000431638708949827584922254,7.5106104205580699328948,3.04328867020906601581487,-0.0513715045864161015676252,298.295962252236734002508,320.80825896661627893991,292.496681342598037645075,317.920455880659915237629,-15.2204838520219567499225,-12.7569602066387126626523,-64.6218489636566459921596,69.6748684834801110810076,166.907683664325560357611
0.535000000000000031086245,-0.273154222798346668632519,0.438736347234342016765396,-0.0736875460788410652224201,0.00839337376506461493863576,-0.00211497157155016331231412,-0.00512947526658069554578168,-0.0185576906998895715950049,-0.0646340266153265508020098,0.0130629701949954955819688,0.997650450656091591916663,1.29720788154714328221928,-0.359986773832524253879939,9.72026960806315898366847,-0.00086984055243662604644389,-0.000419963923184769980390812,-0.000506711923651301677368197,7.5106062653590281996685,3.04328861615353485348123,-0.0513722818724249158384154,298.26686080539548129309,320.781874440629565015115,292.299249473571137514227,318.080815955532102634606,-9.39253547807083144505214,-9.72385850124054762488868,-96.7021338259200149423123,60.6210686354415315690858,166.906283514241067678086
0.53749999999999997779554,-0.315628403911594468400637,0.412315867913343458983633,0.108847272405965367347846,0.00571409607957060368399471,0.00130969034857009842230668,-0.00604059343340641180519768,-0.0185551916053572976683661,-0.0646360413550832735296581,0.0130543164009208831344289,0.997650461165809021579776,1.30017866749110178048454,-0.359747338045777576009954,9.72115726404477875632892,-0.000888912945779503707588454,-0.000456429649503547465658193,-0.000575695098927351428010069,7.51059929559928818321168,3.04328831756817086429123,-0.0513760667276762644783972,298.248999574846379800874,320.759639674110076157376,292.013170673468437144038,318.223561223837123179692,-4.74149890391117434518264,-6.59632732482577299748527,-107.665206578246753110761,42.8697585856525265057826,166.904630203145160294298
0.540000000000000035527137,-0.290883137753264520153351,0.317782728816690507311904,0.26611946914959516696797,0.0038992264116541968353713,0.00385979340885139960218297,-0.00584130618120005853238785,-0.0185439144828572696765967,-0.0646404646590884035539659,0.0130426701490731870858308,0.997650516922237162731335,1.30321036243860133296835,-0.359232054081606022588602,9.72220631598771412029691,-0.000887501302375339243787289,-0.00049286627677044164176634,-0.000634149195143359563527075,7.51059101673168072466069,3.04328773435734056818092,-0.0513831586017172298186395,298.243153310875925399159,320.748892804005436119041,291.760923440679903251294,318.295164748460365444771,-1.78637239552017335064704,-2.51401025604991223971751,-97.6590019204308248390589,17.2114159914371924742227,166.903276805556203044034
0.542499999999999982236432,-0.225202603081934848994194,0.174564043245620748034952,0.389357422752506954211071,0.00313903675358191301333899,0.00485535261716343868876322,-0.00431831238175080320967902,-0.0185217239731679077230364,-0.0646464905630999842056639,0.0130319034152634721096531,0.99765066081976661038766,1.30621846185550305463607,-0.358401751133142210115068,9.72338210815986769830488,-0.000863022931326645975982914,-0.000527782859091814040772284,-0.000678112824029373085880923,7.51058260923194609404163,3.04328631775648439372617,-0.0513926404515841900311202,298.240067712868778926349,320.747069622829826585075,291.524875663866282593517,318.309618303794309213117,-1.6997593088603919486701,0.963146824005888468889225,-87.9943351395922235269609,-5.21344155548603804817276,166.901951449260451454393
0.545000000000000039968029,-0.15016307479188559237393,0.0250014218251377214052855,0.457368109391153243592498,0.00329161927830217250837141,0.00439133577713786589502565,-0.00188310106623961370959919,-0.0184974683481856014277689,-0.0646494864381925715690613,0.0130261835001700462116636,0.997650974822015479404058,1.30903729972907822975969,-0.357435812360137772358826,9.72464350515583397793762,-0.000813982859298007410848996,-0.000559568993435986664942983,-0.000704488656188046466835595,7.51057464374798300354996,3.04328352296153781253452,-0.0514030039004908234634428,298.234654514331623431644,320.753708538125465565827,291.320951764981941778387,318.269097540682935232326,-3.8111308306497413411762,5.2608539566563150557954,-71.0219268567697668004257,-30.3995647609667400956823,166.900651709500351671522
0.547499999999999986677324,-0.0899675109089304592124847,-0.0933193952087994216260114,0.442614683488681048828539,0.0041740657097284229737344,0.00290652856667203461984994,0.000801861189250255290694724,-0.0184743718280700290612639,-0.0646464905481363011352514,0.0130232803100207468471883,0.997651620441180830844985,1.31153701083856044640186,-0.356399480121825040779271,9.72594306314408818536776,-0.000740007159271127202583573,-0.000586665756622458366142947,-0.000711247332821854415588203,7.51056725424167126448083,3.0432798927154123269645,-0.051412367709508619006975,298.22101205871553020188,320.773373892613108182559,291.169766029582433475298,318.15762047998947537053,-9.35264040874698387995068,12.9112078912726140345058,-53.6181903045416632380693,-63.4214239990569126348419,166.899386055069527401429
0.550000000000000044408921,-0.050292574127779612891409,-0.170852872324298521444774,0.338553196750214668853118,0.0051417461949401499499146,0.000969892437424713072489924,0.00310640644877095001286094,-0.0184562890947770237570769,-0.0646345673030385287072264,0.0130224924302760076272323,0.997652729643057956110397,1.31358940177641669855291,-0.355375686622236341971615,9.72722901703050979449472,-0.000641807822785381916659564,-0.000607701685936454325670519,-0.000697433547806750389619346,7.51056002294081004322379,3.04327534786949538414547,-0.0514195730449399507344665,298.187891312287888467836,320.81826457758182868929,291.052860813459233213507,317.951990420687650384934,-16.0411073229738434520186,21.0000296611155867765319,-33.7517928568899776564649,-82.9289826658509099388539,166.897910831232195505436
0.552499999999999991118216,-0.0402094964232134893800108,-0.180285135898345799665421,0.205127117921069274109058,0.0052339294935842802306003,-0.000288747313108756213043821,0.00380118854590104533752726,-0.0184572217321307512072348,-0.0646142152477102993390901,0.0130206048961191006574367,0.997654054311108984265388,1.31513615413760054373427,-0.354646341148388610786668,9.72843215091623392254405,-0.000521135516980674460066347,-0.000621626632329302431824447,-0.000662982871950516241751905,7.51055300148932847292826,3.04327002385809075590828,-0.0514261840395347780141577,298.140806522100660913566,320.878374040918686205259,291.001007065297983444907,317.742975566660220465565,-24.1225533979217985347532,29.3501292586711066689986,-15.0600170373195254569509,-83.3210171718064174228857,166.896720517640659409153
0.555000000000000048849813,-0.0390133103357936245059179,-0.148772133108756893227209,0.0617583569192731995922685,0.004488275980610684570693,-0.000788072737225330600258077,0.00338571593386036758660529,-0.0184815364389138633849363,-0.064584966447083141938279,0.0130162334854936993788765,0.997655561409389712856921,1.31610962000587217168857,-0.354308882235682187644699,9.72949422548643916286437,-0.000380762772468182068841269,-0.000627859838924455003830727,-0.000608530243030410713210576,7.51054607783865968428927,3.04326464808681240725718,-0.0514330669133869280984506,298.067278545298279368581,320.96501522387518434698,290.977560728272635515168,317.535385334828617942549,-34.2989204870945911807212,38.7119198262893959849862,-7.82484381313678767355668,-76.0128949514977847456976,166.895573561588463462613
0.557499999999999995559108,-0.0362554118805829619920367,-0.102083618529614159053942,-0.0649544137261754972456629,0.00357754717688253112348185,-0.00062152906239451544915392,0.00248701868632866546909854,-0.0185198572758279202121745,-0.0645540364464512739228752,0.0130132355653487675334334,0.997656903034408348851514,1.31660395932847751332417,-0.354201344759373093484811,9.73035115494435665084438,-0.000224502895811624951982396,-0.000626350689850973889848118,-0.000535376460505208244360087,7.51054040153837032534057,3.0432596341514641657966,-0.0514404505597258338012168,297.969311919665187815554,321.07193364005013336282,290.961882846232299471012,317.362911091902731186565,-44.2948805332093371589508,46.2648482422764146804184,-7.05336781179539062947015,-53.6922842796570378709475,166.894464358570530748693
0.560000000000000053290705,-0.0319096505003087504981352,-0.0569731397703029940338126,-0.153934875547519972593946,0.00311302434582370023130604,-3.58995950185500459043986e-05,0.0014960209161413234261323,-0.0185613858412981419521159,-0.0645351312344722011227205,0.0130143550589811533152451,0.997657355442324478289606,1.31685304562851901444276,-0.354134070976852066703344,9.73092976966189304732779,-5.71406733710377404155713e-05,-0.000617541390705119829646064,-0.000445612033542002199029003,7.5105367011056065607022,3.04325536996410406231917,-0.0514490360233669924427957,297.845804142632232469623,321.196339465086566633545,290.942293889213658530934,317.266923913430332504504,-56.5685018263024588236476,56.1569667798152707405279,-10.1936109138705344179243,-19.9677662456110560640354,166.893402473776092165281
0.5625,-0.0366445380715139101823752,-0.0174971565028515657624908,-0.210247409358602560525142,0.00335127893651268387795183,0.000609589335719758966362913,0.000474422610863146909654375,-0.0185990620483105495441833,-0.0645358895877473359714571,0.013023472182676121972067,0.997656506929909925318611,1.31698479400956669493894,-0.353990056808540176636058,9.73117913093260966661546,0.000115753199721652411959515,-0.000602278764896326652099334,-0.000342307845959768843741022,7.51053569037780732742249,3.04325177196584739647278,-0.0514577658058558012887929,297.686469410533675272745,321.352718473949209965213,290.910914791662946754514,317.263072260674675817427,-55.8283811659293363049983,56.3862022556122113314814,-11.3663606371574026354665,16.7118755063142856442937,166.89218475124167184731
0.565000000000000057731597,-0.0582333148433371791674595,0.00390231870496908148093773,-0.218198673768830425645504,0.00404174518738867945971682,0.000747245064991008782484538,-0.000207818479817117185296307,-0.0186263448261689001927977,-0.0645522032724124422697898,0.0130365486045167372486375,0.997654798192101455178715,1.31691560839380517045072,-0.353647955326494789485281,9.73108976912225998034955,0.000288113552941708043336755,-0.000581710471504645479715045,-0.000229650815058817637072733,7.51053745171553632786754,3.04324930380006719587982,-0.0514650481914824681206611,297.566662236802585539408,321.478270476364627938892,290.885462086027871464466,317.35048329096190400378,-39.1547190525897903512487,46.9019255234001803955834,-7.00320509058655549239347,49.6364734933763003255081,166.891218094688412065807
0.567500000000000004440892,-0.100090352228999035499868,0.0209504647591201159650964,-0.194211563235250517234221,0.00460126594350246821002459,0.000429791128052232776837749,-0.000756021402981494044376332,-0.0186353672157017966060089,-0.0645786764600901341815131,0.0130463109801814362148642,0.99765282228688312304854,1.31655348896785384660291,-0.352954023871576094695257,9.73066954568534825398274,0.000453733064776555051773183,-0.000557153950920896614412703,-0.000112893044767430490151958,7.51054264084870037976316,3.04324805141813614639545,-0.0514678286323370787203046,297.490695815270726143353,321.587228101566211080353,290.875898766210013945965,317.511254628141557532217,-17.7121043988790773937581,42.2029381605625175666319,2.88778374826960959609323,81.5260337008793811719443,166.890302188560269769368
0.570000000000000062172489,-0.159629401110811947051005,0.0431514727197434486138938,-0.140766548487043285931009,0.0043177574898622117505198,-5.40039496450591069713794e-05,-0.00127533407248844486356343,-0.018628783151009305207868,-0.0646087116930696842009851,0.0130538256756658789525805,0.997650940600715241401986,1.31579167885645298419206,-0.351969174329215206409316,9.72993583673315143300897,0.000606714173061258634292447,-0.000529977931660047122189305,1.99968774337383947345415e-06,7.51055075434473717876926,3.04324708692225387451913,-0.0514645538747265374190931,297.478101714808190081385,321.689285167167440704361,290.89990100476921952577,317.758113459466301264911,10.0947621871568937734764,32.0447585618694290587882,16.0134614801222454616436,96.3498859874106585721165,166.889262461492762668058
0.572500000000000008881784,-0.200825680785969518105105,0.062097019453549985590346,-0.0851825718951737531625668,0.00332225073225934702456086,-0.000229120343735418494296799,-0.00152188006046253122664769,-0.0186214259407070717444732,-0.0646376154294465432581518,0.0130562382060749708478919,0.99764921095185132848826,1.31457227056442227386412,-0.350985783853850596969437,9.72890665362409379213204,0.000741988424964572495373671,-0.000501553435496544602022195,0.000108994385917852884245252,7.51056077946752598251123,3.0432458771943440289931,-0.0514572531436201935362007,297.54116962620651065663,321.747451894375558367756,290.955966073610625244328,317.993004058078611251403,38.5792883305725453624291,18.0180291666033376429823,29.0481124574966749207761,98.6462533236362162369915,166.888445992057000921704
0.575000000000000066613381,-0.218283503633974002022811,0.0736747507816001012681539,-0.0293918192571729006146164,0.00204743178851241828392071,0.000168742264151869694223385,-0.00150945497991697365376684,-0.0186221632400714390276342,-0.0646635042297826756474421,0.0130489545173464293464916,0.997647643960846264299391,1.31290631101514088108217,-0.350175338984010542375813,9.72761091452586512673406,0.000855715905582846072391368,-0.000473284429459288854321469,0.000202648960702484919353325,7.51057125422980753626234,3.04324485083229623327838,-0.0514479725223324149685489,297.670998156461052985833,321.779375313000457481394,291.045141567056703024718,318.251344726084482772421,58.8191750276677751685384,9.30441670734579950874377,38.5563152625422489450102,106.942092121448595776201,166.887682033872863485158
0.577500000000000013322676,-0.213178084710759968567473,0.0724578761153979039599804,0.0192374654101318091903305,0.000855035816929926241643234,0.00102082894961759255980649,-0.00130212861349274342144533,-0.0186278270961851254161612,-0.064685306258393471257051,0.0130315534051168632062589,0.997646366588008204345783,1.31083199283584428407323,-0.349477159682184457256682,9.72609662124079044076552,0.000945477047952191927866761,-0.000446626490317432532205916,0.000278524085366050049451109,7.51058134004632638180965,3.04324486031183027989755,-0.0514380022925614646678305,297.835265501344849781162,321.793973977912287409708,291.148747649923336666689,318.527714518685854727664,66.8649313147184898298292,3.09481850524668766766467,40.1843185826132369697916,113.50090006927999297659,166.886962138044992798314
0.579999999999999960031971,-0.188432786565506160680883,0.0546767550722337680735308,0.0532253222295265143726439,0.000142666553216164995396276,0.00186762423104262342138382,-0.000932076466129145154819458,-0.0186330994334464108974636,-0.0647055612198116913980073,0.0130049595461299606624639,0.99764529699531845352567,1.30846485970192016878855,-0.348789451327466470953453,9.72441458539409353534211,0.00101027847843777711378532,-0.000422998337803736214161876,0.000333342443229339550382628,7.51059020555806888808092,3.0432470176346049228755,-0.0514288971194752642102088,298.005322813034638329555,321.794849405526690588886,291.246063159969764910784,318.818849226430870658078,66.8244832249114892874786,-1.11092764074100980309368,35.2881971525902997655066,127.649069689050406850583,166.886296047384860230522
0.582500000000000017763568,-0.15428440912893010006357,0.0262444768869372832553744,0.0743836962487794128850993,-0.000190618089355991312270136,0.00204880431455533576143302,-0.000500653340118699038963079,-0.0186316513215654747104288,-0.0647241311711733990907902,0.012970380112448344142595,0.997644546129660025890473,1.30587238905553326695497,-0.347989450737611893949008,9.72263142513855349591267,0.0010504110182143909426461,-0.000403551932753375174663807,0.000364997248246342470556769,7.51059790240174773856552,3.04325135031623261738787,-0.0514205019307339625256326,298.169387917469407511817,321.788419339708582356252,291.325188635686288307625,319.165959867131107330351,48.2179359424207660822503,-2.8740632246126525117802,19.7675702670494324308947,123.303913525182792909618,166.885559872552732940676
0.584999999999999964472863,-0.136142525480875381527213,0.0107922627668642721193715,0.0771339894910174767028721,-0.000206121957655067659801254,0.00142534881485764370993852,-0.000228154435438518654816545,-0.0186201809956783106980716,-0.0647414405124154407333847,0.0129293987450708764558316,0.997644131426116187455477,1.30313325332873963802172,-0.347014175705533500781996,9.72081551870624593902903,0.00106724956659565791035338,-0.000388864622578627373503113,0.000372460636633237848324568,7.51060457242614365469535,3.04325722136961296371283,-0.0514123475154611778159541,298.246412492746742373129,321.780479089403627313004,291.344901011305012161756,319.43536879405678519106,15.1072501369753666722318,-3.65917490782976218000044,-2.43078120355448623612915,99.7241568124876778256294,166.884999731260478483819
0.58750000000000002220446,-0.141398845310021503696163,0.0154720900256678089990103,0.0686843278012015251432487,-0.000135362116879821667118911,0.000567512442817577470767498,-6.24461285234837034860411e-05,-0.0185950824747281411031263,-0.0647582884468912850506328,0.0128863206357493521869717,0.997644021215774778887919,1.30033116743228904788054,-0.34579909557637916739381,9.71903687679045269476319,0.00106305309977901838239256,-0.00037866541966889862534662,0.000355737719637021806810828,7.51060939923945625196211,3.04326374453157910693335,-0.0514040668789287683027034,298.244924168154284416232,321.770123465169433529809,291.313034729668515865342,319.664580651193546145805,-18.9615011117211729185783,-5.79816106621819393751593,-23.2004308055365768836964,88.6917677461041478181869,166.884495878861343953758
0.589999999999999968913755,-0.181571701620351577677326,0.041234330378761223367956,0.0513885892461553098198301,-0.000132655806087438521076449,-0.000107757131740846603387349,3.81608023466740252220043e-05,-0.0185601409371091569111556,-0.064773283892616884127591,0.012849974412517456076599,0.997644130276957641356717,1.29749994002494806188963,-0.344431252628828510342629,9.7173651854841569530663,0.0010407285042144838460576,-0.000371687976145565143488297,0.000315888217683986079805519,7.51061204444910668343027,3.0432691685444646090275,-0.0513953612822538458138055,298.151604987188136419718,321.751488284072536316671,291.228898857277329170756,319.878827632787306356477,-47.7878771660356989059437,-8.39845568285681309816937,-34.7065362423222438792436,67.5501110466256591280398,166.883957483378651431849
0.592500000000000026645353,-0.242601557964337771755581,0.0662995477856350295953192,0.0347194400788052096040737,-0.000314754829776388159786465,4.0668523263100056323871e-06,6.63292833821022974512271e-05,-0.0185339994501727070574937,-0.0647856092374580472270651,0.0128250125490957083557175,0.997644105807242942418611,1.29467668860906104377761,-0.343285423270025480402268,9.71585456717438766816031,0.00100354417763053862730493,-0.000365700329483875457257935,0.000255073903489042074031051,7.51061287705885760601632,3.04327134360672024726568,-0.0513879736669115849689859,298.00598478232410570854,321.728131186755149428791,291.139502048456904503837,320.002331206426674725662,-69.0644812530421745577769,-11.2946619172589528545814,-34.0804170144451461510471,37.3357843998519101091915,166.883564903967027248655
0.594999999999999973354647,-0.325473414026702712043004,0.0739134153293085766067705,0.0189258567642335527592135,-0.000804128854550520064115027,0.000956954877095474686077292,6.41959440497748409434897e-05,-0.0185283796564570391041116,-0.064793929056013679912418,0.0128116540984875189324033,0.9976438129276355981645,1.29188524542805294181846,-0.34259812659202409923509,9.71455904879359621872936,0.00095482041717944343868496,-0.000357804025875297975964329,0.000176532556753828014095564,7.51061240275379216058127,3.04326906144588793523553,-0.0513829289929914473367134,297.806282580922925262712,321.695014974486241499108,291.058496772205103297892,320.065506554786566084658,-85.9125267369335432476873,-14.97007812926084291405,-26.5437156842835726422436,14.1948731671163717038553,166.883231670042505356832
0.597500000000000031086245,-0.418038249962288943617494,0.0555601298034912524648199,0.00533529559710009797929287,-0.0015983347696489258373681,0.00226371150667440540482644,5.11971306059848330961316e-05,-0.0185397151995280694281032,-0.0647987665145846325476242,0.0128083438198002795560537,0.997643300077535433167952,1.28918282901669623008445,-0.342308395937512666140634,9.71352984731588087186083,0.000897652682317150348023649,-0.000344990618747173928386462,8.43486679492708174435758e-05,7.51061106437907799460163,3.0432629378763689231846,-0.0513805856335468047468851,297.57642214863943763703,321.653280796108845152048,291.006783470035486516281,320.073305572262256646354,-95.4426336272375976932381,-19.0682555428906930217181,-8.74525642935849845116536,-12.1618978507512913722621,166.882948545331259992963
0.59999999999999997779554,-0.50991508039662380991075,0.00675736675632958132264871,-0.00465433289519427782071626,-0.00271254986242222507694666,0.00331715837474866282949537,3.43909827368025670457988e-05,-0.0185627366863076945224797,-0.0648028654218153060684315,0.0128119208568899384248496,0.997642527592345507159166,1.28666284812606668275237,-0.342323619171907289615575,9.7128029508791939861112,0.000834691655483702182709294,-0.000324757565328726168461804,-1.69097174756511329000129e-05,7.51060928457701493243803,3.04325433773486464517077,-0.0513815660460544068599553,297.32906941278673684792,321.599673696771787945181,291.01477049005831077011,320.004697065532809574506,-108.101339992606327200519,-27.229528875147909872112,21.7993276655761114568577,-48.7036655501583055638548,166.882726992628960260845
0.602500000000000035527137,-0.602541894384580611898627,-0.0650493831334915395547824,-0.0118142509103065888875772,-0.00422782327322004762570895,0.00341505499987686603202697,1.38001563221739299364621e-05,-0.0185864582906518777116744,-0.0648057714965509373827857,0.012816774201944838851297,0.997641805039866214066535,1.28435074466144660831901,-0.342438082248097852566815,9.71241433286462196861066,0.000768003144041453419260668,-0.000295574036413963152879203,-0.000122592760323444972467288,7.51060835548217031742979,3.0432452726421246325117,-0.0513845402317910024403425,297.035915448676405503647,321.517133151733105478343,291.115780108363367162383,319.829787244511464905372,-103.770492283626850849032,-34.2877825073969404456875,53.4320726558120853155742,-77.0686105835920187701049,166.882533874309331167751
0.604999999999999982236432,-0.652152088374293836814388,-0.111792775465757776576226,-0.0133612889251091739722943,-0.00563364086269437652765291,0.00238626048598384243523696,-4.69992914807780755201113e-06,-0.0186033799929460515187873,-0.0648051532476345559796727,0.0128168642570350536924462,0.997641509799242598433011,1.28222677100972681785152,-0.342514623419872932252872,9.71238931843409147859347,0.000699080388909479092350574,-0.000257100983895952302313997,-0.000228334784655930846369171,7.51060963235352918587751,3.04323810589065635312522,-0.0513877213196865939570657,296.810216951368602167349,321.428234784234803100844,291.281930853337371445377,319.619354012614849125384,-83.6700879013960019392471,-40.9324572152399568381043,81.6353294549912078537091,-90.0515309083401973566652,166.882434761501201592182
0.607500000000000039968029,-0.656320557225294143322003,-0.121935760093215550536883,-0.00970805510568951111893821,-0.0073044169352821765664463,0.00079766133711763271066375,-2.78130539929602657036548e-05,-0.0186028815718876847085106,-0.0647969041803614226315844,0.0128100366197233146714485,0.99764214589510757935642,1.28022869661843374800014,-0.342359533762437551196456,9.71274671665266531306315,0.000629064919478663489224579,-0.000210100079906937469050032,-0.000330203588209641147026979,7.51061270694972371586573,3.04323449905247134239517,-0.0513894989044844374692644,296.61756500916942513868,321.312470865656905516516,291.523956755638323556923,319.379529589969763492263,-70.6179096993991493036447,-51.2535669995713334401444,105.671918875975634932729,-92.7102652429993270288833,166.882401315826882637339
0.609999999999999986677324,-0.610110785245018605316147,-0.0977427602713716731086535,-0.00116613411892096843595901,-0.00933523685982590341325693,-0.000634978292414395341543287,-5.67329770112433434139064e-05,-0.0185855328354151173864128,-0.0647769398336647123093357,0.0128067634042272823768904,0.997643834735160162097145,1.27828034860621353452359,-0.342012146412392803451752,9.71348448649858298153958,0.000559063626932967071801739,-0.000156071188758635218032239,-0.000424619457059207696097286,7.51061601946008305930036,3.04323368913081671038867,-0.0513896511385237911295754,296.457127402871606136614,321.171966949236946220481,291.810290447717250117421,319.155802686399852063914,-56.8520449172751298760886,-61.7059691516146244794072,118.945479111675822991856,-75.5157171181848951846405,166.882423499535548216954
0.612500000000000044408921,-0.492617419360330155431171,-0.0461836463933475438459197,0.0138911149512323459087604,-0.0117713427056271979082025,-0.0012476046569881160674953,-9.13985535504871401393454e-05,-0.0185652299841647695777258,-0.0647553254830266211694578,0.0128134379267827031023685,0.997645568507478208708505,1.27657275269630354763706,-0.341767840877714224046002,9.71454356830661502897328,0.000490356149147736105307904,-9.67884421868039733624287e-05,-0.00050814681681283721276926,7.51061842883604757759031,3.04323394828615345630851,-0.0513907200084333104506129,296.333304784583049240609,321.003941019898832109902,292.118684151196703169262,319.001951004378838661069,-48.2157700841070919750564,-77.9019810854605765371161,132.627202222636128681188,-41.8873092743524111369879,166.882514250221845486521
0.614999999999999991118216,-0.272511965592503457855855,0.0142153868536734895311469,0.0395992462375297782362082,-0.0145407324354792852338925,-0.000697710778341263659907412,-0.000128269177543785853866376,-0.0185523731169880030933417,-0.0647429322634120174573269,0.0128298749808487544399327,0.997646437519363771251335,1.27531050907180953934983,-0.341842279999435560977616,9.71585458022463832605808,0.000424401778986938516945865,-3.40319818906230416185286e-05,-0.000577382428889807982133608,7.51061961625993212976482,3.04323422838565615933248,-0.0513945124599860525549389,296.216048552451070463576,320.782457043809642982524,292.473426458830431329261,318.946366140028089830594,-39.6555189956074727319901,-81.5244316366601395884572,122.852287849252547857759,3.73590662228479830631045,166.882704420998578598301
0.617500000000000048849813,-0.0435472732131304898772761,0.0395820151553822122125759,0.0664325516324122955502673,-0.0160070571436136295517816,0.000622691240877516695613469,-0.00013589332882056351869092,-0.0185482710617591896318235,-0.064742798173834589792186,0.0128548453139550843127292,0.997646225268983499745445,1.2745439137787779593225,-0.342266229611991656955894,9.71736487276187865802513,0.000362693440996574197054958,3.04819551688618057541311e-05,-0.00062913939608878527345176,7.51061933918079560612568,3.04323405811332792225699,-0.0514007078611647613697322,296.135027189605011699314,320.596318861715531056689,292.732945590442966476985,319.020630537490262668143,-30.0394588719313730962313,-70.319554831678431128239,93.1803872052340977916174,51.2932548941648320806053,166.882932139320701026008
0.619999999999999995559108,0.187610691167103882381895,0.0257425627158238828906534,0.095818289853468352479382,-0.0158485932386418261474947,0.00203844113077231506303555,-7.96545056658704296636067e-05,-0.0185537316855022733907976,-0.0647559905878056091266259,0.0128842020534487029098658,0.997644895912224161094173,1.27428237443300917952627,-0.34305198602091019344229,9.71901965028636638521675,0.000306529821310052349309094,9.50793948626406880669099e-05,-0.00066078441581471933450459,7.51061777159584842422646,3.04323335335748934582512,-0.0514095421204958380467787,296.065851258091413455986,320.430859269651250542665,292.939328394856602244545,319.20283241449891420416,-26.177671885898210035748,-63.0446716600885679326893,77.8227094628845605939205,93.5302162956189988562983,166.88323360943726925143
0.622500000000000053290705,0.403784020277542565757756,-0.0240020567783032975905932,0.127554061459232814801368,-0.0135522964689535757587535,0.00275029092047182101288261,0.00012930340856042796672358,-0.0185672663304100350745163,-0.0647781304134909946546017,0.0129135945991974282476278,0.997642818298661637754776,1.27442723843891059232192,-0.344160436787814771886218,9.72077425523578142474435,0.000256792019519246940417734,0.000158051869923508698113218,-0.000670580389279305886379712,7.51061564760426847442432,3.04323256836542954673064,-0.0514203303355977234256891,296.00413883017552052479,320.281095503415087932808,293.122059137757389635226,319.48828161896835808875,-16.1118267627898461569202,-44.2308229618901833646305,56.9602542782717549130211,104.380130672052374052328,166.883682904048356476778
0.625,0.494727614835977824725433,-0.070377794156827336302662,0.144632936058202710150056,-0.0103222499775359449064593,0.00229381705812489082932371,0.00047694937782318083977981,-0.018581280135544386844515,-0.0648049135392873287830895,0.0129366228282052422859927,0.997640502781061422332698,1.27488218898640948140155,-0.345425291964190972482385,9.72258567196302259105778,0.000213778101080997764375097,0.00021760840288811601089293,-0.000658001246259184231941763,7.51061381027157004552919,3.04323259012258029443387,-0.0514317226909987920691059,295.985292124277464154147,320.209705154841799412679,293.2241296662479612678,319.724733067859176571801,3.64325636854800594122139,-16.4619969160753356618443,31.7582863159941268804687,81.1613621731566325934182,166.884131967005032493034
0.627500000000000057731597,0.47620598016673060248749,-0.0929065568585068501938906,0.143725526654987473262892,-0.00700748321175211422162654,0.00102350656354628730820844,0.00105139111466117946697141,-0.0185851337582128191272535,-0.0648314055360757479640199,0.0129486848019516528895956,0.997638539227482357141241,1.27553841872296835902034,-0.346617515682608068328108,9.72441495529210797599262,0.000177165154887732727859509,0.000271926482707351491793085,-0.000623909170664942321592183,7.51061192248002473803581,3.04323434111725443784735,-0.0514421629228297289104788,296.022355112018260570039,320.198785518834711183445,293.280850569337360411737,319.894088429834141606989,26.5889881816633284472573,4.81820227599882411340104,15.7920148056405054148854,50.2238390393017226642769,166.884660606522544412655
0.630000000000000004440892,0.38177915383804134075163,-0.0825095351382049840838206,0.123169664521607005736037,-0.00459456279853753292441443,-0.000508981756178775342214227,0.00179805927036244561113831,-0.0185784196915291591190034,-0.0648499570202691333342671,0.012955508720829338187297,0.997637364733988118992158,1.27622819799409903396281,-0.34771548840524529877527,9.726225720665444995916,0.00014604173377351180708808,0.000319326917263242180278909,-0.00057051372950445904206479,7.51060933207356384855302,3.04323741892640153849925,-0.0514500086270801015864151,296.118237065185780920729,320.233796166221793555451,293.303089740276163865929,319.975852263055685398285,52.7224031350328417033779,22.664486177438881497892,0.50161695628503322197389,10.9284746144794464584038,166.885256745927023303011
0.632500000000000062172489,0.240678108226841158678866,-0.0348172306510028325976513,0.0782530711411862089921243,-0.00384300352214544862355927,-0.00155488911663193571724428,0.00259647228097689957565519,-0.0185741762672169512249365,-0.0648619765038307150017971,0.01296260538641801941806,0.997636571450488229828579,1.2769581591948557797167,-0.348958411488638764463843,9.72795461435077690737216,0.000118907210768713888495926,0.000358463185500233500607736,-0.000501118476912556154098666,7.51060745659317152700396,3.04324074407512457085545,-0.0514556973513730225855412,296.285967127693425027246,320.312107949721905697515,293.283358654118785580067,319.94873080290653888369,85.8864633222196260931014,40.6840663647812661452008,-18.9373187128467002082743,-28.6165160612767728309791,166.885935835055050802112
0.635000000000000008881784,0.0871466932248150111250951,0.040904054272088555266329,0.00519211431827942306027612,-0.00483434001216305562348419,-0.00150889397250176474779559,0.00312785297165244988160104,-0.0185773315985563597374508,-0.0648714126322725154194515,0.012968263832113082270614,0.997635828890755194109374,1.27779145163893859127313,-0.350414982297107935327318,9.7295449539487073309374,9.37574213224381502584243e-05,0.000388386378257971390769165,-0.000419809842269450140487402,7.51060729574357299753729,3.04324409969359477301509,-0.0514598713156342521535258,296.547669381796879406465,320.437216498045700063813,293.208403146711930276069,319.832769682749301409785,99.7063118496043045979604,48.3714434092689344879545,-35.9215660183621992018743,-45.7068215655908289818399,166.886848213032351395668
0.637500000000000066613381,0.0145735037799910784744872,0.0952300445806508605306462,-0.0585792631042408099006913,-0.0067393491708759726069311,-0.00051774213119898089639076,0.00285218268569926774666512,-0.0185810646466456445835558,-0.0648774579176419757819971,0.012969401733938750245767,0.997635350045740332269872,1.27870462249968208645612,-0.351918316795941266139636,9.73096924345419012070124,6.83224692090352871652603e-05,0.000408546490920506097984516,-0.000331203977212130896718573,7.51060935381980776526234,3.04324738856933585395836,-0.0514611439740032816647641,296.784498686941446976562,320.553965166768250583118,293.103750824026974441949,319.720196695078584525618,89.4972104911402368543349,46.307474577281439565013,-48.9099977115642587932598,-34.9301315849401987634337,166.88769058604725614714
0.640000000000000013322676,0.0219885145208760096613432,0.119136466247427741382836,-0.108631230851924442948331,-0.00857649837148822050125752,0.000854318686252297028634051,0.0020893558583658044212894,-0.0185839340825466950435363,-0.0648819315998513806986736,0.0129648412128131919340834,0.99763505287393750009528,1.2797255298449556892848,-0.35340797840034066101822,9.73219925728720447466458,4.04110195163701448398119e-05,0.000418776149857815437049791,-0.000240154474493492990768914,7.51061364293546773751586,3.043250475833652046731,-0.0514593678176605145990763,296.995155434252581017063,320.6687538709321074748,292.96385315815410876894,319.65811902482460027386,77.4327694962510690857016,46.658915559420250929179,-65.2952510139485013951344,-5.37625742381362758948171,166.888618748947806125216
0.642499999999999960031971,0.107762845414253877196487,0.108688429915629575228664,-0.14165986027461080487555,-0.00935373748672216343003072,0.00220543349218237051331815,0.001155862149325674777256,-0.0185863243393249652490873,-0.0648818960913354753072824,0.0129534703684114280153317,0.997635134417110713833665,1.2807904013975701662531,-0.354857433857002413368775,9.7332273231945229952089,8.3195304271970936337401e-06,0.000419234048267157677260947,-0.000151378932220952422925409,7.51062005781123787073739,3.04325348742910950505802,-0.0514537161799402259498848,297.171662534422694079694,320.787259744565346863965,292.777274568957238898292,319.693315407959516960545,48.0108538872286345622342,37.8295611437237866425676,-67.0933385378588695857616,32.5807765987860591394565,166.889831959363107216632
0.645000000000000017763568,0.212841546089319738621626,0.0785871087491333136787475,-0.14586245052779825415179,-0.00848247736974475780025173,0.00255652038811386836045236,0.000549429296161542597178029,-0.0185871879544952239848854,-0.0648767364961364417785816,0.0129368125679445878511986,0.997635639659049666683188,1.28188101617364647033526,-0.356216054146930638513169,9.73405041245697333351927,-2.87662987727342060100075e-05,0.00041035433624595749101463,-6.90195358255670871538631e-05,7.51062771247706972843616,3.0432566877347335676518,-0.0514451366718435831870693,297.235209703688724403037,320.857901676650726585649,292.628386465464814136794,319.821022907818530711666,7.38444722272787945627215,20.107295705827237242147,-52.6052092803410644705764,65.8895526867581224905734,166.890925662303004628484
0.647499999999999964472863,0.314054796567415972496917,0.0480070319196565231667506,-0.131183655119567532665315,-0.00657035702338138773159759,0.00210972231661416074338655,0.000171978609431153205752002,-0.018580949673566177909878,-0.0648645368495701646338603,0.0129181322682673568186251,0.997636764959578981049049,1.28295406133786871194502,-0.357347458396668316016331,9.73468048780184069812549,-7.04558545166424115202206e-05,0.000392834498903987187467396,3.78830267633995135354453e-06,7.51063464038626449337244,3.0432603836722083023858,-0.0514349891061319300367138,297.208584770536333508062,320.887796223094483138993,292.51424852255553332725,320.022763171393307857215,-23.3172347729350590839204,4.46279256966590409660967,-36.476284094726416640242,85.1043605379572198899041,166.89210464708992276428
0.65000000000000002220446,0.393895874895271003168773,0.030759145308529828310995,-0.106954101903539530726839,-0.0046442514153658019313009,0.00145927845791321455885814,-4.33861864599623665134619e-05,-0.0185700743825940768616523,-0.0648402849419564414334971,0.0129089582018270705721097,0.997638647609645157210423,1.28389889099807308348034,-0.358284375082361050690594,9.73513833217447199785965,-0.000115071233535822268806599,0.000367664720900133339381161,6.52341446700200288093957e-05,7.5106382991470299614889,3.04326350629979236472877,-0.0514246931456685957284591,297.118623529824049001036,320.880215639499056123896,292.446005044991181875957,320.246544710508317166386,-46.1735764315562420279093,-11.1043303181759149822483,-14.1415797074159730328802,84.1458073742500545222356,166.893353756268396637097
0.652499999999999968913755,0.44392385867461170434467,0.0360125465078915824035377,-0.0783905817359873829941463,-0.00326184215821739061785811,0.000976428921366691271975513,-0.000122011888633048515067844,-0.018566340494175562203516,-0.0648110586232009816542998,0.0129159265169976299192367,0.997640518501784812066546,1.28483759011023912499638,-0.359241569462900478537648,9.73541232583603033390318,-0.000159919370333463207274269,0.000336109574796317005750124,0.000114958343587767469404226,7.51063803569435517459851,3.04326513346556737360515,-0.0514171525596762088450298,296.97771688837855208476,320.832274571503603510791,292.443540624018453399913,320.443492208264558485098,-66.1786932647032131171727,-26.6019530575135583205792,13.3007368232597276147544,68.8366151559193326647801,166.894686680933148181794
0.655000000000000026645353,0.477878362200710560259154,0.0638626684524217780314359,-0.0461247013005135347851748,-0.00221163809087535859904117,0.000888145967833816035036376,-0.000129287029086053184036287,-0.0185711205919188784840834,-0.064785273474246327096715,0.0129369557263741899455489,0.997641823623253487518525,1.28592134774181077183641,-0.360222757056026521294001,9.73549807954780810348439,-0.000201820542019227178566834,0.000299592165429513838242892,0.000153881427515719141317641,7.51063447869525191435969,3.04326555436294210466031,-0.0514132569112442094905191,296.787730063500532651233,320.747205874211488207948,292.512508729107480576204,320.590727786287914113927,-68.0575790091324392960814,-31.5338716830751479847095,33.9777578363623149471096,33.804060525198991626894,166.896382160051587106864
0.657499999999999973354647,0.491540856962746353087113,0.09635544942134711965398,-0.0239814314304562549440281,-0.00147335476430524134512645,0.00129777196940540498829031,-0.000101261397346090876829539,-0.0185815698072777472915629,-0.0647631943199988568959924,0.0129683997329551325972119,0.997642639786352591890761,1.28714040046366373637454,-0.361148999965751615892628,9.73541615566332652065284,-0.000237689298739902058919468,0.000259542007338060961522258,0.000183802691809867774002871,7.51062865234509846601441,3.04326494799471447549877,-0.0514121591772616556847986,296.637428993332889604062,320.674605213088227628759,292.613429413200265116757,320.612512510890553585341,-53.7877784563988328159212,-23.7034086784092110633537,42.696685089208550323292,-13.8773704035997855754658,166.897874376896112380564
0.660000000000000031086245,0.492763113395338236966126,0.128416448712896119621618,-0.00821627849379582761435437,-0.000518161366536038880785398,0.00198202762388862514450483,-6.61875793057270679761381e-05,-0.0186011598047791416876695,-0.0647473405687288422472037,0.0130039725020064146632226,0.99764281806011168018955,1.28852470576147437597569,-0.362066468903723792660543,9.73517646728898711216971,-0.00026500019265495811191663,0.000217255519279415873490358,0.000206964753374386115428174,7.51062227197318765803402,3.04326336654940421411197,-0.0514130548925628844125768,296.518791171218538238463,320.62868883081944204605,292.725992154553523505456,320.521340934269915123878,-39.7604475212346741841429,-10.1572942818506728457351,40.6604201979575563541403,-52.7678409913505177541992,166.899448157899115585678
0.66249999999999997779554,0.481436141456202226773797,0.156506277348797850912376,0.0024006955300135729598765,0.000637452893253923243144232,0.00262794546997406402652486,-3.57028683535133670341744e-05,-0.0186260824096873486843684,-0.0647419485860765697715635,0.0130328543205308396840669,0.997642296670586237183898,1.29013846113518071412329,-0.362877648633962490709592,9.73478848357915360622883,-0.000282039268206733014909132,0.000173780744834405124219293,0.000225687741391954091018518,7.51061673962172893226352,3.04326124198184100322351,-0.0514149500004722967427817,296.438626755726716055506,320.623818741678974220122,292.816731514190053076163,320.34867330593380074788,-20.7431409947389333581214,11.003956209970045421187,23.3662694168287785601024,-82.1131503894888936656571,166.901089014798742482526
0.665000000000000035527137,0.450398497342807457854974,0.180818684120043399188305,0.00783195835029126298520996,0.00203283873943870766615172,0.00288153544649177254660666,-1.48497291629791006357421e-05,-0.0186424198320017317498376,-0.0647458861518790812494828,0.0130486497705059271284833,0.997641497589782155763771,1.29193986059399135157832,-0.363295586706310735802816,9.73428059793364930385451,-0.000287912636881718618248743,0.000129847353922901909617157,0.000242120674577648453294418,7.51061295356711866588739,3.04325972557072965685165,-0.0514170362143252443476449,296.415075466244843482855,320.683708611869292326446,292.842823501637667504838,320.110775182322470300278,4.28148450467915253625506,42.9176505349232328967446,-11.1013968770521280760022,-108.963623159706813225966,166.902810080946466086971
0.667499999999999982236432,0.387485787544228799106349,0.207866645197683913570685,0.0100770029658488781409975,0.00385574283078806128582938,0.0027221538465198600112438,-4.71595665216751614015134e-07,-0.0186348080520199049781027,-0.0647543838503939206407978,0.0130515102315074457001165,0.997641028765985704573893,1.29381256032599556426987,-0.363016863799000666368499,9.7336889800770638458971,-0.000282374999303594412854851,8.59006019815118263905154e-05,0.000258120597192235308198899,7.51061054171577247018377,3.04326012721064032007234,-0.051418690175876878567518,296.460034178250111835951,320.838406994353590562241,292.761224529804792382492,319.80385519013526618437,28.7345962276617434838499,70.2050310483854786980373,-51.2304787907509791011762,-108.596075061154706986599,166.90496721669663315879
0.670000000000000039968029,0.317269780345068419524779,0.224749297455152818869806,0.00961881486149181175182576,0.00515721660654720748251378,0.00268700827795678156770243,4.76758732553487459329949e-06,-0.0186001553557783166903405,-0.0647587554635874890207603,0.0130498274229497515652731,0.997641414961289663132504,1.29555676764215976781713,-0.361992623801451696152753,9.73304800786486268293629,-0.000265611035834937897134878,4.22892176095468586114086e-05,0.000275232359189153989124238,7.51060823967323987204736,3.04326235266761191411433,-0.0514201344701200949161013,296.558748447383152324619,321.034733767111220004153,292.586671107683912396169,319.567794807016696267965,50.4484163694541649647363,90.9963397970613243614935,-90.108833561384841459585,-84.1576225950802125908012,166.906840790990059986143
0.672499999999999986677324,0.240990116003073462369599,0.22123500827351161301948,0.00795473932602146563408674,0.00563488211177011043967466,0.0032565797459204503042085,5.82137253853861468151903e-06,-0.0185578877700744784839948,-0.0647546644380805058727191,0.0130512552534062901965495,0.997642469149483068768802,1.29705241764266454573828,-0.36061989020322876564606,9.73236192661178201035455,-0.000238114493052739929811537,-4.8118006753973993188658e-07,0.000294695363003971320340485,7.51060556451644067976758,3.04326477365399528096646,-0.0514231789810920200678446,296.712276260097382873937,321.293388693338897610374,292.310680361997867748869,319.383067077159864766145,75.6831510436654042450755,125.762905988926718237053,-136.651754217723350848246,-67.7555645022834482915641,166.908792786045921729965
0.675000000000000044408921,0.159452836158438915337143,0.171207986807641737714292,0.00554480142803637394977034,0.00528610779681041274835618,0.0047451742986780835742433,4.81877364935730470059524e-06,-0.0185205364083519397055966,-0.0647415445561854707712257,0.0130555620230488073768571,0.997643986187297993062373,1.29825999082887855173851,-0.359155982383159100290726,9.73162875832636586892477,-0.000200710950077817275793643,-4.15688540206447766037906e-05,0.000317325268835223154705732,7.51060229450307303977752,3.04326667508718884391783,-0.0514282679600141026665661,296.937164202601479701116,321.663548297055854163773,291.903412336595295073494,319.22901698450527874229,84.6705457833422059366058,143.668513844477161001123,-152.847609294621946673942,-47.8646638049894619371116,166.911225843192653428559
0.677499999999999991118216,0.105312586955375056541051,0.0808513406658669248061599,0.0036376066244743605025691,0.00471161209630698019079631,0.00633827792729015505185375,3.32076869517630237119924e-06,-0.0184907523078995036924788,-0.0647180905388150679025117,0.0130589898002007927940715,0.997646042575013991537958,1.29913256626840967200565,-0.35766448098948161460342,9.73085464095279562002361,-0.000154660507321469244254239,-7.97722911742147116134771e-05,0.000343287666951354883751457,7.51059889975555083907466,3.04326763444716918982635,-0.0514329780494282781666548,297.135628989014094258891,322.011731262561283983814,291.546442315524757304956,319.143743758134917243297,76.0085873923002708352215,144.663422686448797094272,-133.763790145576308532327,-31.3950994239234830729401,166.913329274020014736379
0.680000000000000048849813,0.0577981635800718859807823,-0.0551037812983837249625196,0.00210902976322390389371519,0.00454331276113718266623787,0.00751060781596893378697644,1.92542268049072295223222e-06,-0.0184769554101413754909622,-0.0646888865101078874841889,0.0130552630001014059735187,0.997648261361668620139653,1.29974119266222598589877,-0.356324516121745038521595,9.73002612560054203072468,-0.000101728397421768765231803,-0.000113626926906665908965054,0.000371985720145992396299534,7.51059601192150694259908,3.04326719934603762141023,-0.0514360853056756231471702,297.317207139562981410563,322.386865410488098859787,291.234593385867412962398,319.072041487385661184817,66.5494865817321965550946,151.815830060547654056791,-108.168306697507333069552,-31.4367809742975339304394,166.915512245989049233685
0.682499999999999995559108,0.00159035464491571088170574,-0.209598126170989412786483,0.000960313707041423963127469,0.00500343801757509049760175,0.00770937031072964091410471,8.43981029953951048911906e-07,-0.0184814884719323481443443,-0.0646586384275208425620463,0.013037173475546474585296,0.997650388044321489999788,1.30016569564273676284927,-0.355199186220370000111046,9.72913437493950006285104,-4.41556966789993478794338e-05,-0.00014155990898056630385507,0.000402173486054586797056043,7.51059466604435588266142,3.04326567898792887945092,-0.0514364901662905868451325,297.468376421922755525884,322.770810412864022964641,291.005600782037220142229,318.986559853263429431536,51.5281871429237554593783,151.637803517485139082055,-63.2632236015410285290272,-41.4030974714364319311244,166.917762037371488759163
0.685000000000000053290705,-0.0819774142786035969754366,-0.350603270884127682371911,0.000247718077955943148920487,0.00600182165457547288356377,0.00646431969547279355881031,1.66415946421302212417326e-07,-0.0184942998883303455492921,-0.0646354775681476784177093,0.0130037814977426464252419,0.997652096938058674524541,1.30055856517777557179727,-0.354121535862904401881224,9.72817188836124024930996,1.55245451892493966717431e-05,-0.000162064035908587720418231,0.000432235621688798041153262,7.51059620785714887603035,3.04326371349701174651159,-0.0514343758926319449820141,297.574848075277600401023,323.14505442807552526574,290.918277267859707535536,318.865026000028478847526,37.694406379171105925252,156.601568785253988380646,-0.540536555558901010698492,-62.2709504352769158685987,166.920093772342795546137
0.6875,-0.22009862117358236499598,-0.459988034472938012164889,-0.000195561061040980585902863,0.0068348595251071985953728,0.00368475345837756965497456,-2.85545110798533437731562e-07,-0.0184996074983399053093258,-0.0646279942479797142595999,0.0129587211492288266467821,0.997653084638425169394793,1.30108599740150188139864,-0.352821739789374255735765,9.72713561885514543803311,7.48291965568428213678026e-05,-0.000173829355290616932930292,0.000460500694274397059241322,7.51060007406001250984673,3.04326196512247637571136,-0.0514310576897465954182564,297.656848453818611233146,323.553818256790293617087,291.002898099259425634955,318.675205101087044567976,24.8365146504056397702698,138.977414445855515623407,61.3414900362840285197308,-73.9296802125863194987687,166.922988756835593449068
0.690000000000000057731597,-0.355747721678710104864507,-0.482641039127903626049232,-0.000305925867500153115304679,0.00652395268183723116978134,0.000989947166740048119931705,-4.59319158210598518834582e-07,-0.0184928780912754983645208,-0.0646355558817877234867311,0.0129122480274252229848209,0.997653348866638367553605,1.30173344260428769381122,-0.351259271066056033561154,9.72603968820188491406498,0.00013168558053832572860703,-0.000175800823663130583590641,0.000485450881062527035952198,7.51060428660901457931232,3.04326031267124585966144,-0.0514278208113698592773844,297.699030648529628706456,323.839941500304803412291,291.224984718041127962351,318.49537759896554689476,14.4068374427092624756597,98.8077720611499046299286,112.895535913105405256829,-69.942117934988289107423,166.925483793773906882052
0.692500000000000004440892,-0.48749262739274257238975,-0.436776034838395943449285,-0.000246393095007269003447747,0.00510161278480606231178207,-0.00112431664240747594338266,-5.06094055767488552728087e-07,-0.0184861963065638228165266,-0.0646528568852479251782839,0.0128774766599707157777033,0.99765283649571201429751,1.3023940440522900896525,-0.349723245227631152065584,9.72490006904825499134404,0.000184618619564454211103011,-0.000167188329930112797435879,0.000505779476033316860959788,7.51060730465130799160534,3.04325797650696472373966,-0.0514254701754736712193683,297.728882641032157607697,324.047857117096043566562,291.567375778824953158619,318.325494511412102838221,12.1125381767910660357757,69.9777964777353531644621,164.384530714425949327051,-63.8019579562068770428596,166.928066680977906344197
0.695000000000000062172489,-0.612123319072894966907938,-0.332921690929780356160705,-8.12948305992140666034751e-05,0.00260128144693369230469604,-0.00227535825760211314616743,-4.3594808251851769064327e-07,-0.0184844465698104122586276,-0.0646768502474389106460251,0.0128591903519639314673606,0.997651585089605941192303,1.30301394690492888805977,-0.348352137576297626875288,9.72373392288193549859443,0.000232704505505848850081124,-0.000147485690349693468643999,0.000520343902855191693147818,7.51060994048942998091434,3.04325467391834658670291,-0.0514231808394461364919437,297.759593339413584089925,324.189830482693480462331,292.046907371613258419529,318.176367809184512225329,10.4128331722677014425926,33.304466735648901476452,175.702022346149391296422,-40.7086601353853083651302,166.931270086623499082634
0.697500000000000008881784,-0.675257794028533031571726,-0.235296114220511554115944,6.75514557029539326358722e-05,0.000274822581590730794388194,-0.00219904365093995723609566,-2.2996333505783721305461e-07,-0.0184838117916408008201135,-0.0647010669460273690756225,0.0128583260860136317643709,0.99765006576447279318387,1.3034793393595884847258,-0.347107742254443574214662,9.72257474057719228710539,0.000275437392444817649370115,-0.000116574647320083141298179,0.000528126440994185794401694,7.51061250799100843522638,3.04325096745488021809933,-0.0514193975975772432640554,297.780946806893496159319,324.214379450774288216053,292.445885890555700825644,318.12195121073517611876,6.83167990032415506362895,-8.04614169130672252094882,147.354420385135966853341,-5.68538989467696787016848,166.934027835573999709595
0.700000000000000066613381,-0.694058518820239611635259,-0.155015798827430162365459,0.00015472652036388571126016,-0.00176560740633941413990637,-0.00169610341972831158915969,2.37916279356249409021931e-07,-0.0184859831746014349751484,-0.064721412799314897990044,0.0128691511452010010768676,0.99764858013664681202215,1.30372568429418067559311,-0.34604978063121111242495,9.72144675113260525733949,0.000312680437344933347815212,-7.48483766995974988478837e-05,0.000528325036255763969515742,7.51061492652053530605372,3.04324695132060263347284,-0.051414045152056039866828,297.79375173891520489633,324.149599774236946814199,292.783679473538938964339,318.147940859711127359333,3.24181681160098111860179,-37.5818732667312005446547,119.009176675808603818041,20.9157941849866624295373,166.936878980534373795308
0.702500000000000013322676,-0.68239482317093003160835,-0.0997690277996964303142136,0.000138843482727701953436186,-0.00331588690137474316824151,-0.00122524293876285074282595,1.02538665866968293463764e-06,-0.0184900815065811158222076,-0.0647356063543467058485348,0.0128853511167724178732019,0.997647372171139745766766,1.30372584494273069388726,-0.345184253239740612695385,9.72037142701332257388458,0.000344643930409482964708628,-2.32825239980972845729029e-05,0.000520569197671412139429015,7.51061660166188094223116,3.0432429882838696322267,-0.0514072213833453792175554,297.797155890951501078234,324.026470084440632035694,293.040931773934744342114,318.226530181660109519726,-0.554946358113295956648869,-57.9024496808996076424592,81.0911351819203503055178,36.7099992765709970399257,166.939808807085711350737
0.704999999999999960031971,-0.643816596426125542507179,-0.0741605726014467614426451,-5.91337261655670268396812e-05,-0.00442063601062075636760618,-0.00104384913435525252325964,2.28489025413105626194691e-06,-0.0184913570302013378909844,-0.064748532052094631694672,0.0128981552126594036650209,0.997646328084848321715583,1.30359465017372833095521,-0.344435695777158268349183,9.71935385572542465126844,0.000371835629323261573301457,3.65426752339463901410842e-05,0.000505137457767631322010093,7.51061762242701114189458,3.04324061874995033250002,-0.051400429366727833080386,297.790977007124638475943,323.860087525832454957708,293.189135149448532047245,318.331490856093978436547,-3.40733228948692756787864,-75.8755333980501944779462,42.4092025575418674065986,41.126931316603041466351,166.942834854133053568148
0.707500000000000017763568,-0.572790436083269627332015,-0.0659329793867769464732476,-0.000565055344942845842390322,-0.00583638191290778568509623,-0.00128030666861934710673565,4.2602868504633838224677e-06,-0.0184852815367305793603503,-0.0647650026470192735628117,0.012905683462834357036475,0.997645249393775968016485,1.30344264350008498531963,-0.343736679071586614941936,9.71839759195165875382827,0.000394950897753141389953657,0.000102538409781781017374516,0.000483069274217843994470578,7.51061777553214859892705,3.04324024048994878910435,-0.0513955139548512227043453,297.780119229504066424852,323.647092417450380708033,293.252977786722453856783,318.432164838243124904693,-3.30332058778139669996676,-75.973436276819867885024,8.82074912798315580175768,26.0879368399855344762273,166.946578875234507677305
0.709999999999999964472863,-0.492115836561881403454777,-0.0667241333110976803100201,-0.00122731992814854363495203,-0.007316598425404653022186,-0.00181388333258538769071633,5.94817155036464640928363e-06,-0.0184755469818525148995025,-0.0647823996114778866139972,0.0129141804302153658662311,0.997644162310612592214909,1.30322957147668327948509,-0.3431833527913900616646,9.71751719937123681347657,0.000414727208635040818507367,0.000172329978223180664033409,0.000456065481227287637926854,7.51061691268947573263404,3.04324102461353174220449,-0.0513932852128833814187026,297.7744604041857314769,323.480220344448355263012,293.233238895088447861781,318.461930540293906233273,-0.997618904807494821795899,-61.6385402410855363086739,-16.5750841723024535667719,-3.12947438186483584132702,166.949793816006717861455
0.71250000000000002220446,-0.387286505410566084250945,-0.0657596770469689312355044,-0.00210764424923662145594516,-0.00888146095130739991752034,-0.00246541634945036079729075,6.69283908277565919874887e-06,-0.0184743322097295596673217,-0.0648015161116612670166859,0.0129295821467443616814563,0.997642718439029740906676,1.3029782660254167758751,-0.34303163438251565997561,9.71670977897209375839793,0.000431783266327956361495255,0.000243482854810029615295203,0.000426193916156360902425249,7.51061611868500555999617,3.04324203914389501690607,-0.0513934759577576519284925,297.775131134980028946302,323.338899716244952742272,293.170102365860941517894,318.416517466333800712164,0.474939123205330826493764,-52.0292643003699097903336,-27.8963418983835005349192,-29.9296357617208492740701,166.95310821781603749514
0.714999999999999968913755,-0.265302370043983770653284,-0.0615779461349398385405784,-0.00309120619238770731607158,-0.010191544030598041759017,-0.00286443107816131961249062,5.32874715685600204123336e-06,-0.0184837279563695236483944,-0.0648239235580257283642069,0.0129495844825881691736447,0.997640809824331342703374,1.30273097191419684470759,-0.34332277741103550683377,9.71597450661008998906709,0.000446497782921663932849399,0.000313636514668031503739326,0.000395529743126871603103867,7.51061632837471737644819,3.04324325451643540318969,-0.0513956080648327873205972,297.776835099801758133253,323.22007402294650546537,293.093757185596530234761,318.312282361485301862558,-1.64984193310146864952515,-43.8050412898064323030667,-29.612995662068872348982,-51.3593014067395898791801,166.95650563406266542188
0.717500000000000026645353,-0.133936959002125433038088,-0.0569043181432039510414533,-0.00403200808311181616017116,-0.0108207084120293742235397,-0.00264909507579201043692141,-9.81631499301739043856574e-07,-0.0184926983513979611983835,-0.0648442590982064026583487,0.012970499995397358206084,0.997639033843570222082064,1.30239734216281632939172,-0.343831140899621690021348,9.71533450341635074209989,0.000459027842087407489390927,0.000380529682661672472628739,0.000365836683723580761897626,7.51061778858207507170164,3.04324478620933369654722,-0.0513980292340120853422647,297.766881925314521595283,323.119874509795920403121,293.022037387550597031805,318.159720959300102549605,-11.3270221950528942045366,-43.768442728594401103237,-27.4346471251646768507726,-69.7696237356012147756701,166.960003591781088516655
0.719999999999999973354647,0.0136734418665280799132233,-0.0533247889581350206777977,-0.00482944631832764835477345,-0.010720528990878271796694,-0.00216667487624839930418497,-1.80275173066318116941661e-05,-0.0184965674422743441007722,-0.0648609140861617222695301,0.0129846984561679517494737,0.997637675131598511413245,1.30195815286808369570792,-0.344444820040006371986152,9.71479602913817608111913,0.000469453705411467566831901,0.000441997308752256580152706,0.000338387632936325961040269,7.51062072412680858946032,3.04324637081978810471128,-0.0514001101378591396251494,297.72019998882649360894,323.001231809303533282218,292.956583949970706726162,317.963434242807295504463,-25.5794870819954454077561,-46.7028202842470392397445,-19.7372737385307850388472,-67.6594951344554260685982,166.964317653077358727387
0.722500000000000031086245,0.113554158778522984452053,-0.0474991443409413516274498,-0.00502045764668354339149703,-0.0101347772984481058339279,-0.00203993309875912702880396,-4.25284800117531816142542e-05,-0.0184952389308236028742094,-0.0648702402369927544345529,0.0129879116139450245803744,0.997637025545530686798656,1.30135024840105484322805,-0.345139419274634595691253,9.7143650302213231384485,0.000477969662230746494390593,0.000495971561241677371713321,0.000313946879647599233226912,7.51062416840556856811872,3.04324855297952545640783,-0.0514014552305063140980046,297.638984489904544261663,322.88636040837468499376,292.923351018857943017792,317.821423483627825135045,-42.6601914084244171476712,-52.7794959325432913033183,-9.00423444927581861918497,-46.1261906419053531180907,166.968009779974153161675
0.72499999999999997779554,0.177559945907009325560821,-0.0266255529938815016510745,-0.00462532998038495124504266,-0.00933284694723496635604398,-0.0024546913258073495799072,-7.80210882268816149995999e-05,-0.018489209685616108530537,-0.0648777787648995712954658,0.0129760199616346209861018,0.997636770465185840350841,1.30068750002012367694704,-0.345899339185884391323356,9.71402178005529925997052,0.000485034550764630969284935,0.000540525680125085190158574,0.000292814606302167453662916,7.51062719202828166231711,3.043252321706283680669,-0.0514031145444841866543051,297.506899031784371345566,322.737334329640816577012,292.911562777724327588658,317.732803289597768525709,-68.4152972283413305376598,-75.0244457463394809337842,-1.43462870428265754085828,-22.692798255036429111442,166.971802372040144746279
0.727500000000000035527137,0.20854870969797351110131,0.0288917540565851865830282,-0.00376167460483778056182236,-0.00845757851188970281863799,-0.00349469818359015964304159,-0.000125771346658005604224675,-0.0184795774013454226769593,-0.0648896489951028554443724,0.0129484730706167176089716,0.997636507161900776274877,1.30009186061568615677686,-0.346721355598008929010945,9.71374359128185638212472,0.000491383084522547565475836,0.000574015762325897163122213,0.000274871557042683509804876,7.51062894883793408240535,3.04325795720156744295082,-0.051405471940847276279829,297.296908003762837324757,322.511238179642987233819,292.916177875336529723427,317.707959492352642882906,-82.6261006493268013173292,-89.5694229079594208542403,3.26729009124164493371723,5.31816555895829434774669,166.976468916900699923644
0.729999999999999982236432,0.19806219861982002350409,0.101497891931464079284808,-0.00331540437438341585585366,-0.00796483411702139654231303,-0.00445205034659635484617368,-0.000154867430392538929680157,-0.0184748380602318199028566,-0.064903008064288419953769,0.0129168954774190707091019,0.99763611996838008622035,1.29950266215858145635309,-0.347757564981969136130857,9.71352497872674902623658,0.000497902264107055823189052,0.000595304368541500110792453,0.000259570128016307823809461,7.51062868559969931681053,3.04326478980556380804501,-0.0514081118608974291239733,297.093768528537736983708,322.289487215101019046415,292.927899228180535828869,317.759394117392560019653,-82.1970247563967149062591,-91.6116562231422051354457,3.86103074215497699128719,35.0081321571564956229849,166.980453156163548555924
0.732500000000000039968029,0.154359271216640198121084,0.185831151320764081935621,-0.00428948165416729795818007,-0.00754627347098331749397637,-0.00465097429423349216504047,-0.000138146847171468733876665,-0.0184887968550526901601039,-0.0649115893409178412731819,0.0128942142812831124498718,0.997635602166544344093779,1.29878925048136095732332,-0.349263224815164752268259,9.71336541276151166357522,0.000505377852901651644645931,0.000603989529124475984893372,0.000245915747795242482613698,7.51062655436574821976592,3.04327178964114875014957,-0.0514101087740265888514912,296.885922879980853394954,322.053179898527275781817,292.935483029047304626147,317.88300015313842550313,-80.0211289348452936565081,-92.7609637990030080345605,0.52028263547754205475826,60.4643801483916263350693,166.984535504327141097747
0.734999999999999986677324,0.0864164553985887068376925,0.257214853161970291584026,-0.00728964343581725311010944,-0.00716706906498913807329609,-0.00367967615319632910045322,-4.23943536223866229966512e-05,-0.0185203479757090026802668,-0.064914144577857241236174,0.0128818406922219814286779,0.997635036657931073555972,1.29792612138454166448298,-0.35118841501569403318328,9.71326254101034258781056,0.000514210676896887579172268,0.000600530732016925535010632,0.000232515693980126164977507,7.51062399948131798055329,3.0432782088949528187527,-0.0514103545795849964372692,296.693662883863510160154,321.825682396106003579916,292.930500641357923541364,318.061716018134518435545,-69.1896842432469725281408,-83.8088094943940831171858,-6.20953620583576970659578,83.1621372568860550700265,166.988698534674625761909
0.737500000000000044408921,-0.0062197198329398371841048,0.284944185325966214961113,-0.0126474955613077900962171,-0.0070268209035863069336636,-0.00159468887432317172649088,0.000213569563817575785308334,-0.0185557250916954588615404,-0.0649062640110149580152665,0.0128763831906721689518625,0.997635002136877391265557,1.29683110128254619475285,-0.353230248110583400222851,9.71323188198098819157167,0.000524264371231428390196516,0.000586212644530041552051736,0.000217802366568790200553052,7.51062133142585164335969,3.04328389224903439469472,-0.0514078634663090866530055,296.539974458764618248097,321.634135851055305010959,292.904435348018125750968,318.298810839422856133751,-55.5658820873758898528649,-71.3531570642884958033392,-15.1632146274778136785244,114.611666728035189066759,166.992958103277942427667
0.739999999999999991118216,-0.138787551326908425997075,0.251505386268242647762605,-0.0175658998405522279173674,-0.00704059499194963252233226,0.00121628863159133982288496,0.000645625084911516009499033,-0.0185904148808580110818767,-0.0648917854255613713032602,0.0128745930065511087619923,0.997635360399403259279438,1.29558026891249578049781,-0.355271544000361150228429,9.71326197783332645485643,0.00053486799923496805737877,0.000563017002470210525810757,0.000200380876425571008425663,7.51061960613247681095572,3.04328819216911172773621,-0.0514034056712934506183643,296.4158334734266304622,321.468916610784560816683,292.854684568220534401917,318.634774351774694878259,-34.8922103247559505234676,-48.8002034324835705092482,-17.925777381776683228054,128.51661776651314994524,166.998180276047605730128
0.742500000000000048849813,-0.260359984912432451675812,0.178664584731317327426225,-0.0123651626667551344657126,-0.00727039850354640332374956,0.00280576309981163700066342,0.000760260447437758842860467,-0.0186184050392175365340464,-0.0648753479949901734613604,0.0128761202726787420125287,0.997635916169128389441312,1.2942653331686757578467,-0.357173381765650221897346,9.71334085520955170522939,0.00054492278269814759840417,0.000533445764369653088743384,0.000179357346630084225208579,7.51061969738421186804089,3.04329058992187917453975,-0.051397654371624697244858,296.365513407140838353371,321.39013483389288694525,292.814806461109242263774,318.941393928255422451912,-10.3196002680306175847136,-21.2098467481609809226484,-9.04348996102725344314877,123.826409788728028615878,167.002623686088014665074
0.744999999999999995559108,-0.382007106516950967201041,0.0953207571632781330839279,0.0168082573622627753917591,-0.0077545106217497324768706,0.00276369669524839049051801,0.000352220843710324355360641,-0.0186366061394634026371353,-0.0648604915101168438829049,0.0128789544376863469843375,0.997636521492112238185257,1.29295747630798341099023,-0.358855958911244943276841,9.71345716544652049151409,0.000553123390779427788303824,0.000500269023363095004762469,0.000154565845383441481143694,7.51062204166735458699122,3.04329104085526314094068,-0.0513917255320898921922002,296.364235472086477329867,321.362867377043755823252,292.809467118415398090292,319.253906400718335589772,7.46212382324528622490334,-5.34554151512338204810248,13.7945968892836265951019,134.123205706828116490215,167.00716141868170439011
0.747500000000000053290705,-0.509100874653866997121554,0.0323784901139431424699211,0.0931982399742000977571621,-0.00882546719511846482209005,0.00102449720317396471280791,-0.000556655924989858988914671,-0.0186448976860416372469675,-0.0648477809344308736561047,0.0128813180204049929078458,0.9976371710693098249223,1.29167029563728941177203,-0.360301726976760883225381,9.71360425951312933534609,0.000558255316887355237595592,0.000466232806505993951223799,0.000126640894980940154788615,7.51062579082005488118057,3.04328978468499089515831,-0.0513864553065119522567983,296.402824026257064815582,321.363407126317270012805,292.883779445555660458922,319.612009956789563602797,17.5771808799822650826172,1.10836961165432423825905,44.5321571198860084450644,125.662489298440391394251,167.012714856232832971727
0.75,-0.581939042551223528754178,0.0325582115156935816835393,0.191935882951741493274156,-0.0103289806852791491570409,-0.000882850955743972915130968,-0.00108406026460622730879513,-0.0186511120137600530655142,-0.0648328721425159293367813,0.0128900788142679006281766,0.997637918301375048457658,1.29031746501008171001956,-0.361662857998342468501818,9.7137807670699096718181,0.000559446946136811051712712,0.000433768363050207042194706,9.69551400946038551172113e-05,7.51062956136468518053562,3.04328651470513111831906,-0.0513825872544175152323298,296.452121376486388726335,321.368409225102027448884,293.03212790401482834568,319.882218847210538115178,18.9063149627486204451543,-1.88328496265057587777392,77.0173390200283591866537,100.156104821166906049257,167.017432180258083462832
0.752500000000000057731597,-0.59989863434650303464224,0.0826863408560713358808059,0.312899175703175436158432,-0.0122987425733165865737728,-0.00176459735931950656775968,-0.000782707025375295397003061,-0.0186630171787620612045,-0.0648198372993405158570823,0.0129110579929690057199299,0.997638285823164161492116,1.28897805758353012350881,-0.363094679715921242468823,9.71396218666722610635134,0.000556247997971564601439598,0.000404733691700611016277972,6.74163077443023920406334e-05,7.51063309572560822147125,3.04328147203785226437844,-0.0513813709679768679250422,296.497355601070808006625,321.353990701504017124535,293.268866140655802610127,320.112790480895398559369,14.1364901267024709596853,-11.2673235422562250107603,105.160306383504476457347,85.3252323144032942536796,167.022241507350770461926
0.755000000000000004440892,-0.561488048105629244943771,0.15084612962856874807116,0.43384080401171248864145,-0.0144419179638806058352252,-0.00122427790824534803160173,0.000245232086022274386061942,-0.0186780868385316677071639,-0.0648171890086068069880554,0.0129402237054324735499033,0.997637823484042951527329,1.28782524721859381600098,-0.364542831971487124587128,9.71411852742331838328482,0.000548572389036839518951238,0.000380176153790648700334098,4.01605729784824315399192e-05,7.51063628491903045869549,3.04327603076338970566894,-0.0513829494024344440861185,296.522803827119901143305,321.312072607390746270539,293.557929435932351225347,320.308845008782554941718,1.92554095336845243480184,-24.3466209169923573085725,119.659329488683752629186,70.6895516134636068272812,167.027126439040074501463
0.757500000000000062172489,-0.451902791176903906311679,0.206715052401301085938101,0.530982667070201364012405,-0.0165150892664015225275165,0.000587110797817934500740511,0.00171585721879075406293147,-0.0186862415360565942146209,-0.0648219140434656837523875,0.0129695376071250496191611,0.99763701387895542538331,1.28681211595915923062705,-0.365799601143269315084439,9.71425298821773530733026,0.00053660173286871617418653,0.000360193301602425839692823,1.71939557059042464031828e-05,7.51063862645522117844621,3.0432714161738538827251,-0.051386338712828494301732,296.506983305837650277681,321.23225759691905523141,293.867162788099221870652,320.466238238962716877722,-19.5540285697461335701064,-43.5438511970005137641238,128.61691051673449237569,60.7604462462745118500607,167.032101620695272004014
0.760000000000000008881784,-0.249993192469846442493875,0.233477170490672736313797,0.594007954694903417269813,-0.0183065265583899350332331,0.00313806984529826828861365,0.00356078713320456818891557,-0.0186817000535041376207968,-0.0648363641680636260122839,0.0129913307610675776010423,0.997635902514997008339037,1.28599537492324533793919,-0.366743922760521701142977,9.71435072467122218142777,0.000520666482634961759294601,0.000343977426527116174250626,5.5730526168642710322515e-08,7.51064068595307343656486,3.04326848029915408844204,-0.051391123488881515490867,296.425033684271170386637,321.094353351405743524083,294.201013988516024255659,320.612647240013927785185,-41.1898893487318318307189,-56.8171087474524441063295,109.154905702098304232095,45.7631066210296495455623,167.038174853231936367592
0.762500000000000066613381,-0.0424955453300461041821201,0.224562272453987604725612,0.586269409064031021827645,-0.0189144456541846250896555,0.00473885921107481452446697,0.00534150229014148086176261,-0.0186616511864801416786808,-0.0648588489210651653049666,0.0130017858517743299662239,0.997634695172678109820197,1.28535082701848679676004,-0.367316548728791492095525,9.71440433235601830119776,0.00050114389218745966289581,0.000330019773088362667213397,-1.03977899168888323830351e-05,7.51064250802860300382235,3.0432677994229782036939,-0.0513964653687500605538929,296.301033859093990940892,320.948172053181792762189,294.412937316609713889193,320.695053772067865338613,-59.6820476340666985493044,-63.6293748060892880857864,66.9822532430543446935189,21.912155442475960143156,167.043320645931771650794
0.765000000000000013322676,0.17520929040536753484858,0.208658316302450547174985,0.501977420584956757210193,-0.0184975500020283095681251,0.00510738296960759965981147,0.00765376627778828824699708,-0.0186266008415878550619205,-0.0648861228871964040854081,0.0129970707911094638525862,0.997633643161494276796475,1.28482304259977309079943,-0.367521681420470092138686,9.7144081332197735889622,0.000478403161469117448392763,0.000316428797326782505934528,-1.41179894838845686221625e-05,7.51064406721976762781878,3.04326968253935259411946,-0.0514015024299549344588556,296.126623446100836645201,320.776206477375296799437,294.535925254731296263344,320.722208017226307674719,-75.4619106229028346888299,-71.3876177920723762326816,35.0614993806288737232535,-1.38946258018677193390999,167.048552975703074707781
0.767500000000000071054274,0.378277257913725406535121,0.212630794570129871834396,0.352039741656856974838519,-0.0172861694417332859008418,0.00450841626433993569039727,0.0101383838613682327606247,-0.0185814146289760388774948,-0.0649158068753192818434172,0.0129792096682888099395958,0.997632788166030848309163,1.28436973262184683797216,-0.367454688696754849797088,9.71435225819541692260373,0.000452783377808232945747891,0.000301299469618371306735283,-1.18618841202777368961903e-05,7.51064522120234823177043,3.04327403553171693673107,-0.0514052836732196843927412,295.923724305979476412176,320.591233964221430596808,294.588244813512858399918,320.688106459166931472282,-83.6666776048672744536816,-73.5791622411056067676327,7.83745887606527702473613,-31.7179773527072654815129,167.053855851114917641098
0.770000000000000017763568,0.542011658754556480133147,0.262074452228179821666743,0.139033995487174266703079,-0.0153892663396778314049973,0.00353100686514492894882422,0.0118015648575141088305607,-0.0185401792659751936398482,-0.0649397183362745711310282,0.0129570647531352459158605,0.997632287802393991071881,1.28383001919610206797984,-0.367396543831659261325484,9.71423682481916195285976,0.000424574788035947088896127,0.000283085237248723519624255,-5.04204648569646365842585e-06,7.51064580019431549118281,3.04327943556523550228121,-0.0514069869629366418828376,295.708290058076499917661,320.408310666169768410327,294.575112549111622683995,320.563618130462771205202,-91.9713284345354225024494,-73.1629130291609897085436,-14.4656866032622382078898,-75.9918786354335509258817,167.059242055091942802392
0.772499999999999964472863,0.678589892091014279529304,0.374754037468388367937422,-0.144164815375246196937908,-0.0129451186298571406518843,0.00286771421108427326460144,0.0118146782904857746560046,-0.0185203281746062937973551,-0.064953997732110940743766,0.0129390251644940293407338,0.997631962670150418404091,1.2831262957428803961335,-0.367692153799236864930577,9.71405157679466135789426,0.000393990195294486081865892,0.000260848430998181148466469,4.52061984143660466374526e-06,7.51064604871978147571099,3.04328354467868589239288,-0.0514066946612598621446644,295.463867663806809105154,320.225419399075633464236,294.515916380496548754309,320.30814706598977181784,-83.9281338737804816219068,-54.6679564536361297655276,-25.1151715024434238898721,-106.547502979196806904838,167.065798722033179046775
0.77500000000000002220446,0.741567834180777096797499,0.493183603333514242184066,-0.362274039324559093966371,-0.011077191250635698080429,0.00325317903968634983269403,0.0102600198845286278565014,-0.0185258241533289361169246,-0.0649574285523220190663451,0.0129256033447189364743446,0.997631809000130820308527,1.28223922421444358477061,-0.36841215176949654308558,9.71379333709651149320052,0.00036115015636441395339637,0.000234248553841366646040972,1.48970389842586887455163e-05,7.51064655950787685156911,3.04328529446920814649502,-0.0514045430663006841509599,295.28864938870759715428,320.13497088390158751281,294.449536691599405457964,320.030880615566786673298,-61.9842005171903451810067,-15.2954837598485795524539,-28.1785437128405398254927,-112.120919302071698098189,167.071337128224598700399
0.777499999999999968913755,0.756919128750363712221372,0.596810806601476451227484,-0.521386566985037269716941,-0.00936731607360434710696229,0.00518587923768228098442279,0.00777434259002330284304971,-0.0185501153213983305256818,-0.0649454651079557493398298,0.0129142658853816077318966,0.997632272831928124112721,1.28108864791259402515777,-0.36941576574765261353761,9.71347921445232564963135,0.000326121778329105990040793,0.00020328650143483853462989,2.4341420703999333525298e-05,7.51064731753284853255082,3.04328512214786606193684,-0.0514009008437718711848063,295.153946661220857095032,320.148941980276390495419,294.375023661932345930836,319.747542469479412829969,-49.8943139335210190665748,38.4450319735151069266976,-36.2375107672164276095828,-108.02714386009019165158,167.076947969449975062162
0.780000000000000026645353,0.727140246627275610435959,0.65727306987120326375873,-0.622623132723613359473802,-0.00728136409517224705845173,0.00886883658231258503734651,0.00460775447909883475311466,-0.0185866913267191333214434,-0.0649223089939748448928825,0.0129007051053581876104426,0.997633252307829399008199,1.27976539132236988294267,-0.370562053915010680693598,9.71310834721428939531052,0.000288994909196344722072947,0.000167997788786968682171394,3.1510922734430220544001e-05,7.51064879770448357021451,3.04328416191549866454125,-0.0513973468158034560437919,295.039177819039991845784,320.327196043769163225079,294.268349137763323142281,319.490744896266335217661,-35.5260901870564964610821,96.0054529689272442283254,-44.9553356477621974818248,-69.0505516723077903407102,167.083757561344015130089
0.782499999999999973354647,0.666116992978217581367062,0.635979035145957105612524,-0.635724546035986715075694,-0.00544236549529177656564505,0.0120313234235214314843398,0.00244184345306039732315107,-0.018626152159521226076011,-0.0648920817316422510190321,0.0128820919813292644046099,0.997634690111435351589364,1.27835882289360980301751,-0.371655094020198528692589,9.71268637504375931257528,0.000249976837093745672593176,0.000128258939424589352151784,3.555134818810442594696e-05,7.51065072178959702853263,3.04328388646669667494393,-0.0513950322285010793854632,294.976316210285574470618,320.628969245121027142886,294.150246983693534730264,319.402289711117873594048,-20.2868142393867678663355,152.559498869618295202599,-57.4649039995051182927455,-2.9623201359186142056501,167.089489828279653238496
0.785000000000000031086245,0.573117660008890639211643,0.545353306500018786273642,-0.595292565763372305553958,-0.00363016008067441713069723,0.014065828172080468635996,0.00102273865958952517481173,-0.0186599706820016336683565,-0.0648585184896331018444826,0.0128589344505231368415155,0.997636501797351193943086,1.27694907653529310387341,-0.372520282833104343644948,9.71222313990521080029339,0.000209479401684267300997114,8.37928296437304110863553e-05,3.60036983473730669378515e-05,7.5106530395662982613203,3.04328538523790026459892,-0.0513939430730874433073119,294.937743747843057917635,321.089993538117255411635,293.981024617765797302127,319.47593329558674213331,-12.535121127370974392079,206.714840129722972505988,-78.6076146838012590478684,54.5335687170108442956007,167.09527328083038355544
0.78749999999999997779554,0.460765845793110528916259,0.415938243931481987925025,-0.53007462052202913849186,-0.00207233306022739293891788,0.0148875128952914367874705,0.000131995395678854711115149,-0.018681421575285916264475,-0.0648198334948704296687438,0.0128352708491859188177919,0.997638889256165062313642,1.27550675200142271670245,-0.373022109210931429590374,9.71174449669693196085518,0.000168173522614324921211834,3.4364907193406034119007e-05,3.26368850168867112408744e-05,7.51065494358119334350476,3.04328883133485694756359,-0.0513933667041830827271198,294.913640604648719545366,321.662543445769642858068,293.757208910274528079754,319.674957554702928064216,-6.81778216214751697776819,245.945083184801433162647,-103.57549651367881438091,101.060640817786321576932,167.101091837723487287803
0.790000000000000035527137,0.338552755364896540424269,0.264518119570537946216859,-0.454652062308857074501844,-0.00107654416397079399914105,0.014684133084247021072688,-0.000371945940738957643838941,-0.0186928879613981920038146,-0.0647722516522166863461862,0.0128206791721272219536365,0.997641942746337773151311,1.27395897629073950874101,-0.373210874292892735848426,9.71127737755950981579645,0.000126965919308067646913141,-1.99356314497092268510966e-05,2.53248844915068274056408e-05,7.51065439619604369170247,3.04329281300931864251424,-0.0513931119352043566661514,294.90365483703232030166,322.319718954041263714316,293.463147135197402803897,319.98123649967567416752,-1.27617491413047789983182,291.345830014097089133429,-143.230504796485888618918,143.896950559576339401247,167.106942807932341565902
0.792499999999999982236432,0.201060270784189615289606,0.0750946550698067261109259,-0.366101747895966833645787,-0.000573271470020551105958861,0.0143751444177785837191808,-0.000876566324583531557290694,-0.0187065413961774798523585,-0.0647256650485680123940924,0.0128209412223783750239825,0.997644719325929796305275,1.27249821450208133732929,-0.373328674589543940687264,9.71080959615705374687877,8.67931055055481666480471e-05,-7.84942201254924842076383e-05,1.39831881105886257193318e-05,7.5106512584186848613399,3.04329561739307230538998,-0.0513945028747464158214164,294.907259730078067150316,323.11927259584012972482,293.041056386292098068225,320.394442307500810329657,4.07539323085756777231836,281.202070858568959010881,-162.079961971937649423126,147.381915410175992064978,167.113987789562344232763
0.795000000000000039968029,0.107855050654483475280898,-0.0883072871775139184302716,-0.295064304929975984581603,-0.000629878289029456891849612,0.0145363237279602930396294,-0.001421134290878565270555,-0.0187220725410049866621609,-0.0646921502084248645214615,0.0128341524317911997304931,0.99764645894381354107594,1.27136674699055451931429,-0.373367482963145314034392,9.71033539412540491753134,4.82658427751613304046777e-05,-0.000140170947458912766026007,-1.53877373447925822942282e-06,7.51064657482609288052799,3.04329689928469893089868,-0.051398038365496397095189,294.924031803186608158285,323.725729308334109646239,292.652747325337713846238,320.718146076726554838388,9.77116130253533832217272,215.33513538513469143254,-155.872997118728875420857,113.297531650562078198163,167.119868104479138537499
0.797499999999999986677324,0.0475427084250722234437525,-0.260804085131563612165451,-0.221223845643494537727136,-0.000970045855143820230301333,0.0149400119954826438029016,-0.00222066405887853682635247,-0.018729479137955428597051,-0.0646722140736952916251212,0.0128551846884330037146249,0.99764737130381531127199,1.27058665474811172124703,-0.373126744224636819335927,9.7098872723494729086724,1.13422153907064802584636e-05,-0.000203448763082083531727323,-2.16735874542528290812114e-05,7.51064128890262150406443,3.04329703002484830420826,-0.0514024940819637690680999,294.956115536590743886336,324.195948272765804176743,292.261691400698452980578,320.960929965753621218028,17.7470649237079527438254,163.010277378464110142886,-163.752854800543303781524,78.3781832904082165214277,167.125745476595938043829
0.800000000000000044408921,0.0154353995361267235658653,-0.471626937146379487941772,-0.122117138899714261501828,-0.00134362497178773065802104,0.0149497362730828843579989,-0.00336083817746968402037644,-0.0187242148471207341120515,-0.0646628437921585863534801,0.0128771910194248103559422,0.997647816621748395604641,1.27011217919143004628779,-0.372513596687923220773797,9.709503658797293823568,-2.48465385416467418253084e-05,-0.000266600609882990764384902,-4.73314478600385697281035e-05,7.51063701416225004692251,3.04329624663803910422644,-0.051406185311236564372539,295.012767127805147993058,324.540780695226430907496,291.833983051334996616788,321.110036993178596276266,23.8054887091379683283776,84.8825732895078743922568,-144.05943837062963552853,27.2102138945797129565562,167.132779468236634556888
0.802499999999999991118216,0.0174193439365825132603138,-0.633185389136586618263891,-0.0307303645016603343975703,-0.00135464525114903085005469,0.0139219458968967337714195,-0.00413940605519085014218916,-0.018700316623701602330998,-0.0646608723930894579989825,0.0128918629793059041910297,0.997648216060157633222616,1.26989733662177939343962,-0.371409869644559631485237,9.70922509787355458854563,-6.19535980530809836418563e-05,-0.000327822321071641515927847,-7.99121358761412065941157e-05,7.51063472314499236404117,3.04329528504098778540765,-0.0514077345008337252552089,295.075142980136433834559,324.620361139213343903975,291.541394208845304092392,321.096981035226519907155,28.109169072808956713061,-12.4789269042139387977386,-98.804363143528831869844,-33.1278030369275882094371,167.138613720177062305083
0.805000000000000048849813,0.0398184036802974941626765,-0.749450747074414169723866,0.0602163296541574355469351,-0.00110589751574664829636419,0.0114951878384937922206177,-0.00431811679444016587731126,-0.0186594569697136336561272,-0.0646638292466260172774994,0.0128952564593288881988897,0.997648749789249666974911,1.26990760383081169315744,-0.369856312398450681744322,9.70908441574137448526471,-0.000102156093671444735213744,-0.000385307199172529803339604,-0.000121114854843816372440869,7.51063545661822651311468,3.04329428553061775986066,-0.0514059460203836957048473,295.153312973169192900968,324.478386060705361160217,291.339961235617352031113,320.94439797799395819311,33.7948414938636858551035,-91.2439635120335026385874,-63.7046978141028716891014,-79.4140189194990142595998,167.144405043286155887472
0.807499999999999995559108,0.072815577168768394478171,-0.807506531868475430080423,0.138202329707020094007319,-0.000812880258957519689910765,0.00826627527574592783909946,-0.00380789126068271054081915,-0.0186101243715451822313689,-0.0646660058742200977155434,0.0128929089373102327004128,0.997649560536756130346703,1.27004124128883888467101,-0.368041718639249837430327,9.70911618911752682947736,-0.000147715173086405889566267,-0.000437276329694249988287724,-0.000172549236564974807538533,7.51063934386024545375449,3.04329274621872292172498,-0.0513989068128459861140023,295.244117187605752405943,324.164141321653175964457,291.22287071977478944973,320.699910940629024480586,38.8720716453917347621427,-161.065846416943116992115,-26.854846801143114731758,-109.570404108535413456593,167.150149540551950622103
0.810000000000000053290705,0.113533534478956671387451,-0.786600137746686134398999,0.185750273669127802245171,-0.000553488199182123143983481,0.00492022635377837788683841,-0.00273197131951327188206791,-0.0185636494066944227054883,-0.0646593834268330003300917,0.012894908628387052526576,0.997650831516241454188787,1.27014993834148359752589,-0.366219038971065502519053,9.70935616421946434684287,-0.000200434945096583579668761,-0.000482043755543997733126194,-0.000235142274302308846222961,7.51064463610368981960619,3.04328992863600822360581,-0.0513875324612867376283809,295.347673331396151752415,323.673056828620644864714,291.205687001611636333109,320.396545957451280628447,47.2940861981100653110843,-244.916794575169433301198,12.4233611297313366605977,-130.629875017586869034858,167.155823428535654784355
0.8125,0.166607697825054634765962,-0.686704435546644509358316,0.198519757181384481903308,-0.000263843172169090658084334,0.00174322223287221326690211,-0.00144970760659820260655983,-0.0185328252471797898237593,-0.0646496918082243715586443,0.0129079697605448701774877,0.997651865715912800069987,1.27035409154988054858393,-0.364671799991700462673094,9.70980058050382055512273,-0.000261230598968565709029621,-0.000518166091655835074278325,-0.000308495546666989555427418,7.51064976597985900497179,3.04328557322435822030116,-0.0513759660605317414194815,295.480587618596302945662,322.939557348777327661082,291.284987525423446186323,320.046761565541089566977,49.1742582751498531479228,-281.763708132291185393115,42.0411567641167138731362,-114.546952226646581607383,167.162531045354910474998
0.815000000000000057731597,0.210485231247743737048594,-0.569675434198860797252451,0.174753363975653552842005,3.52614531079907910621728e-05,0.000278287531003163044352605,-0.000640460142742193747067425,-0.0185201984967236533974333,-0.0646453269188942691858557,0.0129309056017890399575831,0.997652083631572317301561,1.27083079867801274076555,-0.363476370586642782978259,9.71044080270244513997113,-0.000329953542991045210581308,-0.000544648344191709103852272,-0.000390544233332410244043803,7.51065410153370649481985,3.04328052149142447291297,-0.0513672405766775821978065,295.593544622771901231317,322.26423828795918780088,291.415892785432220080111,319.823811196318047223031,45.121472931339170031606,-268.752017795656911403057,60.3697529972577626722341,-66.1489210046851781044097,167.168021185515470961036
0.817500000000000004440892,0.24734119100435644766911,-0.458472424310979453920822,0.126415694366715014584912,0.000522016967248601780789141,0.000112285507927468368276347,-0.000184031735423798411188309,-0.0185214347588453960569144,-0.0646493831263991458602192,0.0129596453036048900320232,0.997651415576989220035387,1.2716543565923597025602,-0.36257098686241678864306,9.71127891582305835527222,-0.000405449221452965774536992,-0.000561086815711450887823875,-0.000477687079895017545003166,7.51065735117999633274621,3.04327565540645705866041,-0.051361849502424408719925,295.706194983252999008982,321.595797259799041967199,291.586836290409735283902,319.716016960517663392238,45.6809405507101047305696,-255.870943818660862234537,70.6494542045674620567297,-23.0394677052117700100098,167.173388209089921474515
0.820000000000000062172489,0.271975613959426654187013,-0.376267376727319025064844,0.069134353431937370371152,0.00125518746366354945129262,0.000571592336292812172419964,-3.6359182939096951388009e-06,-0.018536633004773588051517,-0.0646698063937983513849161,0.0129877119623664754460846,0.997649428165513829647182,1.27298926600185247082209,-0.361978614884182148259129,9.71229257127679801442355,-0.000485731445189028913141799,-0.000567678847367897808882942,-0.000565195802833239123279252,7.51065987159824466345981,3.0432714351806162689229,-0.0513607856365473555704249,295.821949325525451968133,320.984883568865882352839,291.769140056455057674611,319.708613857791988266399,49.2985466690128788513903,-220.623083971281431558964,70.8724413783328941462969,14.6652497326726791726514,167.178637211044815558125
