t,ang acc x,ang acc y,ang acc z,ang vel x,ang vel y,ang vel z,quat x,quat y,quat z,quat w,acc x,acc y,acc z,vel x,vel y,vel z,pos x,pos y,pos z,mot 1,mot 2,mot 3,mot 4,dmot 1,dmot 2,dmot 3,dmot 4,vbat
3.60999999999999987565502,-0.720694221453686334477595,-0.305472327417543820793355,0.146640677524407680998308,-0.00118771270353915667575273,0.0537787312488916119379567,-0.0146973542776245823249237,0.00686742754224909518478981,-0.00288981947289854461044523,-0.0166638241705957639016145,0.999833131132648822436693,0.0379166507521107865041898,0.0587355439552645144929421,9.89688540675519945466476,0.00830869510995247209650394,-0.000918820589161810363787453,0.00593190969689847032164653,-6.57009521718919842214746,1.92618551077219790634842,1.19774549551502285105187,1101.36929734888940402016,1125.11372197915716242278,1119.91908101794547292229,1115.03277603426363384642,-132.511640177963414544138,455.988908467512544575584,-214.052007082486056788184,-53.5847088143746290711533,163.188239762654063724767
3.61250000000000026645353,-0.626768468848742710264332,-0.254990663282513907450522,0.511788673173618535727769,-0.00236971811068225875554494,0.0519317345098168001160666,-0.0126454896723412063552772,0.00685052775985881944736944,-0.00283134307139996412028271,-0.0166647939052296210904469,0.999833407310382615840183,0.0373909734887565708971735,0.0598089742797848836208807,9.89396535669769860987799,0.00831327716407359931793941,-0.00102131933992644519798576,0.00619896374406257808648002,-6.57007565103228330372076,1.92618233923631665405196,1.19776574186413231615234,1101.25945928947680840793,1126.15202785766837223491,1119.39155648446944724128,1114.83682165331265423447,46.5903664580278373819056,356.10156656600662472556,-189.811210249932543092655,-87.5039185706950775056612,163.189279617090818419456
3.61500000000000021316282,-0.528573595863773393332963,-0.163839854761145820027934,0.765434766130686172758146,-0.00383407314469752036681371,0.0508400633479743346843094,-0.00974799300733752635550466,0.00683919056361764320789431,-0.00276127120507168666643794,-0.0166696903354874338687441,0.999833603076932142528221,0.0368293254704248479436401,0.0607909313238994483685751,9.89103299197570962064674,0.00831708554210026929087718,-0.00111835257438745402404356,0.00644250009306439677669864,-6.5700556369051117400204,1.9261809828292595359045,1.19778514623855736331848,1101.60224918117955894559,1126.89422981198731577024,1118.97002496669574611587,1114.59525644141012890032,210.116794499212971913948,256.231989563462775549851,-148.10920236523404014406,-85.6091873371515248436481,163.190284199396728581632
3.61750000000000015987212,-0.398913120651297192775786,-0.0591420251386679807215074,0.909805362824633534479801,-0.00576112773859578652935198,0.0509469860551229405953855,-0.00588894932924042754929239,0.00683770043672495605319162,-0.00267956085434522617641506,-0.0166770481052543571853786,0.999833714064885747951905,0.0362237572127652590614488,0.0617510403708713892512172,9.88819272851844921490283,0.00832086533741310634126886,-0.00121260621380247395929841,0.00666053029444737144243449,-6.57003494860897063745142,1.9261804717311703516458,1.19780529322249806867262,1102.31004326197285081435,1127.43318780548565882782,1118.65101047264329281461,1114.4087757166269057052,267.325251026210253257887,145.469516650431074822336,-81.1393061417692535997048,-30.7534460594076541894992,163.191447039334406099442
3.62000000000000010658141,-0.280238717098465761612403,-0.0152141108046827486927066,0.891961447397587092744686,-0.00707389336185315891619707,0.0521395228629585247293043,-0.00280029261221466417922099,0.00684588587498997664521072,-0.00258765003926852889953869,-0.0166856454228200556944017,0.999833759075916206349177,0.0355927792784113961044312,0.0626782355828926218688224,9.88555322809838799003046,0.00832534459344956741244648,-0.00130640249574243681209007,0.00685161315722886739981723,-6.57001332205409749320779,1.92617992316906394556497,1.19782635003644721827243,1102.93887543631058179017,1127.62157739523945565452,1118.5643284359869085165,1114.44148921111309391563,212.331465236370576121772,33.8736303028334049258774,5.8535727534491677204187,68.5172761218851604780866,163.192379449546734804244
3.62250000000000005329071,-0.15803316520065976980014,-0.0494032894876574035780692,0.742653581739756596391544,-0.00774353768367989567233955,0.0538106002568221677972993,-0.000260868857156193120500759,0.00685833074047501132369797,-0.00249456429628339441603724,-0.0166948268750752269740101,0.999833762648339563483546,0.0351019297550211051284208,0.0634671961334987155822773,9.88322378063297080075245,0.00833144401320854745274236,-0.00140160201104144819389541,0.00701476505272867652263091,-6.56999067573986383905549,1.92617891025428589202306,1.19784798623759480840079,1103.3717005881546810997,1127.60255595699982222868,1118.68027833641053803149,1114.751362097236324189,105.502300112814253907345,-43.0006400800730332889543,100.800370965910005338628,206.404849728464654390336,163.193273020343013968159
3.625,-0.0227197305578516542401424,-0.187192904014641420262777,0.441356333073835593872047,-0.00756526150974596526405103,0.0555521310970138321172485,0.00194793451345541784695825,0.00686754706868581733802959,-0.00240891959284850014355595,-0.0167027560258559554240421,0.999833785073990455316562,0.0349043291425026880325788,0.0639780038192342137559621,9.88131160965066968060455,0.00834030441398222500970494,-0.00149958980579048464093495,0.00714964855074235166448871,-6.56996784914462583770955,1.92617665502067780813888,1.1978709889008303246527,1103.46638693687464183313,1127.40657419483909507107,1119.068330290816447814,1115.47351345975539516076,-50.0231765439831832509299,-95.4703270072079561714418,184.69331176006957662139,319.056022326374204567401,163.194300022904968727744
3.62749999999999994670929,0.0707322065242095288084556,-0.362911399886107988166373,0.117268349096943932940995,-0.00662586449701505625364817,0.0562023155874168608980845,0.00296841090333637520545795,0.00687145576063428412810774,-0.00233181220278813996008016,-0.0167090024806195412698795,0.999833843435304348012949,0.0349975632703404676560055,0.0641812534013995461545932,9.87991805472327300208235,0.00835326518024750649948906,-0.00160121508482169243835214,0.00725681976457570685618004,-6.56994583343545190956547,1.92617269002441426906103,1.19789621498442944158569,1103.12158470543477051251,1127.12520432196379260859,1119.60374489521086616151,1116.34664220886816110578,-223.328976888301639291967,-137.110519284945638673889,255.991187626574173918925,392.685450850248514598206,163.195118224338528989392
3.62999999999999989341859,0.142853333051667225062076,-0.553308352734278696694048,-0.242397331723733483466177,-0.00554779737755024121570457,0.0550538572344100932132172,0.00297828122234544386340294,0.00686986339091952020324827,-0.00226541012238723514851668,-0.0167154320326219560377545,0.999833902560106402290785,0.0353946634488013639474602,0.0640906121005608842011725,9.87913439002561766244526,0.00837194975394975164639799,-0.00170699341957920164292162,0.00733779936862379977141613,-6.56992465176583895214435,1.92616737864992049189539,1.19792371049285772954818,1102.3497420524331573688,1126.72102159841438151489,1120.34828622894929139875,1117.43694071400659595383,-364.875060146435259866848,-185.433792637501255740062,327.348533009149548433925,458.365278432589548174292,163.195897928538016685707
3.63250000000000028421709,0.207089616930293735075352,-0.710852951915737385490957,-0.598361493747829542577676,-0.00490716152036572723221797,0.0522334139719595400008778,0.00218723299604617641908599,0.00686127557279334662071468,-0.00221338077226106069023137,-0.0167224188770700721295981,0.999833958783881704412977,0.036133878262125815328254,0.0636990185876272485554495,9.87903865604642916764533,0.00839814779788876190902425,-0.00181740373918681938011921,0.0073953468982708211315602,-6.56990435787739279760444,1.92616097041438516512812,1.19795271220300270087478,1101.29720940470247114717,1126.19803535877622380212,1121.24048756025672446412,1118.63846860103126346075,-460.143840233118567084603,-241.731031003957525626902,380.831818517773854182451,487.87701718571389619683,163.196646460999346572862
3.63500000000000023092639,0.281417953241393403729376,-0.784786931756520145242462,-0.906970097925076323974736,-0.00489064890492603605853805,0.0482285819729951908962917,0.000337257962992221704216084,0.00684874307839807017206368,-0.0021722109568804029780531,-0.0167307275921206137503372,0.999833985913232692332997,0.037105609833698122157486,0.0630907990518194128348739,9.87969234413342611844655,0.00843355771127144403231934,-0.00193292413089428817378479,0.00743387855118348567229347,-6.56988481748806485427394,1.92615363558309904412624,1.19798202615727888975528,1100.04902285126740935084,1125.51236644339451231644,1122.25244532153828913579,1119.87632579993532999652,-551.092472097764471072878,-336.569372425727010522678,449.121961568253482255386,525.785217123950474160665,163.197358700586562463286
3.63750000000000017763568,0.403111998206594546179105,-0.755808561984111837439571,-1.16606644695907291087167,-0.00535190465171801136451402,0.0433973020940946335732846,-0.00343346357800903157625472,0.00684020285605937798656395,-0.00213576200055226031113143,-0.0167391010131745995859198,0.999833963886681220678554,0.0381429387981817441533039,0.0624490487761968429691883,9.88113663419144749866518,0.0084797044835789418815164,-0.00205418027474560524123226,0.00745951876567817716290332,-6.56986643567224071205146,1.92614584336547367549031,1.19801066360895069884407,1098.54174704421370734053,1124.51518849664762456086,1123.48609736809794412693,1121.26739468665095955657,-522.072409723170721917995,-382.966786812547979934607,430.971363829221559171856,473.569782916193730670784,163.198173253651361847005
3.64000000000000012434498,0.534334305245027008091085,-0.649223244937506271945438,-1.25279094756183928538462,-0.00584782753731146343750824,0.0404417506319121392022176,-0.00772001107887012715663699,0.00684161250851820015861371,-0.00210161297636308336267419,-0.0167504340820537576950411,0.999833808999338935485923,0.0391498491945404397673869,0.0619220210952400665349593,9.88339000831767044985554,0.0085379080530885737704283,-0.00218200018393471849645349,0.00747991678637982115168681,-6.56984859530619758061221,1.9261386638028237250353,1.19803669167231685577235,1097.4386608026516114478,1123.59753250933181334403,1124.40730214068435088848,1122.24417471451624805923,-373.785694648139497076045,-359.374732306704061102209,309.446624563640625638072,328.15942059042544087788,163.198819507194940570116
3.64250000000000007105427,0.676321074149977219391872,-0.504539877501317346464305,-1.17905955401643036672965,-0.00562083027035346644711966,0.0394572328712498379688078,-0.0122290292926421906294365,0.00685510225822846038651326,-0.00206928783095363874600103,-0.0167670405715676512636847,0.999833471244210958417398,0.0400680246244896481888631,0.0615848600787297709158175,9.88644680023520905365331,0.0086091001426490832565408,-0.0023174636119232469577689,0.00750399642242728735080926,-6.56983085822723467117612,1.92613303853724060488162,1.19805892668762159480877,1096.67281857097304964554,1122.71831483511414262466,1125.03333049091611428594,1122.90819178960305180226,-223.558399943344966231962,-342.645885103691398398951,161.024181860469781213396,195.281142324306131285994,163.19943224198826214888
3.64500000000000001776357,0.806093216203629947536058,-0.351127880705767836388986,-0.905995445569580226674589,-0.0036450504425693977354761,0.0400278557008014110318861,-0.0167580984672207750074691,0.00687585581277724844362353,-0.00203714986075936724599367,-0.0167920609813718112179881,0.999832937431625934365798,0.0408177549509405324101863,0.0613760142781975479020495,9.89027709207824123893715,0.00869370109327009289723609,-0.00246172744599723256064827,0.00754147495645596938063093,-6.56981291164444147767654,1.9261289723548724595048,1.1980752467615773948495,1096.32086880293491049088,1121.88430308381339273183,1125.21242304998668259941,1123.22058042613775796781,-14.5250923067581787506697,-248.94532921117010459966,-58.6317461012198464231915,23.338668477663802036659,163.200128010018659097113
3.64749999999999996447286,0.832078911654891562044156,-0.273666746283832029718042,-0.545336325889339001982137,-0.000462135721502211782325126,0.0408605007273610196238955,-0.0195684393177858219348142,0.00690283411973324507321381,-0.00200388723964087418771829,-0.0168272874737074272510906,0.999832192347187675984799,0.0413252071800076781205036,0.061308310033658545978863,9.89482496714380133084887,0.00879159723169656466545963,-0.00261562934913814153226053,0.00760212729841128458802002,-6.56979445806523543183175,1.92612622798822896719173,1.19808531505214133083825,1096.60019310943926029722,1121.47358818905831867596,1124.7401717604100213066,1123.02488513199136832554,244.084514586671247116101,-97.3241142360641617869987,-336.44253320909035664954,-170.608151472155441297218,163.200673627377028651608
3.64999999999999991118216,0.724436344390254061131884,-0.262437886815183818445263,-0.0903222118045667599073312,0.00369134931300814502982965,0.0412348169294799588024958,-0.0213658040174271104949533,0.0069391779799529941172298,-0.00196504418208021851624534,-0.016870466253309839010921,0.999831265988196826732803,0.0414551736456860719925999,0.0614743387110923619753855,9.90001028235261593124505,0.00890207394366741323887826,-0.00277946079537913851020825,0.00769493801299305120455774,-6.56977581691885248460494,1.92612455106055358022843,1.19809094630402168668581,1097.54129137586824072059,1121.39768251263308229682,1123.53021038394126662752,1122.36753966877699895122,563.719623561895105012809,30.8407457380787697331925,-692.486721240144333933131,-372.545700310100755814346,163.20118141407937173426
3.65249999999999985789145,0.421932172558739770895642,-0.314191582025974969205606,0.491678798434497354996608,0.00849970359521344878683813,0.0413360477821960795030698,-0.0217497779026597469476112,0.00697870458398968350477443,-0.00192222369717093971575039,-0.0169166635451213180629804,0.99983028233695991904284,0.0411991985839131741320429,0.0617810150543154010249758,9.90573196387200916035454,0.00902395836436471754371524,-0.00295292594562637138524974,0.00782704250020941488807935,-6.56975729721700663077399,1.92612283751275548127069,1.19809495221755013538711,1099.41879122724867556826,1121.62779191774870923837,1121.27773815420937353338,1121.16215663044090433687,794.496652245371478784364,118.664538806152620509238,-926.578680677704369372805,-484.029281646793663185235,163.201743242403040312638
3.65500000000000024868996,0.0463654040467871841890712,-0.390893455500262110291487,0.940084941179645028341838,0.0110908385795427874565,0.0410543448724761741996936,-0.0199125736328834949950828,0.00701362397793464740353153,-0.00188282296609685283195201,-0.0169598024579446296500329,0.999829387305090633297766,0.0406696161671446509977557,0.0621007497230078933658781,9.91187034384069143300167,0.00915559237377520061806901,-0.00313488484197695571262243,0.00800326601027935222165688,-6.56973847276391964555842,1.92611957484798890227751,1.19810057742874587205506,1101.51377463709536641545,1121.99100520666388547397,1118.89731698055243214185,1119.94739326054286721046,905.946158341596628815751,157.353993405138965044898,-991.713318871030764967145,-492.546616837865656179929,163.202168411157231275865
3.65750000000000019539925,-0.393888609172419634774087,-0.466886663787223377131141,1.26608938788598335278834,0.0109185086753418644084368,0.0396745696495859265229278,-0.0154715856688601074292455,0.00703687730383176831411296,-0.0018576613338293506989124,-0.0169974674930990846122292,0.999828653630310593136699,0.0400534398776050126755877,0.0623162013894343128073139,9.91829141576913819733363,0.00929483093690340253512083,-0.0033232884071964104676089,0.00822610632980200727482067,-6.56971786452345263285224,1.92611398665513422479023,1.19810961973550456072246,1103.94852201895696452993,1122.41456188477445721219,1116.3191715598538849008,1118.69942354625140978897,986.833183756082803483878,167.995520109074220727052,-1004.91284148199474657304,-479.054564485260243600351,163.202544817045975378278
3.66000000000000014210855,-0.824940344490302401858628,-0.513905943813583787616039,1.43860635968628014502713,0.00837528381649122778684902,0.0373115830069800716306538,-0.00947514452484749664096242,0.0070457887209342730944206,-0.00184366628326880326038673,-0.017029137706207220920307,0.999828109443433810099577,0.0392690077660858283259415,0.0623857983554811021398301,9.92485335981402450045152,0.00943888550629901762478724,-0.00351535687077102199094014,0.00849635175620309240906991,-6.56969469252405069426004,1.92610591471054726220302,1.19812099576186326110872,1106.44794055587567527255,1122.83098280720923867193,1113.87275277314256527461,1117.55212043811661715154,956.064167031420197417901,162.088350640036708227854,-878.090544068318763493153,-410.203140026132700768358,163.202878801183288715038
3.66250000000000008881784,-1.17530428041619350310043,-0.50339187853696998331543,1.39750666525137723361638,0.00395725912840549920446165,0.0346045615173947856968439,-0.00317565876521197065079916,0.00703681343705044384795322,-0.00183282538288384437043244,-0.017052201252372042872274,0.999827833058467008164882,0.0381456742344635363339833,0.0622416614261147513320616,9.93141091097283812416663,0.00958469967462343731823271,-0.00370802138566682457782031,0.00881322264958075453356035,-6.56966923357008969475146,1.92609474633600052939642,1.19813325388298830276312,1108.7288428541139637673,1123.22500363797462341608,1111.92871883951238487498,1116.64840784612079005456,880.385003081092349930259,175.074064882759643069221,-672.808626313704507992952,-319.904818799257100181421,163.203161125475020298836
3.66500000000000003552714,-1.44444404804298720534916,-0.42176193188891941687757,1.11995537693568292247903,-0.00230785403306084987290481,0.0320148931576432274614952,0.00296361677391220219857093,0.00701526007223286438008181,-0.00181655517601971537577921,-0.0170675006435176274122156,0.999827781793547587518844,0.0365075748691147394797696,0.061984613025923736284728,9.93781794343996160989718,0.00972936259749803550311853,-0.00389798236364473750861781,0.00917454418132866711399487,-6.56964236251978750402714,1.92608089532919724007343,1.19814697301796102557603,1110.84986557128104323056,1123.70635313162301827106,1110.50870964157411435735,1115.95259634412036575668,633.505822694828452767979,184.159628510319009819796,-344.523556496695221085247,-182.405820358966849425997,163.20344197996155344299
3.66749999999999998223643,-1.5289997805320716395272,-0.312274726921280276759063,0.747241404096650185806539,-0.00777260494663329845610455,0.0307416885981559064033863,0.00613849671555517003435076,0.00699024270973593129380186,-0.00178977219291734965071761,-0.0170746835201376345736435,0.999827902388860545457305,0.0342567710978236919516782,0.0617855360380158077915347,9.94393223217120336698827,0.00987037295593693776718514,-0.00408220472038769034012207,0.00957674968138909343817744,-6.56961602050483772785583,1.92606509233934564129243,1.19816394213315335903758,1111.89637196758803838748,1124.1458017805261988542,1110.20610105702894543356,1115.7363787443259752763,242.432345255343250300939,184.444263902973318636214,57.884362262485737460338,-11.282612580908120136769,163.203630807392215729124
3.66999999999999992894573,-1.48572246708213984156544,-0.190814215843844947606556,0.310682968926938196663201,-0.0126746029586780138004309,0.0304787307119536859945086,0.00706696799292836665140616,0.0069671997701536737823691,-0.00175289408126602088908164,-0.0170737644410547048656746,0.999828153261608787438774,0.0314160292705900762166848,0.0617382231382939891672912,9.94962052676017982832946,0.0100057274728875648939219,-0.00425829217674906449625505,0.0100150101354765409811254,-6.56959110784395239335254,1.92604801771398359555576,1.19818492435946621910148,1112.06202729755773361831,1124.62857445113786525326,1110.79813145288653686293,1115.89618328121582635504,-125.782515570565877283116,210.896354200353869146056,426.263408882605290273204,143.929979254292788937164,163.203778431738641074844
3.67249999999999987565502,-1.33986166563859177003337,-0.0678210873477518572105538,-0.18453221409896003457618,-0.0170716223485432895545788,0.031156213207876228693527,0.00583085135744744291474984,0.00694676104348196810783778,-0.00170877826938804549747331,-0.0170633393171950933919767,0.999828547705826298219733,0.0280686643245864342333107,0.0618363624121153823698371,9.95476277807744835968151,0.0101336863827357209766333,-0.00442473838026525342209672,0.010483656087346089613721,-6.56956818362992933657551,1.92603005254827852610333,1.19820949004115329117326,1111.26745938973522243032,1125.20028355152794574678,1112.33741810144192641019,1116.45602864059742387326,-429.445839737098253863223,193.965758639056360834729,655.059248108592669268546,249.421333965693975187605,163.20391722157188496567
3.67500000000000026645353,-1.19042468002537571436505,-0.00251538870542228343296642,-0.509039273167026795618995,-0.0194624559268958378932535,0.0321138586174426268748938,0.0033487966909530146597529,0.00693018492342593449978549,-0.00166355843889507575873721,-0.0170484630625894126310094,0.999828978431374193469594,0.0243731694802071865990634,0.0620836781364442272246329,9.95925422279510286216464,0.0102525873014624631374136,-0.0045807616307510798728253,0.0109765936924949274872132,-6.5695462486885709552098,1.92601238620020676073352,1.19823599289988269589458,1109.91479809887209739827,1125.59840324433321256947,1114.07342769342972133018,1117.14328995104438035924,-628.98654811251924456883,124.178540489529751766895,720.362468593654284632066,295.470604923846678957489,163.204009377692472071431
3.67750000000000021316282,-1.06891451043335727888461,0.0185611060937232626166793,-0.689542060031834713740295,-0.0209347781571699691205435,0.0327714201151894923835783,0.000104023824285695543588603,0.00691983686276258745662116,-0.00161919008741637769112354,-0.0170348521837670463519032,0.999829328165420583296452,0.0204144380958180549079373,0.0625016828078080455277643,9.96300845918017508040521,0.0103603869703126176549102,-0.00472638362336756916864955,0.0114877043560260762994352,-6.56952437418280954517513,1.92599568652940611457325,1.19826349077396376863192,1108.12252664917241418152,1125.82117625397563642764,1115.93923044441044112318,1117.93338166521675702825,-811.100428344861029472668,39.7208844836777004161377,769.200658709922208799981,342.988154544271367285546,163.204088462761660593969
3.68000000000000015987212,-1.00179413376430614945889,0.00380262313560640868165263,-0.715538291223716704791968,-0.0222316325479368220863208,0.0329021988987785729552371,-0.00393991709240225883303932,0.00691710015409501520478042,-0.00157434091642826034553038,-0.0170241774962353459299536,0.999829563033797441562456,0.0162216197393461880604804,0.0630893789025397389025329,9.96595912030566033479317,0.0104544911385432131439854,-0.00486242565226208817152909,0.0120108716884674959074486,-6.56950119103726137836929,1.92598010531192165295522,1.19829212769480886180418,1105.8592959571478786529,1125.79700766675159684382,1117.91943098697925051965,1118.85823072376570053166,-792.659094252320414852875,-64.7169130038505642232849,629.910817516715496822144,318.664108734726539751136,163.204181015498193119129
3.68250000000000010658141,-1.02706512630173629752051,-0.0288750064816706945858282,-0.585091062464716316071645,-0.0232454192687924950100342,0.0327205034029629596159516,-0.0069851825565299223430582,0.00691596965381795561467193,-0.0015301220726325786333083,-0.0170176094481251927170717,0.999829706066825307786416,0.0118836202036981045115915,0.06369901774858510723476,9.96806120071500600943182,0.0105319663250149735123085,-0.00499038567618399243885907,0.0125397692255777969821962,-6.56947555511710401532355,1.92596574442263968052202,1.19832155707214149664708,1104.15923117791089680395,1125.49759168895639049879,1119.08878453199395153206,1119.52670220889035590517,-590.239877878015136047907,-177.435604202859536826509,323.271892345299022508698,233.459611666153676878821,163.204264761426884433604
3.68500000000000005329071,-1.13195967634269889501297,-0.0680188014601868784492211,-0.330986054148931896357055,-0.0244601372048155948912829,0.032442664080129329784441,-0.00921169119307412020969394,0.0069088737532324549783791,-0.00148953753023998362696456,-0.0170155216623893539018564,0.999829805478057997980557,0.00753512120726702872008929,0.0641529538687879985481288,9.96929053821095578769018,0.0105897719889928420416991,-0.00511209184962542473318337,0.0130678754752138730904631,-6.56944699572849266644425,1.92595226480297498916627,1.19835261274036675160914,1102.90809656775786606886,1124.90982964573731806013,1119.53579044870571124193,1120.02552878209644404706,-406.202949389634795807069,-275.826596152825402441522,46.0885767260161429703658,167.801881730569164119515,163.204364717823693808896
3.6875,-1.28202382584156127087738,-0.103543016504134513522395,-0.0165407042781399345188209,-0.0262452903706210556589173,0.0320064469550858307633767,-0.0101344235069030143975288,0.00688992471792025055338238,-0.00146288983898921424314787,-0.0170196249373315983133281,0.999829866872093075969019,0.00346169442199482230160257,0.0643113518719070631490808,9.9696425830327317640922,0.0106253196944064987050638,-0.00522935230065758177575574,0.0135883917844372807681719,-6.56941452791030400248928,1.92593920646095639881423,1.19838637059967934028748,1102.12821643096276602591,1124.11845870819229276094,1119.31922741562402734417,1120.36571161754318382009,-200.097311688436718668527,-351.446827573507334818714,-233.454938307891524118531,100.948993583735827428427,163.204484424875516879183
3.68999999999999994670929,-1.44300147046047833043758,-0.126939927751840986314136,0.307739040421990461826596,-0.0292329073891900090287344,0.0313961340117134765637097,-0.00893330423938284989837655,0.00685593308490068525928862,-0.00145686130308728188469114,-0.0170304966666033480438003,0.999829902239128043284211,-0.000120163872940635962915934,0.0640893470036756063290539,9.96913199883691092395566,0.0106366744030506575613426,-0.00534379848715541960063602,0.0140946245735112593577831,-6.56937844855075159244961,1.92592634476592872161405,1.19842423288508315160072,1101.9076100093157037918,1123.15259550786981890269,1118.36851575716627849033,1120.530273750015112455,1.37583645209818516974565,-446.134166072634286592802,-538.181251146227282333712,44.5958535192867628893509,163.204634769865407406542
3.69249999999999989341859,-1.5805828139315316605007,-0.13664697103489231722051,0.632200963165933882415004,-0.0344053079045518045431251,0.030725443598230657571424,-0.00564092911002350531901595,0.00680610353855252373650453,-0.00145901851583397110072304,-0.0170463895965280998190394,0.999829959672233092859983,-0.00337419069647255931432284,0.0634462115448904406811437,9.96779150711581607424705,0.0106225900931015779932176,-0.00545678519953717890145217,0.014580626067974696360996,-6.56934158119464317593383,1.92591361578991371317215,1.19846596515161918361514,1102.13509561322325680521,1121.88778787782916879223,1116.62832115989294834435,1120.5886908851396128739,129.281454989486888962347,-470.388829450680589161493,-685.318196231855040423397,11.6245213773246511834714,163.204858386439099149356
3.69500000000000028421709,-1.60216226906726078027532,-0.130295570918066677679192,0.810558694241612531783403,-0.0398773725533266218401529,0.0303149354302142265416009,-0.00229513707764970398619853,0.00674596307448735964251707,-0.00145901420577989075419434,-0.0170614126264507642849466,0.999830108450175503165269,-0.00642536803974566583796957,0.0624710779389733919519934,9.96566724652754309943248,0.0105833446312647242587568,-0.00556920859553148434040182,0.015041201362922322973259,-6.56930598270195087451384,1.9259001723589568300099,1.19851171191411420835493,1102.55401728426318186393,1120.80065136061625707953,1114.9419247760067719355,1120.58839635690173963667,166.929624523743427744193,-432.948378442886564698711,-654.239661241400881408481,5.23248421995923429506092,163.205085671506793687513
3.69750000000000023092639,-1.49140142061888081315146,-0.112769628020638890131266,0.875410282055242294774189,-0.0457625862983684281171115,0.0300683115040261579598013,0.000944855612736543557135527,0.0066808765256703740720301,-0.00144892676417520912569847,-0.0170688184981289091390888,0.99983043547780914295231,-0.00935357269771261087831782,0.0612539176987180258859844,9.96281698947110605502075,0.0105207872965987960650613,-0.00568160610274416437437406,0.0154722561259379061404662,-6.56927331932311897588761,1.92588540581841050070011,1.19856141293008411352616,1102.96974373584203021892,1119.72304598561458988115,1113.35712285368572338484,1120.61485330623941081285,133.484894647565965897229,-462.945930065062270841736,-602.263956078344676825509,27.9697185250376207932277,163.205360512766191050105
3.70000000000000017763568,-1.20478256729640387234781,-0.0837618061884907172398584,0.83131734157402403795345,-0.051615112110592019367683,0.0299132714715100514468737,0.00424740727126017049430917,0.00661134350755276586908415,-0.00142529343347450629213291,-0.0170655966506589387710058,0.999830994464356193063281,-0.0121540766706605997404811,0.0597925312500737007881391,9.95930751245218104372725,0.0104381864264901733779789,-0.00579431715148096514178544,0.015871113903545189249833,-6.56924426527167337752644,1.9258692645888499939133,1.19861317040688786228486,1103.22144175750099748257,1118.48592171029099517909,1111.93060499561511278444,1120.72824494952692475636,28.2584766979204360382028,-435.487689009060147782293,-407.655207563138503701339,54.2433548127530897886572,163.205750396531982460147
3.70250000000000012434498,-0.864424274864959207853587,-0.0554855536769554569254126,0.713278264830180308564422,-0.0548094705350875566196578,0.0298576731571928259689752,0.00617445540668013544832737,0.00653507765780481086892451,-0.00138446601407573796627126,-0.0170519401702592422742644,0.999831806089284236271908,-0.014833002782707589359279,0.0580323785039410997010911,9.95521082844143379020352,0.0103396260513745636561156,-0.00590761972839766707349396,0.0162369191459085827899944,-6.56921993676461024591617,1.92585194153454408727555,1.1986654179427731481411,1103.1110361193316293793,1117.54560754056933546963,1111.31884681587007435155,1120.88607008030317047087,-116.546871465973467252297,-343.951697288601337731961,-108.447518489904311422833,65.8391297330595506309692,163.206128681821638792826
3.70500000000000007105427,-0.469784938883817615451477,-0.0241096071913001717967884,0.541366912920340670467567,-0.056263362022842385024024,0.0298358342204957764642881,0.00719386324565938258673858,0.00644887319854598860952022,-0.00133469972780813120848131,-0.0170365020711193415614559,0.999832729214137905238147,-0.017169241647970075181906,0.0559078697204096128348105,9.95059988495955849430175,0.0102298834477889139665807,-0.00602173213182282014710456,0.0165704578393671593528058,-6.56919935862299109174955,1.92583440507175773781512,1.1987161658887013349073,1102.6387074001711425808,1116.76616322384802515444,1111.38836740316560280917,1121.05744059819221547514,-270.01385964586580712421,-290.063745014010066824994,171.751541363895768199654,60.6372573196962747488215,163.206565879917832262436
3.70750000000000001776357,0.0011955177708325437357928,0.0177327687282181553629634,0.304027799618043659268807,-0.0558769748729004075982196,0.0298224762764253102653722,0.00801020864180174152480163,0.00635868302841646228229511,-0.00128556370990776233295683,-0.0170254441144574719668725,0.999833601415026973491251,-0.0189300733000039370090839,0.0535392442536364102090296,9.94554410354050766329692,0.0101134094646145138163273,-0.00613679668184481576925782,0.0168743020362772874753965,-6.56917959466635537069124,1.92581700030521751898505,1.19876452257526766587148,1101.76096682110232904961,1116.09528881549931611517,1112.17760452268953486055,1121.18925636690164537868,-343.147541836113362023752,-193.17771006222258733942,375.888270345429930330283,24.2028949502133094995315,163.207162110636403440367
3.70999999999999996447286,0.350825640082836620603501,0.0570225956162765598711495,0.0974935384327848125751714,-0.0541360423370074242410688,0.0298215732638370221996293,0.00852422428384051918126563,0.00627196801050949361011622,-0.00124026736484381485715878,-0.0170186449182089735709944,0.999834367175814420214408,-0.020022055193691642993592,0.0510776044627931427588585,9.94010774321355405902523,0.00999371180910373600736474,-0.00625318869574056478838342,0.0171524681239809892452364,-6.56915891872339852142204,1.92579947736601031493819,1.19881034122584839707315,1100.92296969099061243469,1115.80027467353693282348,1113.26780875489271238621,1121.17845507294327944692,-313.624600118380271851493,-58.6338454410464464672259,476.27670117286578488347,-37.6025614840281221518126,163.207720786666726553449
3.71249999999999991118216,0.62635753444252884047927,0.101264354626252495172878,-0.10053472847332675654819,-0.0517994496658967518154526,0.0298544095084360520953037,0.00847836026789046404150696,0.00618980341161607001965184,-0.00120270752357814710888084,-0.0170160799723796940519094,0.999835012352309759897651,-0.0203486949612673231890803,0.0485504394525298130225188,9.9343484314520633660095,0.00987368705163749540987261,-0.00637162021047340924873037,0.0174096673956889540224591,-6.56913612613197006595556,1.9257818933129129401749,1.19885288707572246202915,1100.19284382051046122797,1115.80211958829409013561,1114.5589880285538129101,1121.00124355948150878248,-244.98165384266553701309,47.8871348007043025063467,511.977974394596458296292,-99.1944989255010369788579,163.208345740529125578178
3.71499999999999985789145,0.834128964569029407449818,0.148399020883080129395992,-0.278480646263312314747651,-0.0493779519487203208405468,0.029949995144164635180184,0.0076131305238280209610191,0.00610977779640710805947323,-0.00117716496237641648006655,-0.0170164725318826225153312,0.999835567938788027930741,-0.0198177481340407399268422,0.045919431287837743360658,9.92831510771164893469631,0.00975585976174414212791497,-0.00649305022839765776793142,0.0176507909287715349100356,-6.56911052705906239879141,1.92576399103164819237577,1.1988928239375891138252,1099.6980614217773108976,1116.03971034754044922011,1115.82769862686564010801,1120.68248257831578484911,-120.213090675989477063013,142.126357117139775709802,465.912405341455666984984,-156.464597136517454600835,163.209026889614335686929
3.71750000000000024868996,0.966442288377354463690949,0.19484059048926241630717,-0.420005528362304203504607,-0.0471252829872115391873777,0.030179825514554451532101,0.0060659607852595410007468,0.00603469790462231748390254,-0.00115823107439488241603154,-0.0170207883391088540814273,0.999836003830960606819644,-0.0185441661172344451902205,0.0432499038213884287595867,9.92204639485981587654351,0.00964247584453320309705315,-0.00661829363530005553711844,0.0178806746811367017757632,-6.56908236081643703840882,1.92574590486134744615754,1.19893102422132158402235,1099.59177836713047327066,1116.51275137387983704684,1116.88855005526124841708,1120.2189205737988686451,44.9535768321281139492385,241.957743877885178562792,393.682665374690998305596,-223.969435246711668696662,163.209776874229248733172
3.72000000000000019539925,1.0527822603383887312134,0.240660942094523933043604,-0.543221663946025667968343,-0.0447400400544194776220053,0.0306880780899993627075517,0.00430749159500958423568706,0.00597124078042710927649583,-0.00113891756652465046643907,-0.017030062778333531631203,0.99983626869920072532949,-0.0166880988697630620876122,0.0406864003700760923365465,9.91557106132561116851321,0.00953618653245506299465095,-0.00674807427127333252919739,0.0181034997768520847238882,-6.56905299614131177321497,1.92572788608866041215606,1.19896900523272686989174,1099.92282930593796663743,1117.24949906692995682533,1117.79611195373922782892,1119.56263540208215090388,181.116763184358433136367,280.464855731321733856021,271.197640712358747805411,-242.987340010818741120602,163.210757279944147057904
3.72250000000000014210855,1.07259773884355480433328,0.261936115721046358650881,-0.610776897506197236076275,-0.0425688632544057865558784,0.0313353715469281771111021,0.00312074728021550194811962,0.00592318815278692571008046,-0.00111456796982164259984804,-0.0170416579102151133362497,0.99983639036135341093825,-0.0143747280196332739843346,0.0383194195240256496592934,9.90890986895773728804215,0.00944045980551399752100927,-0.00688328472103716566821152,0.0183223831970624542742065,-6.56902415715993459599531,1.92571015431867342826422,1.19900745703209876680262,1100.49736218305224610958,1117.91507565253641587333,1118.24453825882301316597,1119.00398387374480080325,255.897856162988318828866,258.289762339478386365954,132.158430029497225177693,-205.534039486706035404495,163.21164152899825694476
3.72500000000000008881784,1.04129785210094394365399,0.254929386709386085474449,-0.647346558678985495305369,-0.0397003960798288854650018,0.0321578675575096561978228,0.00196068458114188274438172,0.0058879959716271147371347,-0.00108239879651146836750386,-0.0170538999565292143101303,0.999836416504080061073978,-0.011701809963695092992042,0.0361171159178632419917143,9.90207749122195934887714,0.00935972545090988164440127,-0.00702494604419880326606762,0.0185392337798795693581955,-6.56899718968748391745294,1.9256932422435701912633,1.19904521634799565710239,1101.20231858675288094673,1118.54094787862732118811,1118.45690410388669988606,1118.53496520464864261157,290.286411689891622245341,254.481735814812026319487,70.7991439274807419224089,-163.44339408233631161238,163.212595376316784268056
3.72750000000000003552714,0.947977204972832443452546,0.204018353232583271594791,-0.656212689831440543208885,-0.035948054149017118208409,0.0331473469128069492262156,0.000403215706478964042158708,0.00586034653772879096655934,-0.0010350863942218233200443,-0.0170647196046624927134872,0.999836423850700151128024,-0.00886691887782718041188801,0.0339933846031928374453734,9.89508428878209578272163,0.00929895504970451071413695,-0.00717398576231262092434138,0.0187548170599055284701873,-6.5689746203468866170283,1.92567731294477639814033,1.19908325664546566713398,1101.94879424150167324115,1119.18748433161044886219,1118.59853397846040934382,1118.18676690333313672454,223.879578910469035690767,219.187420894791216596786,57.5261373316164750235657,-80.7538455180764600527255,163.213819629349956130682
3.72999999999999998223643,0.83395196145694450162722,0.122343059647444574178365,-0.630694889874960584741359,-0.0332965896938659799975113,0.033978586997879658970767,-0.00108013145083163983155294,0.00583480581171120019079446,-0.000968431718427008704844217,-0.0170727582663017726782861,0.999836475738593910556062,-0.00601491236069316009826835,0.0318626647896882789212647,9.88793810625930724711452,0.00926349106216315179573861,-0.00733094932504226720615392,0.0189685523045698828381589,-6.56895798967071531393458,1.92566214076694319778937,1.1991218521891375825561,1102.32171648130520225095,1119.63688498310125396529,1118.74453479054477611498,1118.13119597705826890888,70.7707587973815464010841,167.848512940785383307229,88.00809354306881004959,30.6677769037839595966943,163.214905203941924582978
3.73249999999999992894573,0.705087388269316051037094,0.00122960196564318724465892,-0.563897774703607579382947,-0.0315421520257482268512206,0.034825729151706223685192,-0.00285129080246774788132136,0.00580641619368771864928558,-0.000886197468394098598724884,-0.017072183794610899104649,0.999836699794382832706674,-0.00314067577056160313064836,0.0296525616500225505656196,9.88064626860778716377354,0.00925841179321412223457433,-0.00749592477344209959233545,0.0191784121494002236796295,-6.56894684826433028490555,1.92564622511204119881256,1.19916135040636051556362,1102.3026480354885734414,1120.02672689631435787305,1119.03857444617574401491,1118.34010578785205325403,-106.938999072874594276072,167.277760462278735076325,179.819787789032687896906,145.349171055025550458595,163.216056956117114395965
3.73499999999999987565502,0.564356625468141692714141,-0.17617435471892323173293,-0.430952963634230634681899,-0.0303593762666424168972235,0.035288388649813665076671,-0.00522405676305555746741227,0.00577255783834720696823251,-0.0007997551687987670401489,-0.0170628581662252976069993,0.999837103908469249091695,-9.43205900589896839569803e-05,0.0273401147197242511133197,9.87321745264965677790769,0.00928785477522318415888325,-0.00766825705807466177083009,0.0193810054968206330050506,-6.56893896384137576660578,1.92562863595835054297822,1.19920309949740855337552,1101.78702148594084064825,1120.4732737854126298771,1119.64363372948992036982,1118.85794183233338117134,-261.932288730650327579497,162.916572655274563885541,266.981142204104060056125,220.973043512352518291664,163.217513023229088275912
3.73750000000000026645353,0.477152017143494255879688,-0.33163490954525198795011,-0.280499759089266831324494,-0.0298802895492704771729375,0.0346741018926248756315545,-0.00700850677285793071530362,0.00573611818250918323314202,-0.000721008421158323580847649,-0.0170478336555291605514117,0.999837610305974067159696,0.00328095216213566964746917,0.0250113516275571046154624,9.86566358845361257579043,0.00935407903793060609143328,-0.00784659701746750169737421,0.0195719492493150147571779,-6.56893147935435184336939,1.92560912099807790553996,1.19924942386630162260985,1100.99298659183523341198,1120.84130975959078568849,1120.37348015719635441201,1119.44497100541389045247,-370.403671573169503972167,141.102186452316828990661,331.822056099077030921762,244.377954543535338416405,163.218785736352089088541
3.74000000000000021316282,0.432294569292617780753574,-0.467403316163705118135852,-0.108231773358363009274186,-0.0295502848593125581888597,0.0332169386787673354133332,-0.00781672423966464115230313,0.00569795922968690127935476,-0.000659094197214069445027451,-0.0170282266961398441595943,0.999838189576585434359401,0.00708988439920339719169107,0.0227107398835152893279421,9.85800218001075378992937,0.00945697345514516160558394,-0.00802949640289965516082304,0.0197462641769953171910768,-6.56892216769135028897608,1.92558715248511291839861,1.19930158242203810381454,1099.93500312807486807287,1121.17878471767426162842,1121.30274400998541750596,1120.07983160505114028638,-446.620736307122967900796,119.960551442366352148383,392.160166502170966396079,243.120948697974824881385,163.220116353655384955346
3.74250000000000015987212,0.421345721155419461467773,-0.569119525638361323238712,0.0592664347362094820481637,-0.0290694569951150394437889,0.0314708493773267136695004,-0.00763812803541084189840049,0.0056561538658889210298697,-0.000611622304280226591378933,-0.0170070044782591640875058,0.999838801762141682338836,0.0112168472335280461349427,0.0204233733601424591319606,9.850257836777652542537,0.0095938270570320397651054,-0.00821563061970113396592641,0.0198992096356219658193076,-6.56891051936587899717779,1.92556290423757592300547,1.19935799733417725043694,1098.75988291029966603674,1121.44111251680260465946,1122.33428098970716746408,1120.66057574890373871312,-475.605983953492909677152,70.0005540479211418869454,415.858510606640038531623,199.578117774085228575132,163.221491302195147454768
3.74500000000000010658141,0.440199023061468519557593,-0.61589837777350320280334,0.192600615301206173901605,-0.0281342420939001865154427,0.0295611641063475323598642,-0.00650802924168117444964077,0.005611293228735880767033,-0.000577637356653848475611379,-0.0169890510977633198141934,0.999839361198858078694229,0.0155835311479381108390463,0.018184126016644007461931,9.84246124936908017843962,0.00976009967947920505093595,-0.00840384153609074514845734,0.0200268213813555862046201,-6.56889624492892121310206,1.92553705413533005064153,1.19941722435111675082453,1097.55697320830745411513,1121.52878748791385987715,1123.38203656301857336075,1121.07772219392154511297,-513.022136421033792430535,-24.5325885400694225779716,436.064502400595529252314,130.210933188439469176956,163.222914033753966123186
3.74750000000000005329071,0.477556668433508135773735,-0.600448693161361179981839,0.287539116184174270429708,-0.0263045083524344018577334,0.0271137349987386824801128,-0.00467773629680845633160846,0.00556461631570085140524595,-0.000560315203860175408724642,-0.0169840782136936770119195,0.999839697440397578986904,0.0202055081441393294405806,0.0160420737684410993906248,9.83464853283491180491183,0.00994994555888426869538765,-0.00859333938481982723134323,0.0201263140645007720941351,-6.56887768900942159433498,1.92551101974637961511405,1.19947686075334125632708,1096.19477222819455164426,1121.31844957410226015782,1124.51460350171009849873,1121.31163041484592213237,-474.39755212131888129079,-142.497022027467522775623,377.628876568140981362376,39.6458265247483083726365,163.224667667389496727992
3.75,0.50906962969219915482455,-0.529557943797110075578871,0.306162968801347967762183,-0.0242861963737238117921891,0.0250354208721711331275817,-0.00321135500883361823740159,0.00551655631473525146640791,-0.000559744092838319645850931,-0.016999621164237806864028,0.999839685239863551480255,0.0250523311987585622917507,0.0140292603243337213325681,9.82686088682948444272824,0.0101563090352313773606641,-0.00878393657285175127880095,0.0201963798982133721504617,-6.56885303946289411669568,1.92548583700103570492956,1.19953411467643533683258,1095.18498544770091029932,1120.81630237777653746889,1125.27018094585923790873,1121.27595132654528242711,-367.844722533444496548327,-273.844777284972622055648,251.809066499532406169237,-53.3996557855073206155794,163.226160051791111982311
3.75249999999999994670929,0.537647874648285561960392,-0.411209023251460303871596,0.268728004968074085656582,-0.0221687985569974620181366,0.0233275295867456274045981,-0.00226871867987008847544761,0.00547397692186823905252657,-0.000566893859692278799349008,-0.0170325799381434300761029,0.999839341784360513543106,0.0299275209635521330375774,0.0123000728117452218235428,9.81914366654761749941827,0.01037121555491982670405,-0.00897580377253437075579789,0.0202372853388763165871644,-6.56882324699508490795097,1.92546173010608501208196,1.1995887748958871110716,1094.35554861552736838348,1119.9492256876774263219,1125.77364883420773367106,1121.04463213591839121364,-313.391902267228374512342,-455.050285437128593457601,161.639171200616857504428,-129.903418450842792708499,163.227674223171334233484
3.75499999999999989341859,0.582795948659300511174308,-0.242833308060873886979891,0.17737760959134951654903,-0.0199973516135260112602801,0.0222601365489762809124485,-0.00189141988098039158863739,0.00544054386250588783296989,-0.000574442062863953612460166,-0.0170767482536081857680266,0.999838754533700413418273,0.0346850468108807208356126,0.0109459335880305042021376,9.811544632221455231047,0.0105870850990176512684826,-0.00916948719738092804520946,0.0202501261821647904337595,-6.56878966919544993174895,1.92543842382196506157754,1.19964160884438220122661,1093.61802593636480196437,1118.54105095059094310272,1126.07837680186230500112,1120.62643423429108224809,-221.104800463839268331867,-558.398408069850574975135,66.3257161027969033284535,-165.230595260243489974528,163.229502641136974716574
3.75750000000000028421709,0.64944247258459120164531,-0.106251780430540843092047,0.0761245014918581625051885,-0.0188429741025973596091347,0.0223187021400956912831059,-0.00204995019536751256830631,0.00541825569752033171788685,-0.000576359669941966948694678,-0.0171247580536465215939046,0.999838044800000380618599,0.0392194769730942749408342,0.0100255338751606970504326,9.80411231228693935690899,0.0107973552758160885184369,-0.00936558644589924674250803,0.0202365070074010909573214,-6.56875356739946258954888,1.92541536205850150054175,1.1996934823998757213559,1093.25002461320809743484,1117.15723364732798472687,1126.1052774147217405698,1120.21847915961711805721,-91.5252075185373570320735,-564.029074265870917770371,-28.4242324991263473066283,-167.080650197283461011466,163.231024842083002113213
3.76000000000000023092639,0.771541532192432155667916,-0.000869173378636331483981792,-0.0409658806715635787076835,-0.0183307936163693632747318,0.023187761396744832609329,-0.0022538019877587356365467,0.00540323868553979364676154,-0.000568265422179120094706151,-0.0171668995739210177020606,0.999837409113851216524438,0.0434720523782893136788275,0.00948237347816613743156644,9.79689473617184169995653,0.0109968841021171170185822,-0.00956479263305596259792107,0.0201982096384005979650134,-6.56871621436448371866845,1.92539148287208172760643,1.19974431134384773578461,1093.1603998987720842706,1115.72090557926139808842,1125.93625563936666367226,1119.79103098330460852594,9.06247470452418646402748,-554.783847060992229671683,-95.4877872467043147253207,-172.064776748406103479283,163.232532560585497094507
3.76250000000000017763568,0.949844691045434230680655,0.0671295318032938265195853,-0.16821402363461468443262,-0.0176931147187277156007656,0.0243553628381846624939566,-0.00212364028581690615637978,0.00539223724868180976504961,-0.000553970271432530081412438,-0.0171947571517445906008614,0.999837015792887195964056,0.047553778677465255442236,0.00927460927434823820258991,9.78993684025684629546049,0.0111824863918532114992477,-0.00976750684688431312918677,0.0201370057805932700656371,-6.56867927679417906716708,1.92536581546311014179196,1.19979465776780958030656,1093.29533698673071739904,1114.38331441202308269567,1125.62783847848822915694,1119.35815527587510587182,99.071593504142882125052,-478.688111463781069687684,-156.540120770845220476986,-174.407439093060105506083,163.234019616486762060958
3.76500000000000012434498,1.18893103809931277581313,0.0917558130907117353025626,-0.303051031817887228658748,-0.0162486023140673077613805,0.0252331047845693705322656,-0.001832713741113850113712,0.00538278892426699573370286,-0.000543801293069319361707381,-0.0172113428287512006120696,0.999836821564562550079813,0.051709036044222098094103,0.00937904898493790301072792,9.78327946855576868756543,0.0113530883252293303409264,-0.00997370686090697823600326,0.0200545704853001618972463,-6.56864198601012905243124,1.92533836092382126814471,1.19984371239244280715752,1093.65575786629278809414,1113.32746502194254389906,1125.15355503551245419658,1118.91899378783932661463,189.682101494649430151185,-367.518729296542574047635,-254.030521251985163644349,-194.978927007245658842294,163.235472732083195523956
3.76750000000000007105427,1.51275992522600000178556,0.0901540497456111006302493,-0.454994396260034239531933,-0.0135576875449284900421176,0.0255090916744473428234841,-0.0021059002765258208640653,0.00537738764694145436606743,-0.000533165865096451772019159,-0.0172239647954602892454545,0.999836680169701286224893,0.0558904438432804573366752,0.00986409261195156719659316,9.77696177629922935636841,0.011508691709726332971786,-0.0101831131396909572994769,0.0199529293733078962047589,-6.56860442006670908199339,1.92530993342138834201194,1.19989153563079709030603,1094.24374749420394437038,1112.54572076554040904739,1124.35768587222833048145,1118.38326064083889832546,221.112034326238415360422,-193.435782691908144670379,-337.746966790435124039504,-198.407253303871272009928,163.237167406250023304892
3.77000000000000001776357,1.77424882006142881074595,0.0815239430462490338724635,-0.548904254716227835153575,-0.0102451505361304488067598,0.0252184437253680920898447,-0.00328720747951006869377877,0.00538176553494603554517184,-0.000514063913166249364036786,-0.0172366514547663621237383,0.99983648698776184104986,0.0599809257516796118236968,0.010857988684301728837811,9.771019326214815947651,0.011650663312782021108216,-0.010395548988698542422493,0.0198340522961345279429057,-6.56856739939941469685891,1.92528152909305472206825,1.19993899146151283829909,1094.76131803792395658093,1112.36028610848302378145,1123.46482020156031467195,1117.92695752131999142875,186.110095427197279605025,21.9677114311257497547558,-412.859414570866363192181,-186.776112574811463673541,163.238532892631724280363
3.77249999999999996447286,1.96765500733698606161681,0.0833522723218452499249764,-0.573947350675523049190474,-0.00487557252452284952543016,0.0246933652508177989282068,-0.00567211910568183111380769,0.00539811669477959551327606,-0.000485797829173010360832852,-0.0172503740845787560675983,0.999836206900064916602844,0.0640014112932908718622826,0.0124190844356714055751745,9.76548214561293903557271,0.0117820748283621462570991,-0.0106112009252359012351219,0.0196993902864179490364016,-6.56853178058807696260146,1.92525405914669911489057,1.19998658278168557345111,1095.17429797133991087321,1112.65555932269603545137,1122.29338879937404271914,1117.44938007796486090228,130.344523916122000173345,221.122929825792368774273,-581.740283243574253901897,-219.354077214034219878158,163.239844428544131460512
3.77499999999999991118216,2.05593114478869143368911,0.105663216027610612490761,-0.49488741666977775768288,0.00370318200839659175671592,0.0240985070418515343049215,-0.00933636981599866681846844,0.00542920751306858601070715,-0.000451413504562364175775463,-0.0172647198699943105193455,0.999835827067657278988122,0.068036087999853056551558,0.0146143480797763028466996,9.76037453201086080412097,0.0119073723704308364473858,-0.0108302713485018131667204,0.0195500659559465911341292,-6.56849840094300674309125,1.92522829555141838930865,1.20003561354352195067463,1095.41304065750455265515,1113.4659007576119620353,1120.55611878534250536177,1116.83018713524984377727,32.389739311248156639067,347.760628251497223573097,-686.953776240730917379551,-237.05403101280859345934,163.241351542555264586554
3.77749999999999985789145,1.98510284330632913452064,0.136631610211876169946876,-0.336449347040111146345254,0.0110846282397478821529768,0.0240097159958766043219569,-0.0119259142015113867030252,0.00547725482786523033829074,-0.000414820785390309200793557,-0.0172827593567230139437463,0.999835280147688520990812,0.0721735969944055227864865,0.0174963072924093007709523,9.75571520953346116300509,0.0120320345445089644381698,-0.0110526362282560280253518,0.0193870870055103117213235,-6.56846719422852221015319,1.9252044295602419587965,1.20008651964131285438953,1095.33624666789614821027,1114.39436246395348462102,1118.85861991817046146025,1116.26410992290084323031,-89.0766781728811025686809,385.667526704602437348512,-715.992575358811222940858,-235.833672095379824895645,163.242549857626755738238
3.78000000000000024868996,1.77626551883538130738316,0.166016567362166495014364,-0.108140110336739467267186,0.0170385370790363428750158,0.0245922810524998314285483,-0.0131753648381402257983019,0.00553842111857319810419575,-0.000378722277115083820041991,-0.0173041784113554600321727,0.999834592472010452723907,0.0764658502648407067958658,0.0209925833837502420764487,9.75151782670303113320642,0.0121619621198963984848307,-0.0112778800771180260503757,0.019211552177728775936405,-6.56843749087723072221934,1.92518174744512249318973,1.20013814605319524275728,1094.96765726664011708635,1115.39423839113510439347,1116.97615590854820766253,1115.65101877477286507201,-212.078128691959364005015,410.712792666635778005002,-843.789744235379998826829,-274.138944934774940520583,163.243686620058042535675
3.78250000000000019539925,1.42214590874533985953576,0.181085309294635371513138,0.191869612436169956204424,0.0218765791332335632346506,0.0257553321819428485128789,-0.0130979722810937396909603,0.00560190407521038175736594,-0.000344360748984773605476523,-0.0173255536765026321721628,0.999833881886361242052885,0.0809220567549951697028376,0.0248868836346073304954807,9.74779105933570200193117,0.0123031359212134525082938,-0.0115050175475250697487706,0.0190248589571740886472462,-6.56840836541023698202935,1.92515877759595599449938,1.2001886717961636197316,1094.27585602443627976754,1116.44792642728680220898,1114.63967119699327668059,1114.89341519822687587293,-272.464638993193489113764,334.232071316417034267943,-844.826518928148061604588,-275.479810046232557851908,163.244977477582040137349
3.78500000000000014210855,1.0935562107187826175192,0.168895865548095963637465,0.418159976687404288941963,0.0240468160321078427976715,0.0267795980403994909879728,-0.0116041570966588288710275,0.00566325898757662291732595,-0.000309000016200742817079616,-0.0173460283813580071199389,0.999833186067776158445497,0.0854547457399397886179671,0.0290777557620552074002518,9.74453813664673695882357,0.0124614195888282427299165,-0.0117316946232387860765689,0.0188291085331686210146973,-6.56837967915086640147138,1.92513430349961800480685,1.200237097864993218721,1093.60533407167417863093,1117.06539874771715403767,1112.75202331390755716711,1114.27361972454173155711,-255.803258310430464916863,172.949485262328437329415,-711.092216071953430400754,-240.893603943328031391502,163.24599046513256439539
3.78750000000000008881784,0.787390525444060518367451,0.131376206305738874036138,0.572139953807920598194414,0.02484998351284876949574,0.0276894934528064164125372,-0.00880482371764872151498338,0.00572098877650942250205901,-0.000267395208085346666477405,-0.0173603856776038956155617,0.99983260379710781062812,0.0899097402801494055557541,0.0335097564555906918259964,9.74175669221927087448876,0.0126423078237312153798699,-0.0119545496104036842732743,0.0186268631136205821408058,-6.5683523712956137785568,1.9251071330767093314762,1.20028394093651735730077,1092.9968397328841547278,1117.31267385359842592152,1111.08421011663358513033,1113.68894717851026143762,-211.385456834573204787375,34.8724727423821789784597,-608.96248801892784285883,-227.743150597239349508527,163.246936157275058576488
3.79000000000000003552714,0.528633238917244008270302,0.080466367459878188062028,0.644998571084696048494322,0.0249800453064574663752939,0.0282958367305916093370488,-0.0056867645981250368805715,0.00577204657788569792248312,-0.000215052754239702459751471,-0.0173624730841628986677261,0.999832261890745699339789,0.094132466533922903861864,0.0380866826342908179614533,9.73943848721734006801398,0.0128509259076743549699007,-0.0121695435957465993015436,0.0184207775671177825804747,-6.56832704693996660694211,1.925076623485872495678,1.20032972943316873504216,1092.54840678750133520225,1117.23976111142906120222,1109.70721087381298275432,1113.13490397155555911013,-122.637981574783111682336,-94.8467307632674589967792,-461.451129649149891065463,-216.461597932816459888272,163.247824270868676421742
3.79249999999999998223643,0.340084855474609426551069,0.0293876679364885040612876,0.619014678201549872760268,0.0247291986258296112022315,0.028318480454495090908873,-0.00310640537192990095691214,0.00581422165626319185222082,-0.000148412580476875796556616,-0.0173478244240416260013582,0.999832255281842274818871,0.0979726058840539315575313,0.0427184518948784258673967,9.73756935360690611958034,0.0130917831200440242661598,-0.0123721874790057948662048,0.0182135267117150903559697,-6.5683043962286058459199,1.92504272460639391795212,1.20037456038691559001563,1092.38364982501025224337,1116.83844019978209871624,1108.77695446838788484456,1112.60663918884620215977,3.31980299406502821213394,-222.756846231373145883481,-295.039391262805054338969,-228.686758844246810440382,163.248640633675705657879
3.79499999999999992894573,0.18553392549579300618845,-0.00971885869261644719241389,0.498171561940003115864783,0.0245951081622073561283592,0.0276588998962075671705918,-0.00108514792884590715454918,0.00584422814237017546751263,-7.15390707890608455949213e-05,-0.0173211029984304334949918,0.999832522167785731070921,0.101417500018687850582566,0.0472884429847713130823372,9.73612804173604295954192,0.0133687991671995187736854,-0.0125578472354786179615571,0.0180074922968511373644329,-6.56828333895531901731601,1.92500622453400027644932,1.200417354788710921909,1092.56500580247165999026,1116.12597688027221920493,1108.23201391749898903072,1111.9914701773343495006,128.07261077973907958949,-271.654320321573663932213,-108.383507398277785682694,-221.220285477015920605481,163.249534098395145065297
3.79749999999999987565502,0.0955608813806477080943225,-0.0122540047660698227932619,0.35058847178911417552527,0.0248389621918223800489667,0.0267314319326299627832544,-0.000274896634595670613914614,0.00586432931839882178731704,9.07801167471678802187596e-06,-0.0172900405815685012655969,0.999832915028947222246813,0.1044917670542014620505,0.0517803906520210785457969,9.73508718147582641222471,0.0136845820030871909156467,-0.0127220404593573511997651,0.0178049021380075785103703,-6.5682620411656236214526,1.92496795961410849251649,1.20045779002324715101224,1093.0240128789089339989,1115.48016859817425938672,1108.23503693139650749799,1111.50053776146114614676,237.096766151519119603108,-235.53858894491216346978,77.6494850664168865250758,-186.332808923121916677701,163.250204345054925170189
3.80000000000000026645353,0.0140706596780924494960452,0.0178574588720749466430604,0.188367133291731742028574,0.0253202844113038783024905,0.0259406418908405718426469,-0.000170521021745187521768614,0.00587613225466614066266891,9.01851967324707594168831e-05,-0.0172573367116658181463773,0.999833380350956479887259,0.107153289828623154988918,0.0561550292093730626930004,9.73441634279157597120502,0.0140398109559853549038744,-0.0128611615220569699968856,0.0176076013271600356757673,-6.56823997798564995775905,1.92492849008186817094668,1.2004975458298050572381,1093.75048963322933559539,1114.9482839355475789489,1108.62026134283109968237,1111.05980613271867696312,362.471962510856542394322,-178.614238857459667997318,222.761318795467985864889,-173.494617745233995265153,163.250794552985126983913
3.80250000000000021316282,-0.107990463771275177484732,0.0756770745573770997616236,0.00835079705477626693665982,0.0259980386659409666572085,0.0258594060100862388473786,-0.00055539822606515631096824,0.00587739278782663764066907,0.000168203072357680355735504,-0.0172236952236375431835036,0.999833926885342116896993,0.109368042710283303042829,0.060291841762281826733183,9.73408276597532307050642,0.0144333916582504578896007,-0.0129726925996737144086701,0.0174167236614300204033956,-6.56821606986558315099956,1.92488800216703093148851,1.20053682404641470782281,1094.83637269146333892422,1114.58709740388690079271,1109.34884352537392260274,1110.63306467273491762171,418.331963545424343919876,-76.8138246469805352489857,281.691295628712964571605,-134.454080870639842260061,163.251407519446587457423
3.80500000000000015987212,-0.247472572274727159458152,0.123373083474672171067077,-0.114060642148844801346819,0.0264532812246488051310944,0.0265950262805004188082503,-0.0010506899824332723708542,0.00586271342455246119440559,0.000235181989540566671430255,-0.0171878261210662228175572,0.999834620822820596686142,0.111193048469947902701094,0.0640064634923827036061539,9.73405147964573203012151,0.0148626590134326875408677,-0.0130553023640640232516663,0.017232554367463789185555,-6.56818997667783222027538,1.92484616203831571112914,1.20057590575561778933888,1095.8421494509564126929,1114.5642148123126844439,1110.02871782097463437822,1110.38753572836549210479,406.145778482377409090986,43.1926623967692790984074,253.629424308206523619447,-74.3826836592704694339773,163.251837447100115241483
3.80750000000000010658141,-0.434125516814256817710316,0.151207732051442000908992,-0.197299436023010366092478,0.0264631092432130350655672,0.0276779638923525597715702,-0.00147103899101764384882429,0.00583112564582199694590559,0.00028123902547110511945111,-0.017153476545456299018344,0.999835412303824888624604,0.112730349613273023168247,0.0672022818168481195222341,9.73428599665515648098335,0.0153236354053679236369989,-0.0131085075726250568917131,0.0170548011405773219939519,-6.56816045364107825577094,1.92480316917221272454697,1.20061460682575082969947,1096.86710158387518276868,1114.80306071587074256968,1110.61699064691492822021,1110.26115125443857323262,438.951184142306658486632,140.140962136914168922885,209.234568135575415226413,-34.976512812046003375599,163.252182297363447105454
3.81000000000000005329071,-0.703934014889284975780015,0.152321507334606420780432,-0.24414098518948493254932,0.0256031871079489999065704,0.0288100353066541234325904,-0.00207457248288781849476781,0.00578969031950947714965094,0.000313895456641118868277435,-0.0171237315278878962643283,0.999836196868983506647055,0.113753533215499080810673,0.0699355834608557935805351,9.73475427634133438914432,0.0158105024596849018381217,-0.01313285912422177716119,0.0168833020267387702573192,-6.56812725334136260357809,1.92475975078806027518397,1.20065228934491186052469,1098.03690537166789908952,1115.26491962299724036711,1111.07489066165248914331,1110.21265316430526581826,407.916931427152633204969,171.483540986268081951494,115.571091874155811751734,-9.96395064075862535446504,163.252497246011472498139
3.8125,-0.950210195615615815789567,0.128900064318467455493078,-0.233277450720475593159975,0.0240046928023880667968371,0.0294291227362846324888679,-0.00290907138601390188523133,0.00575002563236926174383701,0.000342647983317602379451511,-0.0170979915175200961052759,0.999836905258294605935987,0.114012878547799789696882,0.0723553222080209335054235,9.73542593577777459756817,0.0163164066514321845491331,-0.0131302392777980121707504,0.0167175116585507911592945,-6.56809188416752665062859,1.92471697755179405042725,1.20069093882152722052581,1098.90668624101090244949,1115.66047842080206464743,1111.19484610628569498658,1110.21133150123478117166,311.199795089448628004902,125.730713231044276767534,-6.54221061117837354714766,-5.06883770453907267494742,163.252677459899587120162
3.81499999999999994670929,-1.19056097816616079931862,0.0904341006861829888041626,-0.165702650963868547417945,0.0215816833401110547141499,0.0296665235511596910022991,-0.00412071101694643816826247,0.00571859605633501417998321,0.000371005100370323532676248,-0.017076396425928942052197,0.999837489125531386768841,0.113396166911480633654463,0.0745209383774040889925061,9.73627237966784520040164,0.0168341037331435350310471,-0.0131040110974672396187968,0.01655606367058084366084,-6.56805465455762416127072,1.92467580499006074568058,1.20073111256585773887196,1099.59290434711510897614,1115.89357318915244832169,1111.04217960859659797279,1110.18730897578257099667,230.238300529486338064089,43.8219149520600907976586,-96.6270680560703709716108,-20.6188514950558641203315,163.252773106856977847201
3.81749999999999989341859,-1.40166632244579036914445,0.0489973246236070150705366,-0.0533082865054962592998855,0.0184994360800629642493931,0.0296224336005711554042907,-0.00537546216107065433220669,0.00570002109662021833047518,0.000399536040263841500577019,-0.0170608907668023217218956,0.999837883938472504752326,0.111870175220744300093045,0.0764686765375254817733719,9.73726766342904603845909,0.0173560188770265355628908,-0.0130586717140708120227233,0.0163971535193546645581275,-6.56801450058514291185929,1.92463751138033067888955,1.20077211412260775880156,1100.05787774365830955503,1115.87958799556236044737,1110.71171076600535343459,1110.10823724375950405374,113.922295292415171275024,-83.7987784415361431911151,-152.430196665535447664297,-47.2542803428918816166515,163.252799685777404192777
3.82000000000000028421709,-1.54710653742364345752947,0.0136726896249912514835767,0.0976195253303517584964055,0.0145042795033773277979527,0.0293279495101871033602148,-0.00600210112608183087717917,0.00569549017431974797381899,0.000432983034388075894473291,-0.0170552705618936401021912,0.999838013433393957285489,0.109343927447188099533193,0.0781804663525136889212774,9.73839101238984561348389,0.0178741829195808304975301,-0.0129995452408551599721154,0.0162389685880489458014164,-6.56797092923946213005593,1.92460254719419987523565,1.20081404655220347343914,1100.16251582357722327288,1115.47457929694473932614,1110.28002862526886929118,1109.9510375740680956369,-57.6249551578218657255093,-279.531093027916767823626,-173.814669334830881552989,-80.2397257556040557346932,163.252744821456076351751
3.82250000000000023092639,-1.61170689653364229698695,-0.0150270457114079838967236,0.28737794616792677881989,0.00880308726886965681179831,0.0288687101797282311133053,-0.00548695252922578018822675,0.00570721362606709664566651,0.000475813548811851384952309,-0.017062639258380422196959,0.999837810198093812630304,0.105754388539245958167356,0.079672780515453067717857,9.73962450506743593336978,0.0183805722604238747086569,-0.0129322513412959156503534,0.016079881095961635201208,-6.56792396953201951248502,1.92457078852192209339478,1.20085761984333094787303,1099.76975296786918079306,1114.48193253042268224817,1109.842637419331140336,1109.70703861498145670339,-236.448522142614393715121,-446.122853096094729608012,-115.117592213803348499823,-87.4808433889957512974433,163.252587925644633060074
3.82500000000000017763568,-1.55924749229415304796476,-0.027982272337590523986206,0.421485065717732532153406,0.00387980798867281059458256,0.0286082819887740029407563,-0.00407102821888667178173993,0.00573411792507291882131648,0.000529890129878301239553517,-0.0170818478471085818948261,0.999837300527253836079922,0.101113134994380876596765,0.0809134205778181403445615,9.74095267644501383585975,0.0188674000609715571130653,-0.0128624965914055106736003,0.0159185054870672609839133,-6.56787356022010992973037,1.92454112556826495428197,1.20090305631454796753133,1098.98027321286417645751,1113.24396503146431314235,1109.70444066419986484107,1109.51363335712312618853,-402.114000408582285217562,-564.668563160569874526118,25.3391654344346477500949,-58.541416536583142260497,163.252384071401905885068
3.82750000000000012434498,-1.39659797591132095462285,-0.0350250026385315188504066,0.498084939044013241815634,-0.00050854091219258170351869,0.0286736448484019405824608,-0.00218051644100787124502805,0.00576708218668759396707824,0.000596688727769336280798429,-0.0171066613459696509336183,0.999836641986335816767451,0.0954635151929418279692641,0.0817280730413205425133327,9.7423632755898061930111,0.0193273456060497547670529,-0.0127958882113087483306524,0.0157539522308285072360601,-6.56782009052171655838492,1.92451174586288753509677,1.20094896833471365127366,1097.75918296582631228375,1111.65858971461989312957,1109.96933324650331087469,1109.41433153229854724486,-603.348013612698309771076,-743.125337358712727109378,232.881131258005069639694,-4.54499426755328972404868,163.252108253945635851778
3.83000000000000007105427,-1.09525461852841354826182,-0.0436872559417606914911048,0.500084510801879655872426,-0.0047913840699158709302008,0.028908824090475817442103,0.000170622969566216694820709,0.00579774675366824272099153,0.00067314915128307997813778,-0.0171330434989586943839157,0.999835953161433921287937,0.0889557556590697545706448,0.0819749154406099467262692,9.74384354247746209409797,0.0197541815869457064447356,-0.0127372003229851080141621,0.0155861097666336913258878,-6.56776335713008307948257,1.92448158235986310771182,1.20099315515730498127311,1095.96353314480074914172,1109.52833834467082851916,1110.86884632048986532027,1109.49090838578536022396,-678.154963903549173664942,-784.843383005243936167972,427.814518832619796739891,68.1978628501852597310062,163.251699397056086127122
3.83250000000000001776357,-0.781410488678499048909032,-0.0531553979187039740694765,0.420516164000576841974777,-0.00734447128517658632401721,0.0290144077805476359455117,0.00208150113209988650922466,0.00582206230151928374322301,0.000753557122063187650659599,-0.0171616922483168177215873,0.999835248579503121924006,0.0818059600106281342712933,0.0816127793790871747248161,9.74537905797982517697164,0.0201430980024781269843714,-0.0126901768923211068218482,0.0154157495118192496008636,-6.56770267045012978712748,1.92445055165982159550708,1.20103347898027013052058,1094.36840814630863860657,1107.73437279959375700855,1112.10840584066636438365,1109.75532084654946629598,-612.838038123858837025182,-676.037592437174566839531,577.418695339668829547008,147.765447062377887732509,163.251298179680958355675
3.83499999999999996447286,-0.440228614687781627523577,-0.0631253446171100712769331,0.262135819078565923678781,-0.00861352102056532099860764,0.0289051375207971597558476,0.00379804079379661343324193,0.00584029320161660089189004,0.000838181293309214173366251,-0.0171938291975487246576737,0.999834504198209628178518,0.0741246058163995136247593,0.080695819024388965035044,9.74695470938536345784087,0.0204907127614487420685929,-0.0126578153320109267759852,0.0152445064729850587870175,-6.56763883271710557920642,1.92441879100624491094607,1.2010683000837070188993,1092.89934295418152032653,1106.1481503824850278761,1113.75593979718814807711,1110.22973562109723388858,-571.575727039692878861388,-601.499310688645095979155,771.088805687593890070275,247.251616200542940759988,163.25084001103954278733
3.83749999999999991118216,-0.044087810280669686990862,-0.0708984320105699450387249,0.00543870906280835564317044,-0.00846143316902398662238127,0.0285623290095470896976515,0.00512350724289234969732743,0.00585901913269608765749696,0.000925523414158464720509489,-0.017228145108959942027882,0.999833703650962912767852,0.0660631363134689675309374,0.0794127804393747194211528,9.74855156698962588279755,0.0207955991262604826530502,-0.0126425627176634351733764,0.0150740221310312980801394,-6.56757450389682251312706,1.92438674152954880547384,1.20109922448619066415176,1091.51052951111023503472,1104.72687624615059576172,1115.96384986910425141104,1110.9915789275521547097,-424.572495721995380790759,-414.516536469418213073368,801.557326070559383879299,298.5728499556507813395,163.250231846737875684994
3.83999999999999985789145,0.248379777300948040297257,-0.0710720142620154676782462,-0.234203733435847327726265,-0.00745616806778492610674469,0.0282519922811514494209728,0.00501322701429906744663434,0.00588206665448659949541055,0.0010096898876941734057161,-0.0172650806012034502279207,0.999832821527643744730085,0.057863724825221091174754,0.0779102016933020946609645,9.75014773568163839456702,0.0210586056532341414637699,-0.012646508234764411784945,0.0149049958920632451969679,-6.56751212710228138291768,1.92435489528216918664327,1.20112964344906369973387,1090.77648047557158861309,1104.07556770013798086438,1117.76372642754085973138,1111.72259987087545596296,-195.654224521136228531759,-133.741005528818334369134,652.955337913637322344584,292.33329288602209317105,163.249681950510307615332
3.84250000000000024868996,0.482694188861763961995166,-0.0635874512803771413382847,-0.457345067774238722702052,-0.00624012448548199281928017,0.0280859501095821612048908,0.00356383200629462135872183,0.00591070596535553469813573,0.0010850331809575195895351,-0.0173059161723461835125093,0.999831836292160325285749,0.049764757103075416000415,0.0762921564351172754037123,9.75171893249511434476062,0.0212824715757835604412751,-0.0126714235896168963407815,0.0147371293793246444653322,-6.56745322849250889873929,1.92432387920921055268764,1.20116304953832675472825,1090.53225838850448781159,1104.05817121850645889936,1119.22862655867265857523,1112.45324539198236379889,-20.752385973581532141452,98.2869462272835363592094,492.494597818871113759087,275.29255425240950216903,163.249093430346334798742
3.84500000000000019539925,0.661771247149257280106838,-0.0499164532037255151419863,-0.636975462420376170591396,-0.00481152757270083674540073,0.0279231271564024698117468,0.00145675808159513933692786,0.00594227960054741471268569,0.00114677264270236344695375,-0.0173510864652566786092702,0.999830766964934447571522,0.0419855330039684837561964,0.0745904994548098887463539,9.75323832768926379799268,0.0214712652651803496961502,-0.0127188049434708780327519,0.0145693607764796565634535,-6.56739812928242727707584,1.92429363291000532498742,1.20120106645523838651002,1090.67271854570367395354,1104.56700243127443172853,1120.22619941663538156718,1113.09906264213759641279,133.096266305122412632045,318.53005341136616834774,256.45972414236530312337,218.169267228545436410059,163.248476956032249063355
3.84750000000000014210855,0.76884238172739960415214,-0.0293404265894148877369396,-0.738742391454605629164121,-0.00304801220359480302610211,0.0276177264134204770995584,-0.00110219993039715308778825,0.00597400246536519512197128,0.00118667514728735515490421,-0.0174006721214262152774843,0.999829647309142366395918,0.0348059096143154000913,0.0728379428540574802575236,9.75467464155854102614285,0.0216298893444569831356894,-0.0127896197940760066730226,0.0144003978969658545661314,-6.56734597585622825732798,1.92426423540550284307926,1.20124385614829276569537,1091.19773972003008566389,1105.65082148556325591926,1120.51092517938445780601,1113.54409172812506767514,292.020896794207942548383,584.045986172362745492137,-53.2959869716262346628355,129.505001667624156880265,163.247831114087432524684
3.85000000000000008881784,0.808044749824889829703523,6.47479902267785942249212e-05,-0.755030347665521350819517,-0.000858204273890727045194515,0.0272171895190439980249941,-0.00444263455791755069307358,0.00600200223749390929239844,0.00119991917263957302217103,-0.0174525705236763771510677,0.999828551462580206177222,0.028430207973451818159738,0.0710440912562882720404644,9.75599267277662285380302,0.021763258661485637701638,-0.012884282810950166767161,0.014229726325701167258253,-6.5672945770202142412586,1.92423530329608749589454,1.20128874462686074942042,1092.1328230296746824024,1107.48723236213618292823,1119.9597194817772560782,1113.74658765047570341267,371.362401365612356585189,738.561991589465151264449,-344.340414082269546725001,10.5859331925332735835354,163.247027015280508521755
3.85250000000000003552714,0.761555150582759687871715,0.0224640740688021589566148,-0.682209138166832818050977,0.000955936513965955302583877,0.0271259565630865423502271,-0.00711789418786053576515549,0.00602789548561351480604475,0.00119859257618049183310993,-0.0175066265419577538064999,0.999827453683581723886675,0.0227192747399580924350104,0.0693170070373612945413555,9.7571525880942395758666,0.0218756782558892776124893,-0.0130021665291625392046893,0.0140589281725347365475942,-6.56724276229580272712383,1.92420685958828063810699,1.20133238206417236604295,1093.05455172685810794064,1109.34363144351050323166,1118.78922310897314673639,1113.59702139408773291507,371.709446281655516486353,775.567285861614550412924,-593.304341999113489691808,-128.004723861707134346943,163.246335706066133752756
3.85499999999999998223643,0.625955220884787277846328,0.0319813879120841651482188,-0.537900452284078345321916,0.00280471204684585619093529,0.0274437382842868393684199,-0.00888146288909018137569529,0.00605536011393632920413177,0.00119298642004204784837496,-0.0175619901696630435761204,0.999826329036619276813269,0.0175552995539042522299411,0.0677995100679623652339956,9.75810740526226183533254,0.0219712105021685512318275,-0.0131416972067522203060363,0.0138909439520174416565768,-6.56719067497800512711592,1.92417893069369716485539,1.20137316104562552609991,1093.99137026108292047866,1111.36506879144417325733,1116.99319777178175172594,1113.10656403116718138335,386.96463693618994739154,878.990458090921151779185,-897.39355332414652366424,-287.202987878214798911358,163.245625328012465615757
3.85749999999999992894573,0.353541153675940911238484,0.0175726146052182230494765,-0.316194364361979729505236,0.0049580215038508030495068,0.028116623221444592140017,-0.00943270030870364643849069,0.00608223330942283309935581,0.00119063966724675639186071,-0.0176132753635454726570675,0.999825273181411233736071,0.0128626111766815265369246,0.0665123091696839252584539,9.75880433021712967445183,0.0220535853910127505050909,-0.0133006300886295159707773,0.0137295862229665742437756,-6.56713874202456882045453,1.92415085912500249953894,1.20140994284276225734232,1094.98937491153901646612,1113.73858373396501519892,1114.30225534235250961501,1112.16100645469668961596,327.071367651349362404289,821.035919281957148996298,-1044.29313285265789090772,-394.051958791587139785406,163.244753501855456079284
3.85999999999999987565502,0.0359038873135552397131143,-0.0186230622952719242213515,-0.113926589833685490416038,0.00643850840289224030793536,0.0285993808924006921723393,-0.00901127911159497856086187,0.00610398365295258642226894,0.00119407033890974920674333,-0.0176553773618284386148769,0.999824400741534113912223,0.00865026067058555919730978,0.0654207921616204168824282,9.75918454485280939536551,0.022126353405238843863323,-0.013475671324656868926839,0.0135790601338115542867646,-6.56708681249852688210922,1.92412151503991823986439,1.20144182145293454411217,1095.62672709933963233198,1115.47024838785387146345,1111.7717321075185736845,1111.13630423720928774856,199.518232324440020875045,590.782068990307493550063,-1030.37389129756184047437,-436.770913039861227389338,163.244012409340058411544
3.86250000000000026645353,-0.361613362080733635739449,-0.0748784211764096929719869,0.0920293831276252638495805,0.00719946882350985285781153,0.0287377015615262326742041,-0.00863386957643848609866843,0.00611302496503494507268384,0.00120091379105057905786469,-0.0176895671037466777064662,0.999823740444043873587532,0.00500947461126874382664198,0.0644201234620457030555229,9.75918466763452308043725,0.022193025193936424116492,-0.0136622806027938518969034,0.0134433102101916904236312,-6.5670334647000219163715,1.92409001929043843581724,1.20146781626321730307438,1095.98696607316128392995,1116.69249407891675218707,1109.15038588586435253092,1109.97715188949723597034,86.8408576294255567518121,368.344845372642055281176,-1121.8387179190510778426,-508.847000523257747772732,163.243257827729706832542
3.86500000000000021316282,-0.891992063734298179511484,-0.152016675738827156116884,0.340493875751976649013386,0.0062581907640540434048515,0.0284480308707379149490979,-0.0087354772419021512602777,0.00610482939300561501527742,0.00120526445237724910350408,-0.0177146666961676378659885,0.999823353169962292241735,0.00208627090987437147084904,0.0634516825853209398555776,9.75873788310834733294996,0.022256896313240355500529,-0.0138550960444231742452192,0.01332548847630301951106,-6.56697769104993422928374,1.92405557250540826252916,1.20148876237686019763373,1096.0609313874867893901,1117.31197261471720594272,1106.16253851792293971812,1108.59206923459282734257,-31.0338180341666216577323,62.738198195439935034301,-1029.83170276868281689531,-483.276759027204491303564,163.242338388777568525256
3.86750000000000015987212,-1.33665578360406667179916,-0.212450391945976341245839,0.544868657886351748231846,0.00332294035933444753538879,0.0279310979105146899026391,-0.00877091009015883334154484,0.00608354944265796296343218,0.00120184372445429881598455,-0.0177248080253619468005244,0.999823327930540739494347,-1.09923373198955731666615e-06,0.0626104699702107192482714,9.75777597065815172072689,0.0223211144105766139122959,-0.0140482173236106330782569,0.0132275705605021803856758,-6.56692119429845089229048,1.92401759048350839975683,1.20150830369815420084478,1095.83179698299045412568,1117.00618506989394518314,1104.00122737202104872267,1107.56076809436126495712,-141.659704322685968236328,-293.015902107987926683563,-753.308555808205369430652,-364.808676810761028264096,163.241561621761434253131
3.87000000000000010658141,-1.7311580940696151831304,-0.255282713178572984169534,0.727874436289842163816388,-0.00144384904782659086522334,0.0272544834342360389745075,-0.00785410530144633328708537,0.00605642531011777850852296,0.00119949370014032987048769,-0.0177141159457712346614322,0.99982371126520752646627,-0.0014227997755383442468613,0.0620316277639348864769708,9.75623410839869720234674,0.022388648842922485859841,-0.0142355794270392858186236,0.0131503668019484955958864,-6.56686680455039173409659,1.92397593382692222441221,1.20152817366212549821114,1095.35263286587337461242,1115.84689310417729757319,1102.39599573888199302019,1106.76802585053906113899,-219.74164354988275249525,-582.242227855216356147139,-525.948893584438678772131,-268.991984670452723094058,163.240774955376707566757
3.87250000000000005329071,-2.05272201287194944185899,-0.274586628776440910826295,0.868376197723815912432599,-0.00707380712709328521303753,0.0263312015996511154802828,-0.0058328865255670055145476,0.00602432836875815835853132,0.00120871462496217234663942,-0.0176786349660271319139682,0.999824551773199288184912,-0.00238964637668904328338115,0.0617110203558081313324202,9.7540550817823525875383,0.0224625744768894922143154,-0.0144115968043032425388583,0.0130926256455358002578349,-6.56681625901324750316235,1.92393064891629994583866,1.201549041300262743448,1094.73308876524106381112,1114.09497393061792536173,1101.3714829040989116038,1106.21580817100903004757,-261.1143708428299987645,-792.963138078965698696265,-257.060506637850266997702,-164.696237406409522918693,163.239980744753921726442
3.875,-2.26497548956027072719621,-0.257938918631921532131912,0.924129327077160556136448,-0.0128761825864459507340332,0.0250813163879079412121875,-0.00230643677460706233647847,0.0059832730930619035594753,0.00123169867655975183613759,-0.0176233422893480075333006,0.999825776649163500131579,-0.00295794971702896883347655,0.0615402616346968425742325,9.75119224399319861618096,0.022546121258220957334073,-0.0145713001162498818202851,0.0130507375794984524508546,-6.56676821968795998429869,1.92388246933570816743497,1.20157062308519191340395,1094.04706101165925247187,1111.8820774137825537764,1101.11069320569276897004,1105.94454466350703114585,-289.852073844128256041586,-999.82876812771189634077,53.3487805237666634639027,-71.1055587577008481048324,163.239178081918623774982
3.87749999999999994670929,-2.38230447108629217467524,-0.195809864443923925536595,0.866027129393042383043166,-0.0193887072200205727579014,0.0236671956870233186898123,0.00277497952487432055640459,0.00593266754194866300503586,0.00126404494838684234095383,-0.0175581377445172027995657,0.999827213834216355081708,-0.00306410927855516740381248,0.0614689695335077987414785,9.74761190857875803317256,0.0226420602145865762500065,-0.0147107338514802041956608,0.0130192100406120135624999,-6.56672053758490470443121,1.92383273449138836319605,1.20159348136664645423366,1093.28382839602045351057,1109.09583008997947217722,1101.63822680671773923677,1105.86028037722053340985,-252.720405203041025288258,-984.718840732624016709451,309.87141703745442100626,-10.0285580271704333199523,163.238205757396428907668
3.87999999999999989341859,-2.36087525266240616517166,-0.117305307357840948867533,0.718291851485323262771487,-0.0247147781660064687347944,0.0229939988599502480315362,0.00629814637530555932604104,0.00587418308359868163170958,0.00130137123332345837865842,-0.0174931024900902530594404,0.999828677667263687744992,-0.00265127360350113361331381,0.0614828028988138666766083,9.74329696368072184498033,0.0227521429012494530441657,-0.0148274835351361600199738,0.0129911348686835813326379,-6.56667244658282100999713,1.92378262748558137573696,1.20161950061765421260418,1092.78345898564407434606,1106.95848321011953885318,1102.66005029088000810589,1105.89440187337118004507,-158.781049311699661075181,-758.026905495211167362868,485.801292240297641455982,9.90912421475446869578718,163.237388287914910733889
3.88250000000000028421709,-2.20604471444491645470976,-0.0287986819624017620355971,0.504314683499120230969481,-0.0306552083588965199045795,0.0229929946715261152023757,0.00798418584417450241663694,0.00581159289813742378077999,0.00133977523674863228074494,-0.0174372155830753473859662,0.999829992124245614526501,-0.00167639765007458751977509,0.0616030824151345204886532,9.73824930363369034580501,0.0228770064155831703844868,-0.0149208293936456976719329,0.0129585636371217921558596,-6.56662269092896799804748,1.92373339954883615376957,1.20164903600494143987021,1092.48992314946190163027,1105.30569556250316054502,1104.06723326791939143732,1105.90982599829430910177,-77.7794336027857156068421,-570.469176798185458210355,648.805908626902123614855,-21.7317238065319422446464,163.236563987253191498894
3.88500000000000023092639,-1.85694814314716061254273,0.0670606012153638075812268,0.233024901608974488453896,-0.038657582887429223217346,0.0234939848085993809034822,0.00782366773639516996374788,0.00575047953574697040535213,0.00137484358154250007819086,-0.0173976166656109182406809,0.999831005423834406897754,-8.90799102671174791723274e-05,0.0618844099321770521604513,9.73249135352489247452468,0.0230162821612017315375809,-0.0149916914818931639591382,0.0129129621440475447768925,-6.56657082170239458918104,1.9236861417141930541419,1.2016821721414618906465,1092.39456181763011954899,1104.10613732612841886294,1105.90407983401473757112,1105.78574325433851299749,2.89431139385675839648115,-294.512097529429297537718,657.594726751463326763769,-79.1929362912941172680803,163.235567995347395253702
3.88750000000000017763568,-1.43960643955750167144458,0.126120986425563463839694,0.0346373367310346749747829,-0.0452993761784279760918004,0.024145446658963582581281,0.00655237067474704129588225,0.0056929857076003422683419,0.00140440658480584868242347,-0.0173769801470929734221738,0.999831661148344097433949,0.0021182075689475110547022,0.0623142192952028314834045,9.72606761817038112383216,0.0231686579453149466001349,-0.0150426270187565495201065,0.0128457313966687958900481,-6.56651717247734367788325,1.92364114035429811799816,1.20171871912758132516785,1092.50439470643118511362,1103.83313507485604532121,1107.35520690167663815373,1105.51386131683784697088,70.6554795660864840556314,37.8370974602156735500103,528.163553316755837840901,-144.198020417073507815076,163.234733310020288854503
3.89000000000000012434498,-0.939692725307131881962164,0.155726696686473098374393,-0.109686570291433499457767,-0.0497189120261522302102186,0.0248857713993210077907392,0.00541440578102729292570006,0.00564239036092359716456635,0.00142734086680452185516565,-0.0173759428824318898354484,0.999831932253500532681301,0.00493300099215839005228901,0.062905026797737129129473,9.71904345126773883123406,0.0233322069169375687081036,-0.0150772429133595418926372,0.0127488563215801698619289,-6.56646164998031611759188,1.92359866752722186156177,1.20175887255562474642545,1092.74783921546054443752,1104.29532281342949318059,1108.54489760059846048534,1105.06475315225316080614,118.874766278261432717045,344.224193035332120871317,444.898753663037894057197,-225.752649769451892325378,163.233895215813163304119
3.89250000000000007105427,-0.345056244687802049497805,0.156855402763246470909664,-0.218607825549394896302857,-0.0503251702797118671828258,0.0257031303085383661111152,0.00482024800115246621068366,0.00560238815165338410739793,0.00144251923241734748316889,-0.0173930910163993361627899,0.999831826887799257619349,0.00834426291122182528514628,0.0636826684871819315159058,9.7115036428001904056373,0.0235046335303813122563632,-0.015099809808375998579355,0.0126153978858977357940807,-6.56640381061716471577938,1.92355921979714517000559,1.20180176634318902628706,1093.09876853782247962954,1105.55425604003266926156,1109.57970066999178015976,1104.3850980679906115256,124.125316989105073162136,544.046375066102655182476,315.914905425604388256033,-256.716853205312872887589,163.232887599203337458675
3.89500000000000001776357,0.0686488601587946084547909,0.133832618071345388344184,-0.262311744816037084593319,-0.0477897602359421344586643,0.0262308883633945062741066,0.00453869810513518948114076,0.00557411066641551149192235,0.00144961525966078703074602,-0.0174231515100051748135002,0.999831434127851692572619,0.0123280850016220452913807,0.0646292960362782609173848,9.70355057500169593254213,0.0236834446519310730383534,-0.0151149701561584751813294,0.012439937130791804340002,-6.566343678107325665394,1.92352287220782813825792,1.20184520174904263534188,1093.36846580040605658724,1107.01555468875994847622,1110.12447212772644888901,1103.78116888622662372654,88.2989642175762696751917,616.769893588447757792892,165.282594175599911068275,-226.472609142870453524665,163.232048048405317786091
3.89749999999999996447286,0.338315739632545020576515,0.0955675939265977908432248,-0.263004101786433075460536,-0.0444095370622908380831007,0.026573375507501186681969,0.00414821460240513521788852,0.00555481873261793202695147,0.00144848710044632317250901,-0.0174632338865310203501746,0.999830823228863407869937,0.0168594815821105914466216,0.0656597305158100330579884,9.69530128249682476848648,0.0238664244822377434596117,-0.0151269924296826493992363,0.0122188007683842886352821,-6.56628137617007467952135,1.92348891591093207331653,1.20188758901823056213232,1093.54026335891035159875,1108.63810550797484211216,1110.40611364086976209364,1103.25273502227628341643,44.3751507973511607474393,631.11293930525312134705,80.4101723597813276001034,-182.311200716416607292558,163.2312109402906799005
3.89999999999999991118216,0.480433337960746220662855,0.0534968856377690885062215,-0.229013068286055138100821,-0.0413032288637504366168862,0.0266914765443144567924616,0.00355595263855460787250085,0.00553979798581870179485787,0.00143961346592506823569013,-0.0175072170793546463829493,0.999830129952613888555391,0.0219028135470823379082894,0.0666578389066867504908487,9.68688354973674314862819,0.0240517160493841572477258,-0.015139560807390185781518,0.0119501853885604011895616,-6.56621711014092035441081,1.92345565308012900196388,1.20192802191501502129256,1093.59034155439280766586,1110.17111938528614700772,1110.52652298952534692944,1102.86961288264456015895,-14.8750204130000351909757,537.703758098914590846107,17.8971498206453105694891,-103.788771211422769624733,163.230377629658988780648
3.90250000000000030198066,0.49673205725438857038867,0.0175045208977543907680197,-0.152583387167841255660505,-0.0392739452827246468546996,0.0265046207420264814946798,0.0026387024246836998132848,0.0055288465567961365618177,0.00142539561028616674522029,-0.017551183801149113777873,0.999829422962047908995942,0.0273828520156343957481226,0.0676020048880325852280748,9.67843103137357552157027,0.0242381986649855100945938,-0.0151551094702912537981465,0.0116342954876274620734655,-6.56615104748412559132476,1.92342195914779079402024,1.20196667312707394792426,1093.46588825684534640459,1111.3266242984695963969,1110.4955993899729946861,1102.73379116621913453855,-97.1583113283420800598833,361.143600500939271569223,-46.323154194712117259769,4.30263809412252218322692,163.229550689764465687404
3.90500000000000024868996,0.434284789839443463588253,-0.00841143747468865027316909,-0.0160625320369640542383927,-0.0386340606663085756045106,0.0260587616783604127113083,0.001503371843963067708283,0.00552403918055515211205098,0.00141711621134823291708049,-0.017588749056989542302043,0.99982878565234367673753,0.0330497796281772060478232,0.0685177462384148894258828,9.67008054325858523725401,0.0244254128245605696412301,-0.015175066114907268671752,0.0112734357759069758753157,-6.56608395238492015266729,1.92338696131541309064517,1.20200316249188432493611,1093.10454999775106443849,1111.9768373877909652947,1110.2949072185517707112,1102.89112607311517422204,-165.594164471352883083455,85.92629034160565026923,-102.834904665044092553217,106.793790215172066382365,163.22856740061351388249
3.90750000000000019539925,0.361873368894781555216156,-0.0127518479964735670373344,0.123420504365593777795773,-0.039159852188186614063703,0.0257082367447259152459793,0.000928205376572334276731591,0.00552361052042553684476855,0.00142426146623714721360654,-0.0176128999968132304854151,0.99982833685605465579016,0.0386863632084588626725008,0.0693621071450811199632369,9.66196828513236560809219,0.0246140313575137596735498,-0.0152000214040440215224059,0.0108711235895335347340085,-6.56601670041897644836126,1.92335019285769570629441,1.20203686354140182324102,1092.63791743448859961063,1111.75625575017761548224,1109.9814248666477851657,1103.26776011729498350178,-212.975369374685215007048,-257.146166619537325459532,-156.058339141421726026238,187.763067254904314040687,163.227756283747936549844
3.91000000000000014210855,0.307790698923542715981228,-0.00170168217148997146306866,0.263774608129021814750814,-0.0398633674660829051550337,0.0255187194368365413699173,0.00106557561330976606657484,0.00552259286405150286863863,0.00145148100523635769677766,-0.0176165327717353915881748,0.999828223071992816528564,0.0441643071750711380119014,0.0700363314273126369435829,9.65422564933858673441591,0.0248059678774318233263063,-0.0152299012874164453601455,0.0104317040158616921446955,-6.5659500578646419199913,1.92331122400392295901383,1.2020667555409347837525,1092.03967315087766110082,1110.69110655469330595224,1109.51461552284467870777,1103.82994140938967575494,-276.745885892438764130929,-638.649598982342467934359,-231.839279879300590891944,269.217552529158922425268,163.226954132823607324099
3.91250000000000008881784,0.278505885413628528901597,0.0211840782850254254199296,0.392521635834153337363261,-0.0399824655394428740695645,0.0255329745278581599077228,0.00224801633458942542662107,0.00551415275406292627879967,0.00149531700259802782619623,-0.0176014685192405935520998,0.999828453065152777945457,0.0495040492015753758048291,0.0704136961384785597939384,9.64697508314561424924705,0.025004619622236996800968,-0.0152637704125478789601855,0.00995985948022495501397167,-6.56588356452020871500963,1.92327030715508073832609,1.20209189996828502700055,1091.25418800502643534855,1108.56300775526597135467,1108.82222846725130693812,1104.61384787994074940798,-283.262477268096176885592,-878.504226297737318418513,-262.272798741520205112465,291.482678243216298596963,163.226001652068532621342
3.91500000000000003552714,0.278058688267000697624809,0.0410364268047445426845776,0.436026020358177890390294,-0.0392324701546464330026431,0.0258442968120919935870461,0.00408251234631746857256518,0.00549567529835785946457083,0.00154874517896798520599777,-0.0175746996583580443462846,0.999828925907009335993791,0.0547833300968754433046826,0.0704543111537690724954786,9.64032679517443114036723,0.0252145134862703582112609,-0.0153001901536557738392474,0.00946054644010022906253088,-6.56581743055564359679011,1.92322777830331648196704,1.20211333876041925883271,1090.62336076453721034341,1106.29858542320471315179,1108.20325152913710553548,1105.28735480060572626826,-227.81279501546609367324,-931.954356007119599780708,-235.91488737534339747981,262.242231946589640756429,163.225215692802038347509
3.91749999999999998223643,0.289724278628329279250408,0.0549855945448572969169732,0.385492487348980339412208,-0.0380663920184156692738675,0.0263974794741298757205783,0.00649914940388677912774806,0.00546673014811750648117572,0.00161010976296041899424871,-0.0175395807364917555304373,0.999829585353706806749585,0.0599652912089109618731797,0.0701604436108571594132854,9.63437858079865883098591,0.0254407370537603379212488,-0.0153379852095285196950103,0.00893892847704972660916045,-6.56575229864397158507927,1.92318401026410734644401,1.20213196420709222955736,1090.11512402994912918075,1103.90323597523047283175,1107.64265403037461510394,1105.92505903967366975849,-170.708752603699394967407,-913.070479023118764416722,-200.84296976847755900053,245.748748713691156808636,163.224436532928677934251
3.91999999999999992894573,0.305192892743478771944154,0.0631707487775747117408898,0.250077423834700551807941,-0.0371303042575123129487302,0.0268327154248223682941887,0.00892713039926531191914361,0.00542896351380266813796416,0.00167777669315090989694828,-0.0174967210945972985458585,0.99983041504327818671527,0.0650015772201836122823337,0.0695757175409735806326239,9.62921377481849738444453,0.025688884026319164233243,-0.0153764362408736997289704,0.00839980485322430921180104,-6.5656895595207682703176,1.92313943736267867201661,1.20214899787415485654662,1089.76981700151873155846,1101.73323302808921653195,1107.19903668029473919887,1106.51609854417415590433,-89.0458249378771995452553,-733.752964102511441524257,-139.774641950546794078036,225.062214099175690762422,163.223661916875215638356
3.92249999999999987565502,0.322950561063471142109194,0.068784848671301052069893,0.0273156205953002662045748,-0.0366275848547965438006813,0.0269354310201774076183323,0.01072081425676904911648,0.00538129584703569974202253,0.00175119292150443996852749,-0.0174473973868733978065393,0.999831402510900746349876,0.0698139217626060626376017,0.0686926673345103211421048,9.62490146671977520043129,0.0259647841956608636804216,-0.0154153566413370145954387,0.00784737137335182917408094,-6.5656307101464337350194,1.92309438985675940081421,1.2021651150870305002627,1089.6698949052597527043,1100.23447115471799406805,1106.94378082062189605494,1107.05037011016952419595,17.8686750259191029499561,-419.752821491118879748683,-68.9137132221229791184669,221.191856767776329206754,163.222891902349118709026
3.92500000000000026645353,0.343252809547787807176178,0.080072445593835556154616,-0.291351400339480592904806,-0.0360726891729398271846385,0.0267062193790205265608861,0.0113767999710842095117957,0.00532352000422649067334913,0.00182227270190308317937555,-0.01739925858854627152561,0.999832430677675465524601,0.0744597866175292222301607,0.067526289895632335413822,9.62149370825352789893259,0.0262742384214480900750388,-0.0154548199493375424534714,0.00728488534571953682411616,-6.56557600332266932952052,1.92305004458031558733921,1.20218024175905924266772,1089.85916037664833311283,1099.6344689206334805931,1106.85446811418410106853,1107.62205782801311215735,118.623110044783246053157,16.8630803545954677247209,-4.69777507896619805904947,194.08504015362777295195,163.221972931521804639488
3.92750000000000021316282,0.352644775725653392139947,0.0958100609832564509282804,-0.546987162385334735326126,-0.0354836214773961780566403,0.0262991288802040916461333,0.0101204443769862730689857,0.0052628312669594778938631,0.0018839778105469969296526,-0.0173607011704793451345452,0.999833327350392653265487,0.0789677513387482959972274,0.066235540694779271309045,9.6190258497196161613374,0.0266219822947553579062241,-0.0154953321598701298372758,0.00671536170475312520211641,-6.5655244969182140479802,1.92300781265116582652297,1.20219471297381552687966,1090.26301045548370893812,1100.31878655649097709102,1106.92029194522706347925,1108.02079531093772857275,202.568956099416709548677,522.219024888101785109029,41.3354149578489966643247,134.884633974800777878045,163.221211756674875914541
3.93000000000000015987212,0.341568163202310759452018,0.113001295316458638673396,-0.724764135604450743244342,-0.0344487848484327507936342,0.0262430097509755953788524,0.00696748831257751333190242,0.00520809035793837280664542,0.00193528398728646036652812,-0.0173316270462554877784811,0.999834046729465186764685,0.08324793199115385067266,0.0650086617312726766648723,9.61751885370740389191724,0.0270106689811071762341577,-0.0155382360698279615301987,0.00614175597102143387695516,-6.56547451520532199253921,1.92296769277398760245035,1.20220933261010709536265,1090.87200515714539506007,1102.24556404507393381209,1107.06114518897334164649,1108.29648099788710169378,295.921521506540500467963,1077.49410930157432630949,65.6137480511020214635209,84.1606389692533127799834,163.220456651346495391408
3.93250000000000010658141,0.289763063901419981593932,0.119852537166670103374599,-0.789840120763042552454181,-0.0325931632336572268959785,0.0269576074322824196793924,0.00215731656100587917274103,0.00516275543629139601481404,0.00197690720880775577805721,-0.0173125422245518356678673,0.999834559681903822792037,0.0871798879203978804852682,0.063930515676946103598155,9.61697988842947815157913,0.0274407319525661434755914,-0.0155850204517295060080428,0.00556670648995795120522745,-6.56542401258050478674022,1.92292922575205049717795,1.20222482315745438086196,1091.74261806301637989236,1105.70625710299873389886,1107.24836068548256662325,1108.44159850578398618381,324.709225240810724244511,1382.20376830634677389753,66.7528109634091038060433,21.4804783783624806403623,163.219559952014037662593
3.93500000000000005329071,0.210808179915308424590137,0.102939352668124595169274,-0.704822834876991044517069,-0.0310616658427237367356977,0.0279014859866733473670042,-0.00179458338076369963536016,0.00512400675612652636847777,0.0020061257629379485901977,-0.0173036113383328200854283,0.999834884845368532246823,0.0907167994967523899640938,0.0629668293166889547762821,9.61740143704169980765073,0.0279101831647674027137018,-0.0156370465599401098355514,0.00499251276534890681135792,-6.56537076405860542394066,1.92289183328045032439491,1.20224106675002273547648,1092.49555128334941400681,1109.15658288660551988869,1107.39490924379038006009,1108.40388338977891180548,283.701735254550499121251,1379.4765646532889604714,56.0983917933311317938205,-39.5624496102763529847834,163.218822947453304550436
3.9375,0.104790745863292830697411,0.0576322599232939464242165,-0.492937649899583885115817,-0.0300854320824056990779649,0.0286855291994203495664628,-0.00485395269266431124421945,0.00508285151994904323136115,0.00202050729660613803337355,-0.0173026828744189467568226,0.999835110974592433663588,0.0938182210118738701964958,0.0619636192873902966193889,9.61876226547678570000244,0.0284145788387797741669782,-0.0156953897574368742007245,0.00442165197103507653236809,-6.56531267457808542786779,1.9228545877215776904734,1.20225673308318103948977,1093.16112673928910226095,1112.60363992626503204519,1107.52885264444921631366,1108.24378625773260864662,247.801161700004570320743,1380.12152029908270378655,58.4151208571269009439675,-79.2496893520836778179728,163.218100172960163263269
3.93999999999999994670929,-0.0259394820949286446232218,-0.0219622960875201084229857,-0.152407481422750429311819,-0.0298504272433080669602035,0.0291103618644821399152889,-0.00645550796437966301760669,0.00503802262796775989633913,0.00202539574173131757192645,-0.0173088993971173901731397,0.999835244002661660545073,0.0963053066406854285652628,0.0609119815520057436564194,9.62102744040103807776632,0.0289474666286676854398685,-0.0157603618662367286895609,0.00385786780857619478191101,-6.56524857889740154348601,1.92281724643036611155367,1.20226968663148414684372,1093.73455709184941042622,1116.0571904881007867516,1107.68698484807600834756,1108.00763494301850187185,159.643519382419754037983,1076.12974754117681186472,59.4111725278265936367461,-77.7535393423039096205684,163.217254094699455890805
3.94249999999999989341859,-0.112486204404151801661271,-0.0973952777136373182287343,0.143670369726940611032617,-0.0304707375386765004499079,0.028945485882929649495976,-0.00575101167658761871365192,0.00499067930488135674121919,0.00202633076359320322273883,-0.017318183211039450686286,0.99983533342072017369162,0.0980120870405248034717971,0.059846424584033768023783,9.6241479055315597435083,0.0295009622005489718921112,-0.0158317906085067398869182,0.0033055770370279619410625,-6.56517842729271450252782,1.92277957267478183389642,1.20227895924373173741628,1093.95934433620118397812,1117.98428866397080128081,1107.82590850708834295801,1107.85501856102109741187,32.0057263425929932054714,527.124772796479078351695,58.3192269441002935081997,-37.0420847297257296304451,163.216569959093732222755
3.94500000000000028421709,-0.14869425970630617550583,-0.165800666121984685563717,0.383195654227494020283018,-0.0317289302008516155284568,0.028268149534951533818905,-0.00365245488699117784592296,0.0049404464387444758932677,0.00202770104014515220244852,-0.0173242204469089937368675,0.999835480136914922510982,0.0988153048232622843727313,0.0587684143534343769732509,9.62806134820612768976389,0.0300664933407069449866622,-0.0159089965023449519954113,0.00276941948738803137008979,-6.56510340554634286291957,1.92274135177662675033616,1.20228469949144445294564,1093.8945857235623861925,1118.69281435208336006326,1107.97858098279652949714,1107.82242451936986071814,-68.5887331099319510485657,83.644248917966066869667,63.0477429455325548701694,10.9999213542770881701927,163.215910511057529674872
3.94750000000000023092639,-0.13135823922396408502955,-0.218266132676835034054363,0.537271894699488883340166,-0.0332637378081446569155766,0.0272989445498424722347242,-0.00100944713856830885906346,0.00488407884943100126240445,0.00203369707211888128828292,-0.0173208297534613066270825,0.999835799298500749188179,0.0986181926361486271837009,0.0576201600017232570816184,9.63269350889044950747575,0.0306354862746811978935213,-0.0159906796158441472099909,0.00225393752738492145204496,-6.56502484704388677982934,1.92270214242977188767725,1.20228719893172342203513,1093.61640067065150105918,1118.40250990856065982371,1108.14114722181602701312,1107.9100181677924865653,-145.14887802006651895681,-316.645913594363662468822,65.1236980340413822432311,58.7595102571425513815484,163.215273057501235598465
3.95000000000000017763568,-0.0513762366761850580720861,-0.245842573962241128793238,0.564496152450555732649207,-0.0346094978263414912444951,0.0263293791478584025822496,0.00194233183785913476882001,0.00481749314696233461169372,0.00204734462445129317825776,-0.0173097490222265358583709,0.999836274806282454541417,0.0973688661350561868168541,0.0563256426993326772545423,9.63795886588676964379374,0.0312000621856179070900961,-0.0160744877523452713019569,0.00176325987666057820875409,-6.56494364566456400922334,1.92266147780345653117706,1.20228643836984816495317,1093.16884133346206908755,1117.10958478411157557275,1108.30419947296672944503,1108.11622207065556722227,-203.162509689995886219549,-720.109025653907224295835,66.9499600605391265162325,100.322276056296999513506,163.214663132288393398994
3.95250000000000012434498,0.0921007927090041200735016,-0.251740694231391837210055,0.451021276369499402036922,-0.0350127268421303594614358,0.0255495032681923861517248,0.00550991551987446877280963,0.00474209549638945817434665,0.0020719456687917866578863,-0.0172955827097464251429493,0.999836812810563135833775,0.0950307987984745083931415,0.054910186136657997135746,9.64376175557540449290173,0.0317531438510171709621588,-0.0161574159593204126628141,0.0013010985076626459602811,-6.56486065907560067955728,1.92261929874307413435019,1.20228309526583965194391,1092.60058812220154322858,1114.80196478029120044084,1108.47589702211871554027,1108.41162954807396090473,-187.021356185281888429017,-907.662006493611670521204,54.8790716906308162492678,99.059309953420168426419,163.21396328680327769689
3.95500000000000007105427,0.222400422473449932425638,-0.23836915411723311186698,0.258837879392955938495646,-0.0340905797083703304695135,0.0251454251959010582906373,0.00801992253010252141576242,0.00466127687188051982591919,0.00211463280005090483587571,-0.0172767578811413961836774,0.999837407226043195507259,0.0915150699455652832936536,0.0534292562113157440406574,9.64999979116805661760736,0.0322882985653189860664192,-0.0162365939112879380246124,0.000870618423478921286962073,-6.56477642652980453163991,1.92257540979590957341827,1.20227824477707723183073,1092.2337345525356795406,1112.57127475164361385396,1108.5785948314198776643,1108.61151862042265747732,-97.5439415929052131559729,-889.864059013890141613956,28.7498277356468605603368,50.3789802676248470447717,163.213406216999914022381
3.95750000000000001776357,0.330930312406842952466235,-0.210130543567083633016424,0.0222576589054133966438798,-0.0327349327368353024136916,0.0246727951731533744206271,0.0089708737081826018383568,0.00457588294855789095433307,0.00217694910358636395039666,-0.0172510153732454291075626,0.999838087689722376794066,0.0868616774413812353650144,0.0518863055372375328588852,9.6565643942627410467594,0.0327999747403493052688717,-0.0163091924751424983963677,0.000473545792112361183835711,-6.56469103797472364192345,1.92252925948840358572056,1.20227191547677403349326,1092.11286841423702753673,1110.35264448522184466128,1108.61964616079694678774,1108.66352444941207977536,21.0781365976349590596328,-924.195048896009780037275,3.15876750669310624175523,-28.3758284656875403584309,163.212874677718446037034
3.95999999999999996447286,0.410708466503868940833399,-0.161325207413606952489005,-0.223428045397945057581879,-0.0312437767044054688636567,0.0240253933484024760625086,0.00750250702964287610047256,0.00448336997376437562667917,0.0022535973069151256711895,-0.0172174443337142733800871,0.999838891889344605345968,0.0812621219153734086759755,0.0502181375277686373181929,9.66334324779533027083289,0.0332835440891980707811548,-0.0163725603701215804974822,0.000109944252322007881639623,-6.56460426327379931166206,1.92248020235051053639097,1.20226389830270119496447,1092.33912523552385209769,1107.95029950716366329289,1108.594388668953342858,1108.46963947809422279533,145.50638007181387933997,-822.098814076224925884162,-17.2102144825661547145046,-120.066561435853884631797,163.212263444777278209585
3.96249999999999991118216,0.423849385126878530627437,-0.110161050568768445478973,-0.333542033416628080910726,-0.0299442819806176874219972,0.0237265555114264253822043,0.00458210347804567305618484,0.00438417074885572195797057,0.00233702599191181348975421,-0.0171791668011583888164839,0.999839781547583461573936,0.0749663535487352372665981,0.0484181140300893528283233,9.6702233142051685632623,0.0337353963482239088689241,-0.0164243835420917715095523,-0.000221374290491144036507887,-6.5645151928410774289091,1.92242864591866791101893,1.20225504196221377739562,1092.8404003145960814436,1106.24215041484080757073,1108.53359508838411784382,1108.06319164223282314197,253.035866219425969347867,-622.393164283724900087691,-19.0858354865655037713168,-212.45540256280420976509,163.211773629292878240449
3.96500000000000030198066,0.37354858430595433427257,-0.0509588137758249098974161,-0.297959696868890067111835,-0.0285592090638935210133997,0.0238236404822217417986963,0.00115618677201266627056764,0.00428235336255578403347188,0.00241929536757007996802815,-0.0171439597183522460244198,0.999840625146908301701387,0.0682436373748841196285042,0.046549983638227925009101,9.6770938238239203599278,0.0341530667215580036044642,-0.0164629975071213588422303,-0.000522718784780490733354874,-6.56442418045138431637042,1.92237604223107716450158,1.20224796463058658524403,1093.60430456662106735166,1104.8383336857448284718,1108.49895949152050889097,1107.40736246528012998169,371.75560483626435370752,-559.465266948844600847224,16.5187837991186583508352,-335.117291880647030666296,163.211300484953198974836
3.96750000000000024868996,0.238332151418905957562799,0.0295333940581203602260274,-0.083768869568477316578381,-0.0269834932794767515251699,0.0243730333331891903247968,-0.00237607264059985822182708,0.00418615126266092592993706,0.00249568432721835155654877,-0.0171170819422777273355329,0.999841309021973101422986,0.0613096447636733987707203,0.0447570821360044265868616,9.68384920635541135425228,0.034535130092858537520506,-0.0164881078077852294416772,-0.000797020775188871490393727,-6.56433361135324489055165,1.92232392644366179013105,1.20224504010040100787648,1094.69917833877752855187,1103.44482408009639584634,1108.61618900737971671333,1106.38760518282947487023,410.716689497948777898273,-473.016184235403727598168,91.5670520982095155204661,-399.414303640205048395728,163.210747207888971388456
3.97000000000000019539925,0.069220853743829094395501,0.110037878743071082521254,0.203641432022186208428138,-0.0258337156596169098543569,0.0251639854836781286240299,-0.00409965238425349931539188,0.0040971496039373719172394,0.00256517307478328028189085,-0.0170996842869308163237463,0.999841808904772477717415,0.0543170427360043228670605,0.0430546124408842309505552,9.69039213016782241538749,0.0348811127681185328963664,-0.0165009275559984437686811,-0.00104761379900794528337304,-6.56424390063302709563686,1.92227317752136439565902,1.20224562697838610603185,1095.65788801411076747172,1102.47325276456786014023,1108.95679475201154673414,1105.41029094707914737228,370.703873850751449481322,-359.551924224532228890894,209.227489821209843512406,-397.727839808666715271102,163.210294355246531949888
3.97250000000000014210855,-0.140248321820546029137233,0.22050059959371684503715,0.527816793538865791646231,-0.0251034503004423578675919,0.0259020651713043753572308,-0.00346597100770230578947739,0.00401584152323712206128503,0.00262974467338109550718084,-0.0170920966218429566663151,0.999842114655095759445658,0.0473632512120640281061412,0.0414399246029712453598393,9.69663373317395205219782,0.0351913945592673416129514,-0.0165038163054724885958624,-0.00127744100244525193681155,-6.56415395613724950152346,1.92222426446117800047375,1.20224704882826749496871,1096.5526977080312462931,1101.64706445897377307119,1109.66232645648574361985,1104.39896598378618364222,333.799032031818398991163,-311.000917280950773147197,350.395569153996063960221,-394.300369988613283567247,163.209844957874679494125
3.97500000000000008881784,-0.359629071786914444874839,0.374154246116749578110472,0.811178625263838770642622,-0.0250537715027455420990776,0.0262751196509300975756585,-0.000262244899418807083258526,0.00394044659976373716492315,0.00269163059876062525990759,-0.0170925092616017772206849,0.999842263635776551389256,0.040540688569057792278727,0.0398718118018070236119321,9.70249409507620796944138,0.0354669846948762329530425,-0.0165001293723061673301977,-0.00148886497224638919903428,-6.56406298867958781784182,1.92217698873969755624103,1.20224708059689477934739,1097.32688317426982393954,1100.9182481781631395279,1110.7087725977814898215,1103.43878909713612301857,268.993723819409126463142,-270.367669403827960650233,492.467913656275015910069,-352.864865398040137733915,163.20939430447910467592
3.97750000000000003552714,-0.551585977101291868862631,0.602076003097930856355902,0.969826986287428471911198,-0.0261905214417364508305841,0.0262461228765700910203762,0.00522519348656152234772199,0.00387589696267370007257136,0.00274579267339010706788782,-0.0170989935453154245914575,0.999842286288969206431432,0.0340763304412465967141443,0.0384489834076333567014494,9.70790089140913714516046,0.0357095202560421404180957,-0.016493839607878986452949,-0.00168382714591380354580974,-6.56397061258917879911223,1.92213141059667691479262,1.20224468211073598489236,1097.89766632712826321949,1100.29522611195466197387,1112.12466602476706611924,1102.63464165679602047021,194.559981025490344563877,-251.537753111284388296554,673.551334299614381961874,-295.426602153617693602428,163.20893674813248708233
3.97999999999999998223643,-0.694494734296716154098306,0.974089441446374770805505,0.969242499489275655122356,-0.0289835505930761024029341,0.0263913751181437984671962,0.0118219672595265227338368,0.00383208403414983479404188,0.00278646736550137085960954,-0.0171087224446983612868856,0.999842209748159294058212,0.028202444725597755614821,0.0373747274135655740967543,9.71279132283488877419586,0.0359213008644028650162561,-0.016489326591839114505289,-0.00186363411741152264211596,-6.56387803392116442324777,1.92208789011652547706888,1.20224068927085903091267,1098.29968307939725491451,1099.66055941260674444493,1114.0765292692794901086,1101.96165608636806609866,96.1106166342253800394246,-216.996584186022204221445,719.437670051381132907409,-184.56515698040158213189,163.208372395370133745018
3.98249999999999992894573,-0.70608119264574698004111,1.3545665850312496036878,0.821348743118439528210217,-0.0320441979315300787267695,0.0275166786394875351184908,0.0158883889055190484496105,0.00380911924562712164016309,0.00281106562359888277960462,-0.0171205241368800921419879,0.999842058624827112467415,0.0230826935308912142841287,0.0366698757453714704879211,9.71711448047159187524358,0.0361054021199753855109194,-0.0164908390035359911363066,-0.00202941778024318727341457,-6.56378567211874930364957,1.92204677955886293894139,1.20223418323510444771784,1098.37821941029937988787,1099.21024319102457411645,1115.72185437502389504516,1101.71181587189403217053,-23.7033284345675880899762,-171.817272084539609977583,612.264799275921518528776,-24.7513615845951626681654,163.207884132031978197119
3.98499999999999987565502,-0.583301315409107123954868,1.7663073665389368294143,0.576913177720393743896921,-0.034871026218319722822514,0.0306585258732229096190203,0.0178544029743776949681333,0.00380247323194861375217357,0.00282323909925249983896012,-0.0171363022360778473329734,0.9998418046014709847924,0.0187480226958856022179134,0.0362707452182700965104267,9.72083116401433500186613,0.0362656632856672017650723,-0.0165020501537345223863618,-0.00218200069767877837673131,-6.56369358513885003958421,1.92200815942385205836729,1.20222459980071594287665,1098.18116643722441949649,1098.80147305218406472704,1117.13785326565903233131,1101.83789927844509293209,-146.753076811627664710613,-183.761525576607141374552,523.907260462475392159831,145.070842337590164561334,163.207371358453713128256
