t,ang acc x,ang acc y,ang acc z,ang vel x,ang vel y,ang vel z,quat x,quat y,quat z,quat w,acc x,acc y,acc z,vel x,vel y,vel z,pos x,pos y,pos z,mot 1,mot 2,mot 3,mot 4,dmot 1,dmot 2,dmot 3,dmot 4,vbat
2.27249999999999996447286,-0.197769279016450083563683,0.691322577297432072640504,0.220192397942437501079382,0.000252744943803751790506462,-0.0141083713797813779800006,0.000554684131990206257672993,0.00130615897336167812239904,-0.00482201190006846785313099,-0.0702341846442911671433151,-0.997517805454678607723906,0.0594497692739291150321179,-0.0304726882875488921942342,9.75651648052017961276761,0.013350904582848913473847,0.0109023890600428944447353,0.00984093181597772356794529,-0.776256824896568886629211,3.37454626052895223509154,1.24079619256783457714732,1113.26005943853033386404,1090.78887078739990101894,1091.3423217724853202526,1122.84096610553751816042,-38.7191628202807862635382,154.81266824067790821573,191.507370536514372361125,-452.994669930522491085867,164.120531627199937929618
2.27499999999999991118216,-0.144179751560083446726424,0.796560398038480110827209,0.243124654389633154671913,2.12482871169786269056196e-05,-0.0122663678570742104567692,0.00149504941283665811896375,0.00128825583773257957252711,-0.00481847580380240659431168,-0.0702454609035087773616368,-0.997517044758855941921638,0.0599193004056391004263915,-0.0305613666547701473552578,9.75410069755253594792066,0.01356181326918213733701,0.0109996284722864001021092,0.0096930732774300528559186,-0.776228412780586407571093,3.37457896539466073448921,1.2408225927717513314974,1113.04664588412765624525,1091.18101195462213581777,1091.89426093672000206425,1121.43454236114803279634,-115.675224102281134719306,124.928670344436724803927,199.567717011181855468749,-551.3465026147631533604,164.119178346421620062756
2.27749999999999985789145,-0.0896667228954427936171712,0.850612632782629773942062,0.22684303213603196347492,-0.000368064717123831486745439,-0.0100461028982327341824154,0.00250873333472088335879824,0.00127389002483888459996142,-0.00482513773986812874450258,-0.0702560844523594102417619,-0.997516280968821611452313,0.0600641326800068417468559,-0.0307703352015296638377606,9.75187066961049531244043,0.0137751209141407284647363,0.0110973556077362776883799,0.00953652749229592922031173,-0.776200745033479133638821,3.37461268000460234972593,1.240848777760996224373,1112.68168331801894055388,1091.41351413912207135581,1092.34016035754120821366,1120.08423359246376094234,-185.138072906362367575639,64.3598735166917492733774,147.082142297803414976443,-540.544305524381229588471,164.118045435592222247578
2.28000000000000024868996,-0.0195757508856925534213023,0.861190622170808772750661,0.172761995750891073075906,-0.000674449799156150793695563,-0.00757998292403953659313043,0.00353741415356667067426688,0.00126632114385163648852262,-0.00483497071360348106006111,-0.0702632836031179819347159,-0.997515740384035121124384,0.059997322836965391590347,-0.0311809008992264199977562,9.74983046661368568663875,0.0139904572115328324627415,0.0111950642343903779968306,0.00937145105476650495945901,-0.776172804721577791475795,3.37464674743187131866762,1.24087458606122758020263,1112.12095551959578187962,1091.50281132220561630675,1092.62967164820906873501,1118.73182083352594418102,-295.368058160082057383988,-4.4458413785829815623174,54.7094573980265863610839,-554.366432393006903112109,164.116908438305983963801
2.28250000000000019539925,0.0858678591202013397065684,0.820708673572967284393087,0.0734883466525591416695917,-0.000674387468896685401617552,-0.0047874364594645462192557,0.00447738901485094514809404,0.00126224030153728882137909,-0.00484440630529333910586631,-0.0702648519187471232161357,-0.99751559794975142025919,0.0597771338621479741970433,-0.0317402248594034763762295,9.74798119285837927350258,0.0142070443003453027175365,0.0112926337411515722436439,0.00919832206417161429845564,-0.776143689308616768762761,3.37468020978070892823553,1.24090042706072112288496,1111.20484302721843050676,1091.39128493222915494698,1092.61370764453135961958,1117.31240143049853941193,-379.004269462310617200274,-83.3010297744312566692315,-85.8263450856629930285635,-461.160433387941168348334,164.115539709527610057194
2.28500000000000014210855,0.192224631405593981980928,0.745726463521093285713448,-0.0238091709790889116682422,-0.000435134162898586490924452,-0.00293236166091327037433456,0.004850507811776060863862,0.00125822380601745497340216,-0.00484793160002263291002977,-0.0702576696738968081712429,-0.997516102580069285998832,0.0595034882482963628502759,-0.0323940455700322121890267,9.7463209247233315579706,0.0144237777932906541256131,0.0113901608319914564998454,0.00901799442128953764041821,-0.77611262082663168282437,3.37471215028911197819639,1.24092640049285485304154,1110.22593417228426915244,1091.08630617333346890518,1092.20053992278076293587,1116.42601866658628750884,-435.441316166689091460285,-166.364599113379796335721,-254.119117774194791081754,-271.736017231438722774328,164.114395012379759464238
2.28750000000000008881784,0.317358139958649032585924,0.634029892164178265900887,-0.11300324552788859611141,1.46855701043775374332184e-05,-0.00164580329932184827625152,0.00436041307122062449935784,0.00125369442856679931194708,-0.00484310314848597749798342,-0.0702443571484370615776172,-0.997517080255692079049368,0.059216870322900919121345,-0.0331375270051339695931425,9.7448441444115712073426,0.0146394110274929139386968,0.0114875052489735660077308,0.00883197839136361066703085,-0.776079393419836338630091,3.37474328149796098941238,1.24095211738518496069617,1109.02763644638503137685,1090.55946193666227372887,1091.3431120556604128069,1115.9537213443413747882,-567.190566518286914288183,-269.198075765604073694703,-462.152054488397709519631,-101.978952441006541107527,164.113244594541583865066
2.29000000000000003552714,0.48611609793501098231161,0.460754941589464728224357,-0.184134227338630218628879,0.000820680936387155053439446,-0.000372423238860600442669269,0.00273296126370410966122115,0.00124888641245627144381325,-0.00483111829049348052989021,-0.0702296489581294425263991,-0.997518190731813025884378,0.0588898754278838754139258,-0.0339744231289405562712602,9.74354133186670701149978,0.014852675029427489170053,0.0115841970917128604667834,0.00864245809139224836770143,-0.776044220687767349886599,3.37477523658226719049935,1.24097615529922244981265,1107.38998133969289483503,1089.74031579450547724264,1089.88977965033882355783,1115.9161239043812656746,-618.22694934777655362268,-310.436857129577447267366,-577.696233729751384089468,70.7839459892071829472115,164.11185463393471195559
2.29249999999999998223643,0.636816402237133427632898,0.281722546531957884763386,-0.203520558830141418127369,0.00172274253875138311231652,0.000723820668041764612131439,0.00114010835987055319899752,0.00124552419743344439974353,-0.00481812671508740492098966,-0.0702136003596984942243253,-0.997519397008143626770504,0.0584003992177531960905412,-0.0349278631130055250419986,9.74239881252755957063982,0.0150623224879743704968105,0.0116795515499628788785857,0.00845226694378634936521966,-0.776008318305338340437061,3.37480880622298506921197,1.24099726689731637563341,1105.9365016996462145471,1089.00727765101441946172,1088.45463088701171727735,1116.30764107428740317118,-574.45292094163369256421,-268.883315736417273456027,-583.08190942558542246843,227.371277181696626712437,164.110685629207353031234
2.29499999999999992894573,0.78563996160001037249998,0.0638235778325272201660923,-0.187483224002970239041588,0.00295028750128631302857007,0.00166119986669589943251157,0.000119628540035249294050217,0.00124177129199643117817009,-0.0048083634599251487071192,-0.0701951075592663897850798,-0.997520757775323341220997,0.0576719923354736471732274,-0.0359515876621255281442302,9.74139913402474810766307,0.0152674731552537960854732,0.0117727451582333216689724,0.00826430781747212149512816,-0.775972866935995764237077,3.37484354010686304903288,1.2410155165006344635259,1104.5177167349847877631,1088.39589921582341958128,1086.97437010321095840482,1117.0529802902897245076,-541.206964422338046460936,-196.902167329203280132788,-574.011848815019675384974,336.801409508787287450104,164.109501275986815471697
2.29749999999999987565502,0.918088771443386519877095,-0.184198504316299693783776,-0.15750335605362189572709,0.00476641643601151670378568,0.00211679803608850027399346,-0.000133683076787088515532953,0.00123532381950271089379734,-0.00480135650772524520679685,-0.070171919597192752848791,-0.997522436090179320800075,0.0567235434030068583211026,-0.0369938215483057372678921,9.74052184774144613754743,0.0154676345543011840161229,0.0118629152130304144074913,0.00808118967241009365787274,-0.775938093302737885714748,3.3748788654078412108106,1.24103146644713269175497,1103.23046687753458172665,1088.02276681436842409312,1085.58457164293668029131,1117.99164812183130379708,-462.217302731929237324948,-66.9802622373890983453748,-514.331425858756006164185,394.309950096404236319358,164.108300519545906581698
2.30000000000000026645353,1.00792273065927329156466,-0.457672516612498692101241,-0.132293453629225621348553,0.00754925280585135808492092,0.0017289633202695459373438,0.000333103442515541962876124,0.00122585556681933461123379,-0.00479747424379574176345198,-0.070147607187921012794618,-0.997524178110550163722792,0.0555580064109854401821487,-0.0380375411411131222894078,9.73974424376988778817577,0.0156626411305263585349579,0.011949024799034889399163,0.00790512367243598017274575,-0.775903936042325326205571,3.37491464764861381908645,1.24104577984124508915897,1102.20663022132498554129,1088.0609979046364514943,1084.40271297391700500157,1119.0245300407718787028,-374.103641520125393071794,122.411581756833513168203,-465.352216788610746789345,442.939053927845748148684,164.107075522777023479648
2.30250000000000021316282,1.04045764665349538269368,-0.791974014292737948927936,-0.125038713446767590919961,0.0116227878893464149634429,0.000238427812020146367467943,0.0012712280728453631030439,0.00121452584134518746551701,-0.00479707477478489695971176,-0.0701257580581892969728841,-0.997525728153274671150541,0.0541790090675040580947552,-0.039091853169423540492744,9.73904261450795516452672,0.0158523720981611979108372,0.0120301093569741088945557,0.00773765069768431699992473,-0.77587051324823819165033,3.37495045896549328290348,1.24105899128396690578313,1101.3599486699338285689,1088.63482472315263294149,1083.25781055899346938531,1120.20634339147068203602,-246.31281386737626348804,288.050962024778300474281,-381.695335612229371236026,404.254472337660899938783,164.105572176896544078772
2.30500000000000015987212,0.995930495763532430686382,-1.05407857898965562348792,-0.137534822870465506250426,0.0150410412120899391469342,-0.00198410419089755426375055,0.00198565686621540206380221,0.00120088368638371313298907,-0.0047984437778055138990041,-0.0701104125621141299751216,-0.997526812328419998365803,0.0526348412523952036146113,-0.0401348933935665175276597,9.73839381933756520481893,0.0160366315784986335213347,0.0121053307990501637925185,0.00757934560919196025075006,-0.77583712910902802306623,3.37498637819004532190093,1.24107124867511831034506,1100.97506615198813051393,1089.50125271476031230122,1082.49423629585589878843,1121.04580240246014000149,-99.2316651690565123544729,397.672802922633593425417,-282.860818935529664486239,289.928231891469124548166,164.104288052250439022828
2.30750000000000010658141,0.882560496983734066311911,-1.27181575681645719910762,-0.150859156183479253821034,0.0179229432532662519284017,-0.00540085527735289800538299,0.00207982799892346935377585,0.00118287756874765632303381,-0.00480083660276610715844647,-0.0701049845467147103583727,-0.997527198831535288903183,0.0509589809486038214370041,-0.0411101458964877597423992,9.73777679462530443288415,0.0162149554920340624453168,0.0121740078979522808183544,0.00742980921802395555264553,-0.775803005642219267734561,3.37502266306007525642485,1.24108304146029224668268,1100.86379034408855659422,1090.62318873776575856027,1081.84350646431585118989,1121.65598455092799667909,-10.0538631489600778223803,508.05515307416675341301,-278.833751112512402414723,208.532310414607195525605,164.10296758100309943984
2.31000000000000005329071,0.69049395976190408585893,-1.45749438960615407268051,-0.131165636726921275290181,0.0204894944373829879236126,-0.0107051833888687011886454,0.00112335267897832125419399,0.00115961501996931235294874,-0.00479811058438022689648372,-0.0701070159528226488632185,-0.997527091337754079347633,0.0492895800296539732254786,-0.0419890064907024046503281,9.73717460413206481462112,0.0163865632354289018912663,0.0122357385325218386007418,0.00728751079492563624828705,-0.7757672202180003750982,3.37505913322772288509555,1.24109561556541581062163,1100.92479683624333119951,1092.04152848013109178282,1081.10006754029336661915,1122.08846395453315381019,35.227127464668981815521,499.953946650168006726744,-271.881531710420290437469,111.480240180437803587665,164.10133708762396054226
2.3125,0.507310309382681179357633,-1.54408926920716904618303,-0.0583935050066329078277683,0.0218945026786738390633946,-0.0154488932177787533644997,-0.000475484917251419326317263,0.00113229038273376372489287,-0.00478273637565646090458182,-0.0701159423792021424537424,-0.997526564222665501624476,0.0477901189080694038802122,-0.0427841647358797733113889,9.73657575632540606136445,0.0165506023872829255427774,0.0122901285665601208568765,0.00715002781769118796878493,-0.775728895359367398576467,3.37509562285848563334412,1.24111031178647013284433,1101.03992598141189773742,1093.12295847101654544531,1080.48409880576377872785,1122.21338575183017383097,40.5925576055332868463665,379.831772119413358268503,-237.290163725861532384442,12.2896307461817624329115,164.099937570687757215637
2.31499999999999994670929,0.329919333812184911725041,-1.5733594490254907416471,0.0893558967209867327508022,0.0226070836171258296443121,-0.0195009018596217047203378,-0.00232411438950704332673247,0.00110164617770039992977749,-0.00475509537569313370242163,-0.0701318833980202893663147,-0.997525604301120583095042,0.046471742010045259674289,-0.0434880999527224240686074,9.73597478284140116500112,0.0167062326449856322907461,0.0123368302020174479272097,0.00701453590552048728001822,-0.775688515505359776902594,3.37513244396857459150851,1.24112677749915345515319,1101.12775962427099329943,1093.94068734072811821534,1079.91361672166408425255,1122.14991210826406131673,22.017344247297401693686,273.008071616874417486542,-212.596884572762945708746,-53.2125982528680196992354,164.098493176742664445555
2.31749999999999989341859,0.155039616003333158289479,-1.57331619094919772372521,0.338300109473219312583581,0.0227998980632835857029761,-0.0232165255747827162235986,-0.00352129354952875278997326,0.00107033917655327917052566,-0.0047147814246021619438709,-0.0701513938727579000609325,-0.997524450701346210301779,0.0453583471632133042317214,-0.0441314353472179038417877,9.73537356286298560803516,0.0168529153735992413831735,0.0123756110829646107790447,0.00687794463101851390185448,-0.775647214866533651900227,3.37517013740647886521629,1.24114455945064872111061,1101.15001270264838240109,1094.4879988291008885426,1079.42111438289998659457,1121.94732276056583941681,-5.03800039505232977177229,117.284914994527525777812,-121.676428288904261876269,-82.472216607859024861682,164.096705700389861704025
2.31999999999999984012788,0.0590695606915910276235593,-1.56429795794761727911748,0.570476713840817883927059,0.0224694454471529025951781,-0.0257442701899091193340485,-0.0026554132633223211101825,0.00104336552293436777422153,-0.00465909108054729948628081,-0.070170892828007341845975,-0.997523361078453962846879,0.0445147683792647130829323,-0.0447940709689810812044186,9.73478179642134122673269,0.0169906880126487851156991,0.012406275856855841083215,0.00673716506586555328311983,-0.775606071164488097835488,3.37520863531196413376279,1.24116398572838648739491,1101.10256962229573218792,1094.52711191570074333868,1079.3052345802195759461,1121.73755102522477500315,-25.1560809977019133043541,-74.7085421364267432409179,43.8333377918722817412345,-82.1663719164861561239377,164.095169885354238203945
2.32250000000000023092639,0.0279940469363351082665581,-1.55444087082028481461293,0.772392977793368018524234,0.0218785627733330406696766,-0.0283795085975144557866034,5.70598461922735156887088e-06,0.0010204580515270082665541,-0.0045900078741524658054729,-0.0701850600004470942527846,-0.997522697826477733329398,0.0439208275036932216384145,-0.0454487101901230525213826,9.73421640022339396125517,0.0171200568497468785800208,0.0124289306426864122612219,0.0065894076450744350909039,-0.775566061060654621250876,3.37524813391104938631315,1.24118432270950562745782,1101.02423229765986434359,1094.11445611841872960213,1079.64028107185936278256,1121.53649090098338092503,-28.5762857309672462235994,-235.300870338990108621147,220.472423213853858214861,-76.9949113293426137261122,164.09358562114505275531
2.32500000000000017763568,0.0527146946880127087453616,-1.53578533055365440418427,0.911852663666015472720972,0.0212770062996964111345921,-0.0315783648697858035370167,0.00346948864889965813765316,0.000999951351752167766004376,-0.00451172009077887344735691,-0.0701911501837480383825252,-0.997522634892513471172037,0.0435137857266818459112123,-0.0460402394145860704988138,9.73370111420912387245608,0.0172420193316002758054939,0.0124439170310599363927784,0.00643243882708619679755557,-0.775527059692533882184762,3.37528868594875230968455,1.24120399021514993265214,1100.95968819364088631119,1093.35060756400571335689,1080.40759669628891970206,1121.35257646857803592866,-13.1183253022757586592206,-375.110133943106859533145,405.971789582562905707164,-73.5994602780480988712952,164.091961495179901930896
2.32750000000000012434498,0.136747348929193102140545,-1.48504413829971460003776,0.949728630534862006129515,0.0209468161180603844317982,-0.0356476267157456727652232,0.00743012599856346205029478,0.000981146620859623709576258,-0.00443020140978273718745939,-0.0701912144581239572094233,-0.997523001259997710299388,0.0431928289618676505834394,-0.046533072127336524981267,9.73326555552485928046735,0.0173579436438874475101546,0.0124518572035293047239879,0.00626470919926180695724849,-0.775489114058191875145098,3.37532943688279374327976,1.24122233772002665830314,1100.95864067114848694473,1092.23890544870323537907,1081.6701400197721341101,1121.16849359959314824664,23.8718590672765991200777,-540.229011290614494100737,637.134782109492221024993,-91.2304014176717288364671,164.09029047139284784862
2.33000000000000007105427,0.283974054206504067376926,-1.36045428038447369090136,0.875344797317892941990181,0.021222436871264765967382,-0.040988671629116318895214,0.0120072840719928995018018,0.000961648251899083358028297,-0.00434915531358065314548877,-0.0701884388035670520045173,-0.997523560086904015342668,0.0429011232474039785889097,-0.046865694358602973113026,9.73294421395106645888973,0.017469342984791483286422,0.0124539110190063934818783,0.00608507417546499430882623,-0.775451889925031556671797,3.37536972460150241914789,1.24123954777263545423693,1101.0790474889772667666,1090.64946250755269829824,1083.59327060683631316351,1120.89642446148968701891,68.7950370883314548109411,-600.336515654238723982417,734.398825950090440528584,-115.822489912491363384106,164.088233549497260810313
2.33250000000000001776357,0.423395405045661199494589,-1.19494931373306534361234,0.735482176742976556660381,0.0221676701170614269542636,-0.0450078730142208227604783,0.0147499503239683932981352,0.000936718446020709310725905,-0.00427232971875176649467765,-0.0701875490903430265809959,-0.997523969330014748102542,0.0425816943854029003602157,-0.0469356937493266013206039,9.73277472127293741266385,0.0175776793048516531692282,0.0124517715100215791562688,0.00589273416944453322374731,-0.775414978105211871728386,3.37540940391158583722131,1.24125593245976828526977,1101.30261585659013690019,1089.23722287043210599222,1085.34213414952250786882,1120.58938115003070379316,116.227731046049228780248,-554.150529014225867285859,675.923478718292130906775,-144.839370035291182148285,164.086478947442259368472
2.33499999999999996447286,0.55295219408015028328407,-0.972068042273224297566969,0.561149068608299828042618,0.0238665202903468424977529,-0.0479067190068203502262278,0.0154893331550210247571364,0.000903442068903714074964983,-0.00419536771016977300813311,-0.0701873198884811616560242,-0.997524336599798888691737,0.0423300363698758258523824,-0.0466922284437210621810266,9.73279665047309983094692,0.0176841337613910486170621,0.0124477989339438956800654,0.00568700214905293235240213,-0.775377877603411924667398,3.37544782568511392284449,1.24127267021293841153806,1101.66018614420750054705,1087.87870986248162807897,1086.9728880004277016269,1120.172227611313246598,183.902204673090011510794,-558.310575616463324877259,632.191951425479487625125,-208.606805656113351687964,164.084686260423183057355
2.33749999999999991118216,0.672272518647617056686272,-0.659520482765260873669888,0.365707180987410729322562,0.0264350340950501895564972,-0.0500752439490782449982298,0.0145534894834899262289207,0.000862599225221985944217495,-0.00410999272617438779486854,-0.0701865311805258129673746,-0.997524782231246298636052,0.0423107133816910188639504,-0.0461670399786614574222376,9.73304926285867111346306,0.017789620890593705465621,0.0124446537164777954603823,0.00546753865929647860782969,-0.775340082037522582147915,3.37548444773022238152294,1.2412911499137317949959,1102.22212687995556734677,1086.44566999234984905343,1088.50309390664983766328,1119.54634712175015920366,220.610462193376548611923,-479.397249129043530047056,458.936306584256044516223,-246.134673513557373780714,164.082496581375750110965
2.33999999999999985789145,0.732037545632316821730967,-0.378340270438099535166288,0.234397835037496893306752,0.028646113478781362604586,-0.0510182036883762290990774,0.0135484950563102401338567,0.000813444081481128023966565,-0.00401843078442623742596584,-0.0701869109215655789801858,-0.997525174278543924621943,0.0424849708453444163680501,-0.0453533366763639658736373,9.73356839085172254044664,0.0178946939419418020456032,0.0124450201039402758712571,0.00523491750562015203951383,-0.775301521268604632020072,3.37551870251309926729277,1.24131100587923848266314,1102.7632384551743598422,1085.48172361683646158781,1089.26756953334893296415,1118.94155424374548601918,217.283316078632083190314,-330.391232491979735641507,181.912467070957518444629,-251.353354714939399627838,164.080644086795899738718
2.34250000000000024868996,0.749526887200721358972544,-0.0917470489569873898227925,0.129362870698570109340153,0.0307416623170918626439807,-0.0513540616166842309175955,0.013522743418965475423188,0.000754542652446010169223212,-0.00393104270411227373765994,-0.0701914204508852501707139,-0.997525260981745987010072,0.0426560810131909884379553,-0.0442248655522659642191918,9.73438450311983949347905,0.0179995637723122867135395,0.0124513312531060339055644,0.00499086378368399953553425,-0.775262640296884408819267,3.37555131469609337457882,1.24133036847384325973565,1103.30854346034880109073,1084.79371382988983896212,1089.4126562420046866464,1118.28958034817537736672,220.347617927003426530064,-239.980074191800838434574,-75.2394701723864471887282,-288.398647888997061272676,164.078767612002764053614
2.34500000000000019539925,0.729593178872428138603823,0.245150911878368793495042,0.00343223633156609919669933,0.0331243387079779502690791,-0.0512391460501041631769858,0.0146354400133608588546741,0.000686443903005575059746157,-0.00385355838705287888010242,-0.0702017415298638453036162,-0.997524898803952786430216,0.0427141078939345386622506,-0.0428044609163129030626749,9.73552161848389729925657,0.0181041732065345961633085,0.0124655140709840975277167,0.00473804216646892591841,-0.775223692740317216198775,3.37558264809039698661763,1.24134794162820361052013,1103.86497654480945129762,1084.28182324587737639376,1088.89137218248697536183,1117.49956100430040351057,174.051611767803564134738,-141.287937316022464528942,-290.481701036703100271552,-285.842527876235806161276,164.076493282735384582338
2.34750000000000014210855,0.688526662974999426047873,0.511109476372716975411947,-0.12123904698240849098223,0.0349058937056255166875296,-0.0506991925899348827577739,0.0160087437311908775683378,0.000611508192948790490518773,-0.00378429533251748839023376,-0.0702167245583165816613658,-0.997524171508356038984289,0.0426907203203974461303005,-0.0411634975052082296986811,9.7369956746418253601405,0.018208147151201080349292,0.0124888229315314631950873,0.00447987913838809002908814,-0.775184070884922249433657,3.37561371157652434504826,1.2413628246690733281099,1104.17880151918780029519,1084.08727414330974170298,1087.9602477368212021247,1116.86036770879422874714,85.745966619198966895965,-41.1891668851703514064866,-445.206604608584200377663,-248.061913057841422869387,164.074582686850249046984
2.35000000000000008881784,0.636016097635708321789139,0.747509185669262277151859,-0.270938732078375155154504,0.0361737486929868470864058,-0.0495232397875320015656619,0.0168852358829700878450897,0.000531600725778888071743067,-0.0037226190592279900619388,-0.0702357472179386127519862,-0.997523123390033572555069,0.0425986139526393775556201,-0.0393643172273193953092374,9.73881238451451736182207,0.0183108027965328094832653,0.0125216264106384270182737,0.00422054427007734385413062,-0.775143257637163074491582,3.37564569793065816227795,1.24137445213560404511099,1104.2937063779054369661,1084.0758774114515290421,1086.66533915944410182419,1116.25925143901122282841,9.69246189120006107486915,20.2897941138876163336136,-611.538598270785200838873,-251.741044389478616949418,164.072660002803843326546
2.35250000000000003552714,0.573513124937366614020107,0.973422681436831638279727,-0.454859734556883776868119,0.0372103421064130454598562,-0.0470788399226148429610461,0.0166100984199021792231399,0.000449831912613755761920498,-0.00366425046982862172642581,-0.0702561126493744109167139,-0.997521959100920563301429,0.0425206642677244395223113,-0.0374991357606827141468742,9.7409665383432209040393,0.0184112249511705593219002,0.0125635018851396555034095,0.00396449533934694307857338,-0.775101491210450799229648,3.37567903341233188641013,1.24138376174309605914914,1104.22726382864379957027,1084.18872311387917761749,1084.90255474546734149044,1115.60166248684686252091,-43.8256913271298103040863,49.7757465651385828664388,-648.683618802592945939978,-225.233202898703240180112,164.070342821144663503219
2.35499999999999998223643,0.525550792956594903237999,1.09365582775640124424399,-0.579627737329221681683578,0.0381740332998906570227682,-0.0440444119131940259315172,0.0150930565209113649177697,0.000371589316692089513538555,-0.0036061023242728016714731,-0.0702777242592110690244667,-0.997520695249688227335128,0.0425149437481727732190961,-0.0357022168607704637466327,9.74344114818767792485232,0.0185084835623518795255649,0.012613195919943595915691,0.00371635654040818790358469,-0.775058792427744558395375,3.37571430118029702782678,1.24139137710675129255833,1104.07457792126979256864,1084.32475614427721666289,1083.42192106543120644346,1115.13308542451773064386,-54.6587526645919581369526,50.8951799690305008994073,-557.510892072889987503004,-160.941274216205584934869,164.068406199556619640134
2.35749999999999992894573,0.478374763758856347273252,1.12422375415566588863214,-0.633773048086663459699253,0.0393389858261233849034966,-0.0402021878470520885318074,0.0124815727433835697846032,0.000297125165191430926775462,-0.00355295508581434564890356,-0.0703027097794009792064429,-0.99751916220561864800942,0.0424951678463829085607983,-0.0339954802108638209912073,9.74620684400500536526124,0.018601732267963445865977,0.0126689112545111167568157,0.00348071840133459776620017,-0.775015384047743061124436,3.37575193774439119565045,1.24139677771922407600869,1103.95397006532084560604,1084.44319901372432468634,1082.11500028510295123851,1114.79695611576585179137,-21.5149734832725734179348,39.2946793192558487817223,-470.622680997858878981788,-103.873577806145874546928,164.066466643022863536316
2.35999999999999987565502,0.426659006331056689376169,1.07681390689180500608302,-0.607113772134511120448508,0.0402609977687416464853243,-0.0363387286064937933827146,0.00941379846122211705328198,0.000222604122061427424535129,-0.00350784124720784603115864,-0.0703296318347623461431084,-0.997517448705606102343779,0.0424158629541253467953865,-0.0323209747669160538108279,9.74922312676320323987511,0.018690272827823650736434,0.0127287857334959630256632,0.00326161078510261558810468,-0.774971713790903904417462,3.37579196160513772539957,1.24139985140003394903374,1103.96700305385343199305,1084.52122954087349171459,1081.06880766044196207076,1114.61371753548701235559,56.1600336419322303527224,20.9350549814175295182395,-337.681144524299213571794,-28.7545573724381640090542,164.064526778271726925595
2.36250000000000026645353,0.361584913697638676843837,0.949047401468129492307924,-0.476827444330506833303218,0.0409145014011243063345447,-0.0332821844589288387550319,0.00636201175420927217407652,0.000146717074083549392504722,-0.00347061840289219049673908,-0.0703557719979201467985774,-0.997515745782479701375678,0.042290921270979622836883,-0.0306707105553086223359571,9.75243973604624869722102,0.0187736978566926115963298,0.0127910755941946386454733,0.00306239063518264032978666,-0.7749282612674476267145,3.37583316920248588388631,1.24140167043665039514622,1104.23477023353052572929,1084.54787428863141940383,1080.4265945624813411996,1114.65318332890365127241,181.336824746619214465682,5.29647278572120416839653,-183.887214867387541517019,69.6899720992358453486304,164.062589213891186545879
2.36500000000000021316282,0.253629728954475108793076,0.738005016631653409930891,-0.225438384650854084512162,0.0422148992370760534065255,-0.0308832292000300670520296,0.00370566327919403474405735,6.97934795662689532336903e-05,-0.0034397440649999123582492,-0.0703793830533652325920357,-0.997514182754295708477343,0.0421600935019892375521522,-0.0290666022266747037239298,9.75579814959239755012277,0.0188519430185727955573416,0.0128543174743544590110655,0.00288559626368492831358092,-0.774885153260719272694246,3.37587427043710830432133,1.24140309136001936174409,1104.87368717758658931416,1084.54771190480209952511,1080.14937158610496226174,1114.9621673959832151013,272.736467358987624720612,1.57621399785060645193369,-28.840095810347225580017,148.424437268480204465959,164.060270411201940987667
2.36750000000000015987212,0.12877720172302714596313,0.544090143743016674271473,0.0231217765082649684416083,0.0437636135558506292331238,-0.0298180004226212026774423,0.00290889823704339406731934,-6.01709338140316225048559e-06,-0.00341430337908099493585135,-0.0704013365968242238457364,-0.997512704023058249802602,0.0420489685582692979126662,-0.0275610780247967264433573,9.75923346239468436635889,0.0189252672249894532408021,0.0129173401920832514599979,0.00273295245766209211543685,-0.774841932561023960523983,3.37591480553393807895191,1.24140365310265887721641,1105.59845257032543486275,1084.55575535862067226844,1080.2823940834296081448,1115.39530551524603652069,293.089586901357392889622,14.9241585189887242535178,105.635803868656211079724,189.021469499406919112516,164.058346066058220458217
2.37000000000000010658141,-0.0323477930783714826001862,0.362948873863633392211625,0.248659204164433933481604,0.044895806765725999876171,-0.0294242399665739992609126,0.00377507095158428115228011,-7.82562448942709091475115e-05,-0.00339288967924292325303859,-0.070423495767100635633895,-0.997511187686599853918779,0.0419923584206692984688303,-0.0262092477621306413348989,9.76267671910478362917729,0.0189941682959244052819603,0.0129792745661876582352612,0.00260524272533180136640629,-0.774798635727663720373926,3.37595469548297222317501,1.24140307192388732460131,1106.33913511209334501473,1084.62233269739704155654,1080.67755060544823209057,1115.90727474348022951744,273.420813189028592660179,54.14663400333780884921,201.495526318790069808529,212.600611195971367806123,164.056433465496581902698
2.37250000000000005329071,-0.24577493592935839572533,0.184762853598039566982436,0.418963931940616318705395,0.0449977382105725826066944,-0.029389980679059481832871,0.00640427627182185883747412,-0.000146996669035458476376688,-0.00337042568344171622474192,-0.0704454600147262494092004,-0.997509684071290925189146,0.0420996082360923298826272,-0.025018103543527483306752,9.76605748590683475640617,0.0190592874193211032907147,0.0130395778072379120438029,0.00250203270250681656175495,-0.774755035225547561417159,3.37599421232852536789437,1.24140231215054930302699,1106.96555663627054855169,1084.82648852863735555729,1081.28987171502353703545,1116.45830857122587076447,147.111426038466959198558,102.260412467151027726686,225.564152018983151037901,171.324042935797479003668,164.054156133482308632665
2.375,-0.414295923343762362289766,0.0776904593181868691198488,0.436853862924313995907966,0.0439488988100628363842048,-0.0295406320216861882632653,0.00932675809497800038794235,-0.000213296337013332739773047,-0.00334765001061161247483677,-0.0704670507570520909812473,-0.997508207353669185124545,0.0423673796136366589970557,-0.0239636828503526806699586,9.7693056068638544076066,0.0191214152957940655697122,0.0130978293711434112117642,0.00242201526298555305793947,-0.774711275214586048143417,3.37603363779688026014014,1.24140217039216782524136,1107.07469224228566417878,1085.13363475973278582387,1081.80537136554312382941,1116.76389495815919872257,-72.0370375283907264929439,156.679835902744969189371,188.900758162439558418555,76.0956153868408193829964,164.052276396952947834507
2.37749999999999994670929,-0.541084251051652365127609,0.0149483126642193774741285,0.305411670395232426322707,0.0417891712987591215644478,-0.0297353440304565855289987,0.0123475081554257036520195,-0.000275012121618500632227317,-0.00332332442313771703537584,-0.0704859400111585432391337,-0.997506932033284665628514,0.042825179567829545212998,-0.0230836162120089324889527,9.77235435494686477397863,0.0191814596070352533230263,0.0131537278295291854002258,0.00236293517147883940995867,-0.774668254488511620614588,3.37607260195690894732934,1.241404450609618903556,1106.60537144862860259309,1085.60988770815106363443,1082.23437550583571464813,1116.83878664816006676119,-342.322971777510247193277,251.97850140326036694205,160.281984642100496785133,-22.4843412988325574985993,164.050419358547742376686
2.37999999999999989341859,-0.621396723596394084943029,-0.0156083944371812645413033,-0.00633172346416543962988044,0.0385271605718163698273138,-0.0299324646780359110431746,0.0150923607332831416494301,-0.000326249647042404816894845,-0.00329348518466379301325442,-0.070499291369782751681683,-0.997506077360783671714728,0.0435490271642564319432012,-0.0224892250507736854436835,9.77514268365955629747077,0.0192404137535365019062716,0.0132069625271399957583407,0.00232183943790931343262307,-0.774625987738120858061563,3.37611095786819781494614,1.24140943606412768041025,1105.3630773833981493226,1086.39352726674906080007,1082.60678128875360926031,1116.65147325166503833316,-546.198565156430731803994,323.34398828016452398515,114.598714425440164177417,-109.525350602191394955298,164.048221693600680737291
2.38249999999999984012788,-0.627760117714519227938297,-0.0116845885310264598760943,-0.352304591401562339214593,0.0359666406440776811881399,-0.0300316894756723733184156,0.0157705916829258933897773,-0.000366419153982290449547699,-0.00326459557105709822014128,-0.0705073334233129317416555,-0.997505601699341548638245,0.0444173853032553273001426,-0.0221710724979294511449712,9.77761565309770297460545,0.0192992502075353053458961,0.0132570410206707123279557,0.00229567142778757359022901,-0.774584831302174259270998,3.3761490822088888741348,1.24141536855528378247016,1103.87437862284650691436,1087.22660764955185186409,1082.80736907796290324768,1116.29115989514912143932,-638.729590004097758537682,368.719522314152186481806,65.4711721171180585088223,-177.034276129813292754989,164.046419097387598640125
2.38500000000000023092639,-0.590495071556793815759079,0.0115658768084520007651816,-0.712756474174199849969114,0.0340975363297351397040558,-0.0300339329656290690562237,0.0142642392918646294247553,-0.000401223054511666912813617,-0.00323969736351481865654911,-0.0705118093280143048984243,-0.997505363290438262779958,0.0453823299490235809727778,-0.0219989674952892101666979,9.77972688405400703004489,0.0193587756272499827980837,0.0133032900693499205047043,0.00228101802442074331339628,-0.774544347783825304354366,3.37618764662354342576123,1.24142120651563980793242,1102.16942943337744509336,1088.23712487831994621956,1082.93413714933922165073,1115.76630187101591218379,-668.498479770778772035555,429.907454441234278874617,45.1922999139666430323814,-230.171141024432387212073,164.044649917616027323675
2.38750000000000017763568,-0.541248870970336359853547,0.042070426035157704180989,-1.02292241390775062725993,0.0329800917035884266770296,-0.0299328848914356716870433,0.011026643849155323348632,-0.000435027580336595938708538,-0.00321692748321943675429702,-0.0705147475859132510933591,-0.997505219117236885395528,0.0464879983787820985630113,-0.0218731838358669460065098,9.78144004271717193432778,0.0194194586870977160819596,0.0133448873018628191844392,0.00227436711439261670178458,-0.774503616586796117537972,3.37622738059475135941057,1.24142655215296260351465,1100.53188622399238738581,1089.3761449217581684934,1083.03333057753275170398,1115.14030419002688176988,-576.737661109712917095749,478.908340648114290161175,37.9000959500907725896468,-266.355014514380172840902,164.042910931987734102222
2.39000000000000012434498,-0.508168513186502801559641,0.0710606704158869839638157,-1.20774237004078210944158,0.0325605854760135648984232,-0.0296776421448586257001434,0.00644645218178055423585704,-0.000469169113503928173532914,-0.00319239685908655332000072,-0.0705196367542335333933323,-0.997504933665860238356515,0.0478121703085253244025488,-0.0217541057096424517158795,9.78272935993751957539644,0.0194814103051108127029334,0.0133809151970638740697384,0.00227224195962237194776345,-0.774462069104803529917547,3.37626852095381257967688,1.24143193713871080596789,1099.28574112782894189877,1090.63166658156046651129,1083.12363762908967146359,1114.4345267984440397413,-390.480770881239664049644,564.709399421338503088919,38.0499125278228262914126,-316.214818873829642598139,164.041211180184632212331
2.39250000000000007105427,-0.515623730895907517179921,0.0925505129506341284173487,-1.23215262384668067241478,0.0321339990636728412010115,-0.0291722040750029033839841,0.000583957553465902848288671,-0.000503925208586848325485741,-0.00316428469050525178196676,-0.0705293479766528758068134,-0.99750431164148167795247,0.0493889312796543453187859,-0.0216187901806963629625091,9.78357955764698061784657,0.0195443906311887558024942,0.0134106133017835912196736,0.00227126823603498746023677,-0.774419217424371919555881,3.37631095352084464877862,1.24143743253105842683226,1098.57948236958623056125,1092.19969191886480075482,1083.22358014017186178535,1113.55923009565776737873,-97.1615960424535671791091,570.969723540623249391501,32.2027476353930595109887,-314.258738874566347476502,164.039220262790536253306
2.39500000000000001776357,-0.570031214164437582958556,0.0933762144688181222607071,-1.07671342764577349093713,0.0312392348132299324525718,-0.0286116985956086956888189,-0.00413209339354015086492877,-0.000535667338712249307963731,-0.00312994704544652382546821,-0.0705430219173728834114456,-0.99750342697514293721639,0.0512608714050288433172753,-0.0215212419738653702727671,9.78398614062074045705231,0.0196079004656764428748961,0.0134336446839493396654408,0.00226815886606688893109562,-0.774374772667324129393762,3.37635376905086559418123,1.24144311232907988973295,1098.7999331476166844368,1093.48651519926352193579,1083.28465136726663331501,1112.86323310407124154153,261.148785710707784346596,490.700181108524247974856,14.931723347490651221392,-255.993486411540288827382,164.037604165986067528138
2.39749999999999996447286,-0.674677050535365308014946,0.074030345041540920880685,-0.757830951032544053447282,0.0295457241257351607699455,-0.0280479802035771101642592,-0.00822976225330058000495548,-0.000564826799245824622865142,-0.0030823146213855880104493,-0.0705575425440211345673447,-0.997502524284024749690047,0.0535601563266058164347605,-0.0214426377300609011244958,9.78395481549835821510896,0.0196714536440260080729647,0.0134501569915407657301865,0.00225937739688593201836664,-0.774328469981822475887157,3.37639656588501724243656,1.24144975216837361031708,1099.88522629813974162971,1094.65319282440736969875,1083.29823875690931345162,1112.27926266360009321943,641.612389052274920686614,463.230755760842725976545,-8.58350964731489618486648,-212.95723065596121159615,164.036035315386982347263
2.39999999999999991118216,-0.856630382264537693082218,0.0319939330398107957265097,-0.249056921047950796666015,0.0270645452732452898580995,-0.0277231666128479777022608,-0.0114569963827802975830927,-0.000594487623573700151372035,-0.00302145340421796455496195,-0.0705699808064101791194034,-0.997501809790392823806826,0.0562805791881149097832804,-0.0213036101916446451998155,9.78350011363366611760739,0.0197348285740132321774976,0.013460678763085034623237,0.00224170529304197705539048,-0.774280634568350945023951,3.37643932984370920280526,1.24145777110521082775563,1102.00799509287799082813,1095.8026689780676861119,1083.24173381903005974891,1111.79844695079145822092,866.378661268954829210998,367.95715715262178946432,-32.2855353468646697479016,-127.978161335207005322445,164.034209936006220686977
2.40249999999999985789145,-1.05733105591597675854132,-0.0118643336171867733869201,0.210176042268946816626851,0.02517931663197637767726,-0.0279223875949865564527475,-0.0118908702156784173986637,-0.000622076237289986106945849,-0.00294987520883742415644946,-0.0705768789764849441281669,-0.997501523732177264314203,0.0593570638018945245795166,-0.0211337100412246937930494,9.78264512182428092046393,0.0197982840513531710424644,0.0134660611234412048303755,0.00221250110486414467564353,-0.774232421093515088550419,3.37648137085825661429794,1.24146780779673093775273,1104.21711960448442368943,1096.49297861017043942411,1083.13681108017499354901,1111.63937185692407183524,902.810936323005989834201,215.264081302970254228057,-49.0860638265042865668875,-3.09497903190255829741773,164.032737959894433288355
2.40500000000000024868996,-1.31059258783363885569884,-0.0574390455627693113926924,0.60779509164584832880962,0.0237288309166393471261181,-0.0284145442049935290085294,-0.00954396900562460778760787,-0.000642655245458728326991837,-0.00287136778758381814441458,-0.0705771913092927555277711,-0.997501734641208170906168,0.0626926186371039723121967,-0.0210094799158453346410447,9.78142013445871150167932,0.0198627528297925376454813,0.0134672891914686589792671,0.00216982877628162139707624,-0.774184618849863004363954,3.37652232739762858670929,1.24147997383997843456882,1106.52204977449332545802,1096.87898938458261000051,1082.99630349989752176043,1111.78297205563194438582,952.803344777411666655098,103.695802370377620604813,-61.0982873599327547253779,138.456436552623671332185,164.03131821256957323385
2.40750000000000019539925,-1.6586903823204823815729,-0.11208308002417079196622,0.910538805487393632098758,0.0214038095948777574994981,-0.0289827129481396716936814,-0.00430070434895205196135226,-0.000656238435263443195370747,-0.00279842656568491787022479,-0.0705742833273784453407274,-0.997502164937849711279227,0.0660230408799336171421501,-0.0209021801359897223260287,9.7798605641772144991819,0.019929827845807601693906,0.0134653071557493120291582,0.00211281791455635937007629,-0.774137925468785903504454,3.37656259330491836934129,1.24149193823372794298621,1108.98113632837180375645,1097.01145762202236255689,1082.83131964337530916964,1112.33165403968723694561,799.830028785953572878498,0.0153382943608452101957873,-53.2948463495824853453087,261.530901163911153162189,164.02967556512768965149
2.41000000000000014210855,-1.9524494082213605938847,-0.160869632243558741135914,0.969487066372731298713461,0.0179395113445549869712892,-0.0293103394565230497559316,0.000971628200663531894389069,-0.00066407245928648778263842,-0.00273839250296616576116349,-0.0705696524957891285767531,-0.997502681337063989985836,0.0691817878191373081264715,-0.0207699936578770033568375,9.77800606772509262043513,0.0200015036351572084161177,0.0134611357871234904592939,0.00204139083314640182656441,-0.774092401142759678478455,3.37660273793260312658049,1.24150174511844757496704,1110.52119991842300805729,1096.87906607605441422493,1082.72982926814961501805,1113.09062656145147229836,469.581089347012493817601,-96.3220852162087339820573,-27.4755147325328330509819,354.12090613700303265432,164.028357589303311669937
2.41250000000000008881784,-2.19045608002343383802213,-0.219299662076363754970032,0.817216195849887139246448,0.012434426210961479347672,-0.0294788233731264719128529,0.00598525917345375021300091,-0.000668199899147616242951753,-0.00269397590041395599766427,-0.0705633307469000492506694,-0.997503269041664974992045,0.0720889879940833644411669,-0.0205662376819378753256551,9.77589868349115320711462,0.0200799824283405328739782,0.0134558177143940284337109,0.00195615303771385414671746,-0.774048117430185200760206,3.37664323148277745190171,1.24150893271723394839512,1111.32904177510681620333,1096.5298471959413291188,1082.69394206971264793538,1114.10225857037221430801,188.353027188399579472389,-173.513939675425774566975,-2.03117942751309543680804,430.195060414971578666155,164.027091925604793232196
2.41500000000000003552714,-2.33510243101956849187673,-0.288889518173004400392045,0.519030622927506790631469,0.00553120005781870122119059,-0.0295841216629107832403189,0.00984810424677867203568926,-0.000669575648663661032213013,-0.00266450899093769811090682,-0.0705558031837208859959887,-0.99750389363533797926209,0.0747245496848427254166225,-0.02027472381491864095171,9.77358118403994424738812,0.0201675059704209680422338,0.0134503640306330666392975,0.00185818803321052090568588,-0.774005141649795502800657,3.3766834994884264986581,1.24151465192998178288519,1111.46296505436498591735,1096.0114963776773038262,1082.71967337101204975625,1115.24160186352628443274,-104.62822252389055677213,-251.027085312494705249264,23.5774952268916884179362,459.704052047810137082706,164.025868852999622049538
2.41749999999999998223643,-2.32575147544164861912463,-0.369830891653888826908769,0.118654948098536383582768,-0.00215299456460676594260484,-0.0297613939177527597745865,0.0111504533568133768622888,-0.000667900341965647990211119,-0.00264874528208104784848809,-0.07054948444130441920219,-0.997504388857655244216005,0.0770737974370504924648273,-0.0199093807576873893516733,9.77109561690817685075672,0.0202661598730066797036109,0.0134457329617260652743216,0.00174888541322852772083585,-0.773963348916527071885696,3.37672395561131732932836,1.24151883247330285797716,1110.80590066248737457499,1095.27471176937888230896,1082.8118295458471038728,1116.40077883061121610808,-444.042639172958331528207,-384.883927019799557456281,52.1392213458068169984472,477.10052673424905833599,164.024695715464588374743
2.41999999999999992894573,-2.11918365278969567100376,-0.466411136068480058902708,-0.359805878247880461806574,-0.0106894934253482752628539,-0.0303093564234061668694054,0.00927765122941502130837765,-0.0006611062866569226547514,-0.00264252013628962474992012,-0.0705459676330106311148427,-0.997504657066730415770905,0.0791730065285600331792537,-0.0195274322057134644414766,9.76848226228974070295408,0.020377585301528104710922,0.0134429687118478840418545,0.00162965266385194313195073,-0.773922413961052435560362,3.37676433853051261024802,1.24152153159276812388612,1109.24275185850024172396,1094.08707674257834696618,1082.980369477741078299,1117.62710449719747884956,-669.413599621307866982534,-495.670411559341687279812,69.7134562251009270994473,398.319866478831784206704,164.023343430357016359267
2.42249999999999987565502,-1.79917945562624725930334,-0.528291640414799368308252,-0.674281432629359578356798,-0.0162746445254230015509123,-0.0312488324783887633229185,0.00551051721563296931227782,-0.000647011578730151545521543,-0.00263625298525225560189456,-0.0705438486872615871936532,-0.997504826475880457259393,0.0811612257472515419287618,-0.0192003555406254217130524,9.76577871384882989502785,0.0205027371739065177036476,0.013443321854049960356603,0.00150158334608536947474278,-0.773881579372790229243151,3.37680445847958221605722,1.24152364405946258330005,1107.45883266438090686279,1092.79635971158222673694,1083.1603968269726010476,1118.39237816300533268077,-764.612243124923452342045,-587.253533448034772845858,81.5559706921194020878829,235.466520573556891804401,164.022260990845012429418
2.42500000000000026645353,-1.36573203863690340043036,-0.542723524077476815463683,-0.835181402470624889566864,-0.0200043856028044204908856,-0.0328855086887741634993354,0.00100439381736574053806399,-0.000626595291875336373246808,-0.00262393274786607228268864,-0.0705423637799915959067931,-0.997504967891235660992777,0.0831110199870767896168644,-0.0189376439518758044044944,9.76301911819887813237528,0.0206418355358579351521708,0.0134481015814276235603719,0.00136560078462285173356294,-0.773840091107339311804481,3.37684429794203611052694,1.24152609070817887548799,1105.41969064287536639313,1091.15080907533797471842,1083.38814933120170280745,1118.80443710006534274726,-893.881226476226970589778,-804.17516999922588638583,117.779254631651625118138,98.7860253899204252547861,164.021222502218336103397
2.42750000000000021316282,-0.77010359660150851102145,-0.473932813863447710556187,-0.829184025471121577410827,-0.0227002913646953477511126,-0.0356438305507514804904012,-0.00398731147102129347692401,-0.000601320417687106604544278,-0.00259981788847438079897989,-0.0705417544170115762280915,-0.997505081525147607734993,0.085090542734963109383628,-0.0187432492109524950762989,9.76023410219796083708843,0.0207943739116851419868048,0.0134585998659050732478848,0.001222430310371467720304,-0.77379720602269475016044,3.3768836479741932699028,1.24152898855820481571754,1102.98942653199947017129,1088.7754838615858261619,1083.74929310013089889253,1118.8863082899549681315,-843.607125930902611798956,-924.621461483704138117901,153.869085518775676746372,-27.4554130177426891634695,164.02002446279854552813
2.43000000000000015987212,-0.249186448773251995048028,-0.33211541401538574591612,-0.676485840402995974862677,-0.0237333085546157680767454,-0.0382431666363618819048931,-0.00739723875403622537633153,-0.000574906306836238845288378,-0.00256119724131337713271539,-0.0705451232188780696930053,-0.997504956615086313398422,0.0871137628139718872555264,-0.0185768985307523740169167,9.75745063164401571498274,0.0209592548920057714090248,0.013475929852043547901852,0.00107276246849919592619982,-0.773752478325234527289922,3.37692234388802958733322,1.24153260087635097796976,1101.20165501322094314673,1086.52770176791955236695,1084.1574947587955648487,1118.66716003497663223243,-618.871591244728278979892,-924.287864818526600174664,192.982735521176920201469,-125.989794855607172507916,164.019064206505305492101
2.43250000000000010658141,0.256285337583069816602688,-0.109845864947900592745178,-0.423176248510302110972248,-0.0235128693495476534525146,-0.0400781529809552186649491,-0.00928953312640852686687953,-0.000552665235822986499608644,-0.00251538154196914243501682,-0.0705560911031028609174953,-0.997504314867357355645083,0.0890048704051307204565546,-0.0183566240230368139807471,9.75469229918600788664662,0.0211348860972706310834557,0.0135009972489143464241534,0.000917685528237814282515039,-0.773706061146323453847629,3.37696078667527466166121,1.2415355015303148888961,1099.89506857577589471475,1084.15404453749329150014,1084.7142067777367628878,1118.25635931567694569821,-423.861104804072908791568,-1024.32861433114703686442,283.071876734726743052306,-200.190493438098826572968,164.018141029318712753593
2.43500000000000005329071,0.801923801331454022545131,0.210934357968741770239518,-0.0866968298079040244896731,-0.0215555166232193826103547,-0.0400774516292465993183569,-0.00905129631692224226324761,-0.000539278891171926207451226,-0.00246811325591703720552794,-0.0705712275886892781429083,-0.997503378666162010546259,0.0906219109221110402652144,-0.0180166074969471401434618,9.75197966617849587578348,0.0213191948724195147468752,0.0135346997310803584396721,0.000758344916248520077746431,-0.773658492546188236715921,3.37699881659969491920492,1.24153700632549823801298,1099.08234948920062379329,1081.40605869626392632199,1085.57285414246916843695,1117.66620756778615941585,-156.874194614605301012489,-952.478278934470267813595,344.450660344053233075101,-219.132785910146708374668,164.017073117213271871151
2.4375,1.17811852029121233442766,0.484889456823438258492587,0.161309252273774711428089,-0.0186149014304523990892548,-0.0381340919968133421069645,-0.00713646901275043123863417,-0.000535337259840161852619822,-0.00242160513758500530595574,-0.0705846079230539186211146,-0.997502558606029210430677,0.0918913907031693039106912,-0.0175763783444214255480276,9.74933076946592969136418,0.0215098871445714018291184,0.0135776418610104275541683,0.000595891398456373992502388,-0.773610452123651981537478,3.37703632920021101782027,1.24153794899751024338741,1099.1106976027028849785,1079.39165314282104191079,1086.43646007945699238917,1117.16069538612623546214,156.32358467087547637675,-708.756398886513693469169,367.443727317694197154196,-197.049669606626252971182,164.016214200938719613987
2.43999999999999994670929,1.44796762091448094622592,0.728687807260714470736218,0.327220293947651230670459,-0.0146731495445184961790019,-0.0351088394923308386164074,-0.00469838739882171962242152,-0.000540546521220934073417852,-0.00237742467838705307317526,-0.0705933017532978518415732,-0.997502057173871303774604,0.0927576457904715212521296,-0.0170736207894816999219856,9.74676147058005426515592,0.0217046356755695342422019,0.0136298169931875681054612,0.000431416644893443718047216,-0.773562356394055128383513,3.37707388695829768821,1.24153823417976982845801,1099.86396741255498454848,1077.86227670183143345639,1087.41007277905760020076,1116.68095921975304918305,405.167652347572129656328,-510.903007372018691967241,397.195883499224976276309,-187.747172941594186568182,164.015384548637086936651
2.44249999999999989341859,1.61961159376801400178181,0.936424709679948619189815,0.411940746590674200522386,-0.010311537088246917545642,-0.031960328816243686878007,-0.0025379567815460237108216,-0.000552349626541605970807269,-0.00233788026627943608046212,-0.0705998363795439648482599,-0.997501690426657483534711,0.0931547993935288309863552,-0.0165880986999296237138779,9.74428623207090360835991,0.0219011252093041508537397,0.0136904444698449472006541,0.000266006834036065038708724,-0.773513713315289730410029,3.37711225872600540043322,1.24153764692986090523164,1101.13653586444070242578,1076.83713810596100302064,1088.4224394969530749222,1116.22195952141828456661,598.234455407067798660137,-278.408135702017261792207,398.172434024181086442695,-184.591203534595763358084,164.01457665594443824375
2.44499999999999984012788,1.67186779065991264481283,1.10792436700687790818165,0.406470551415067216094457,-0.00600027802046232752730681,-0.0290873363864975822967729,-0.00101478183441374618725672,-0.00056497225343994422665922,-0.00230259231436762091746462,-0.0706056114317801242208361,-0.997501362810465641572932,0.0930722825516193674744159,-0.0162632299518464217003011,9.74191888586723031551173,0.0220968670153211983742114,0.0137582950293633193145082,0.000100568472217925884704126,-0.77346419601991223125026,3.37715224202918573581655,1.24153564659830473182467,1102.85513968959025987715,1076.47023602332137670601,1089.40093494917846328462,1115.75800320208008997724,798.803793097604966533254,-15.1103934802439461293488,399.677873846822251380217,-216.651405271781101191664,164.013791536967602269215
2.44750000000000023092639,1.60536831051688189120341,1.29583034125718343787526,0.322370890279541022493959,-0.00122121952458139216429744,-0.0261120691197511030356981,8.1736829418364289820409e-05,-0.000575300239491508816000453,-0.00226965328258937459188216,-0.0706111892364744281325173,-0.997501040886467849055919,0.0925405614514782093316114,-0.0161891414080381525197883,9.73967315097646313404312,0.0222892610341882818625336,0.0138318243645047453393992,-6.44129388114300909656817e-05,-0.773413429005660346682305,3.37719397519479969105305,1.24153249968638834666024,1105.13055482992899669625,1076.76158613855977819185,1090.42082886618732118222,1115.13870249505930587475,821.306424099010655481834,212.849344880427622683783,331.629296770666201155109,-245.238522352639677137631,164.012870699890640935337
2.45000000000000017763568,1.45165156677543794039309,1.45527428071298992051652,0.211186315660733786581105,0.00247746745709656818537625,-0.0238624237487653628742024,0.000506553601721844307462228,-0.000584392817838446580573641,-0.00224147847891476405604583,-0.0706153643871825359434879,-0.997500803230939370180863,0.0915194670725789916065906,-0.016364279981555623910694,9.73756357184643306368343,0.0224756877441662193672922,0.0139094159606118830674326,-0.000228804407413202173880024,-0.773361581709193557365722,3.37723776845831258341946,1.24152802998726219385617,1106.96167181008559055044,1077.53448274772358672635,1091.05908143303190627194,1114.53181059031680888438,663.1713882314811598917,390.604840613795317949553,194.749072879134985214478,-266.011945805536242914968,164.012117035979230195153
2.45250000000000012434498,1.20774730032311783389787,1.62713112792033354203625,0.0836087101774281860055993,0.00610187923441377327166135,-0.0213540785850478663510099,0.000571783502818093121791709,-0.000592237008742354511733885,-0.00221906985626090175536818,-0.0706133796816130060447492,-0.997500983344207003966631,0.0900021470057271177900304,-0.0168044030512727073090051,9.73560662524035258513777,0.0226535961574880866098436,0.0139896857928096061268741,-0.000393028654524517394655558,-0.773308900309883640034059,3.37728234795544413060497,1.24152299928984821697497,1108.44641177108633200987,1078.7146103416287132859,1091.39457423058297536045,1113.80864276603165308188,520.944477842078640605905,574.442732360751961095957,66.7628256862840885332844,-340.073301636773976497352,164.011372296601422249296
2.45500000000000007105427,0.829996340391734310770744,1.83567989666092090672578,-0.063308987068648792106984,0.0102026829381886806336066,-0.0174813272690387440377879,0.000332270887109628989056209,-0.000599485887324148480903574,-0.00220270298651942513651347,-0.0706037133355948282043002,-0.99750168762208957229376,0.0880039325311805648022201,-0.0175077134711257853538768,9.73382145463231474025179,0.0228207992382277805032409,0.0140713181238719953203287,-0.00055815421143111084226196,-0.773255171958991849301412,3.37732593119385304802904,1.24151867291831674577907,1109.56639419929592804692,1080.40669640952728514094,1091.39289556146331960917,1112.83144408213297538168,277.456805318439819529885,638.047852984586825186852,-68.3209347342668422697898,-365.371404344804034280969,164.010482208233213441417
2.45750000000000001776357,0.468572990685965695689674,1.98797827650774938668121,-0.165799584201709704345262,0.0127039803611386000609107,-0.0132127399630595446927694,-0.000120372333270472192147393,-0.000608421400767356957729748,-0.0021954632749458633141082,-0.0705888237355992292920703,-0.997502734529872148172558,0.0854943131817077206502375,-0.0184308187122678469871406,9.73223050645758469556768,0.0229755754184253133121096,0.0141529624300950115228792,-0.000725702558098482845318211,-0.773200722498256665105032,3.37736789195051434475658,1.24151540725634923489906,1109.83369579767850154894,1081.90484960655157919973,1091.05296955691164839664,1111.98178574430767184822,-33.9998354891129537236338,586.774757401975648463122,-198.106635850994877046105,-326.882812834544608904253,164.009738200567284138742
2.45999999999999996447286,0.103417247155222172261269,2.08031510704023903102211,-0.233441296902829054094042,0.0133023359989464518005065,-0.00774945047009890919387232,-0.000863946678204256736550992,-0.000621835922470742531904808,-0.00220131348423542420877919,-0.0705743693449207287748948,-0.997503715341416463679991,0.0824320103723372304971306,-0.0195125932973262937453196,9.73085991052316501281894,0.023116691665426881974188,0.0142330422500450901046598,-0.000897517436143569738611625,-0.773145819339954742943632,3.37740895861629031315942,1.24151260207169533700267,1109.39639502185036690207,1083.34057019653710085549,1090.40236238220836639812,1111.19703001796028729586,-325.349330631531870494655,587.401405359981936271652,-341.697524391664046561345,-302.967162363445027040143,164.008985433062264291948
2.46249999999999991118216,-0.27852796372959903736799,2.08178278180165898803011,-0.262732315119551529392083,0.0116905631299025411506953,-0.000178901530522412215498673,-0.00209408585034284592044096,-0.000640402374048010107100704,-0.00222153168485693516473467,-0.070565204743746626214751,-0.997504286621432090242934,0.0788293093183795312572926,-0.0207295365397655861894322,9.72973962986558404963944,0.0232432879277552975616494,0.0143097233795299403485979,-0.00107565574734874627033099,-0.773090999611822260462191,3.37744994759718686339056,1.24151055904438867294459,1108.20694914452087687096,1084.84185663335142635333,1089.34448193495336454362,1110.46694993249047911377,-507.370974761180946188688,496.810080439546823072305,-420.369109053726674574136,-214.105420469063602695314,164.008065228238024246821
2.46499999999999985789145,-0.514058833193680508877321,1.97640935929845595886434,-0.240260853733311935398476,0.00907620962288711689847087,0.00632118052779479574349031,-0.00329262868466132256270451,-0.000664330283251847193010109,-0.00225051325055896245946885,-0.0705627307894339944605022,-0.997504363299269836140581,0.0748346149193636345220426,-0.0220690966773843047499248,9.72890311662275308890457,0.0233547565886627860043401,0.0143809337524532059038318,-0.00126245835655043126335983,-0.773035888069225518570704,3.37749193070432829344441,1.24150934108409427558684,1106.85954014804451617238,1085.82462059873478210648,1088.30051683693977793155,1110.12650291561499216186,-555.566376985697161217104,325.322606432133284215524,-434.778797079586865947931,-65.3433706665465763308021,164.007280071379142327714
2.46750000000000024868996,-0.644487985601419399728229,1.76693176657050465827581,-0.173259096869657541750698,0.00637458775745641890303483,0.0120006613851102606621568,-0.00434472576430213960896332,-0.000692276375414216339418405,-0.00228661381542948766165679,-0.070567418198635351034298,-0.997503917804662298962626,0.0705195059811874191968428,-0.0235361174184068808190595,9.72838662550752175661728,0.0234508152292917486370083,0.0144442969689133650368351,-0.00145984653802796885205262,-0.772980506521932397845376,3.3775362157977744104187,1.2415088896962134246138,1105.42911725959220348159,1086.4684696655122024822,1087.17058794955528355786,1110.14023307915772420529,-544.743215916386930075532,199.480337697728089096927,-454.013866247183898394724,68.1309681642641749022005,164.006471650341893564473
2.47000000000000019539925,-0.69236451218081140890348,1.49438268689211994910693,-0.0796540320442974542070047,0.00407992382834083261444746,0.0163497917126169782509049,-0.00506846509732621769428462,-0.000716434722827192583052835,-0.00232648051209129397634556,-0.0705776007415806067024633,-0.997503082196585011409695,0.0659809670192068875582692,-0.0252561999341146189990148,9.72822822284242150203681,0.0235314801228589977333261,0.0144974167630349207863683,-0.00166920385105809743891969,-0.772925493503064497957666,3.37758251250410834742866,1.24151010595129607239073,1104.13582406846239791776,1086.82202228722348991141,1086.03044750570370524656,1110.46715775643633605796,-448.018239863140934176045,78.8584549307432496334513,-443.842473576897077691683,200.734239058060410343387,164.005641380178531107958
2.47250000000000014210855,-0.661422878112736145617134,1.18637673515707930960161,0.0263038170185125319555652,0.00229551216179088059254898,0.0189832069094952073096128,-0.00511524491146917587025555,-0.000728407656591015533094347,-0.00236501633039080949583166,-0.0705885154369006589947233,-0.997502211872611566079172,0.0613491605865770783800883,-0.0273624831801861610747206,9.72846591809093652614138,0.0235970269379173099022484,0.0145381918852498948774299,-0.00189128806436091403443689,-0.772871031976798628093661,3.37762942160457102502846,1.24151369682804668670428,1103.18902606027654655918,1086.86276194016591034597,1084.95137558167084534944,1111.14390427444800479861,-317.390718865460655706556,-33.4068763381772271259251,-441.646547798027654607722,360.437008194147381345829,164.004782420053231817292
2.47500000000000008881784,-0.567546407639224037566805,0.825931175738621736748257,0.138909520754155801913754,0.000809205789226173687403443,0.0205926115293501577063751,-0.00429807860899973116775019,-0.000727444738495020611773745,-0.00240610598759288980830195,-0.0705970609283228522912168,-0.997501513579129306386051,0.056589841432276119514988,-0.0298220717881466715337702,9.72913501490618770617402,0.0236480948477655709971668,0.0145647434058611864593491,-0.00212565160457477185865227,-0.772817526363661300159436,3.37767622384621235553936,1.24151798135689328539399,1102.54887047413512846106,1086.6549879055326073285,1083.82221476671361415356,1112.26934279740703459538,-160.342537205045800874359,-97.7317792536289715599196,-372.137290204417467975873,446.946848121624952909769,164.0037164330845484983
2.47750000000000003552714,-0.466582018043003976526251,0.558612724853591147144982,0.203132923191938541407353,9.37300764370505083656823e-05,0.0210800263781484552294554,-0.00314980693015592949635106,-0.000718707878766810907833484,-0.0024537179667734774698995,-0.0706024901364326884500855,-0.99750102288271258466068,0.0516738502293345308702399,-0.0324829968392401149945847,9.73026636234819441995114,0.023685556060939041977953,0.0145754392575248182400971,-0.00237069754784858350779575,-0.772764876965912783646218,3.3777236116888884609466,1.2415208130894648252962,1102.38731337425133460783,1086.37410304389777593315,1083.09068913064879779995,1113.37863851505608181469,-19.6555714069749782879626,-107.390301969237512480504,-232.112990815135560751514,457.660547777923738976824,164.002797929996177117573
2.47999999999999998223643,-0.364758233130935249910465,0.337038834536871723113194,0.226060657457184233098957,-0.000229543226661194202419328,0.0211476380731161345272184,-0.0019423089092906764031865,-0.000703966756311789768410514,-0.00250934601446843943972631,-0.0706037181794557655578615,-0.997500809706697966205979,0.0466132517463606760310668,-0.0352596397305406442090892,9.73188478668750533984166,0.02371028496737380419912,0.0145691161525026563472451,-0.00262346017991810492170357,-0.772712676785997865103184,3.3777720286135375360459,1.24152073874143331622122,1102.45059261710025566572,1086.11803639568643120583,1082.66164981263796107669,1114.55764553629660440492,26.9058124821646096336281,-80.4245472983001405964387,-103.108761137857456446909,515.61057513437128818623,164.001847842197804538955
2.48249999999999992894573,-0.255340232896295593612024,0.114528723693778006209598,0.208678446384338217578502,-0.000368708496402844645815911,0.0211139915132039779344097,-0.000812923056026148465116887,-0.000680928236315846580756217,-0.00256966913016711548736759,-0.0706010196466560768779885,-0.997500863553513972270537,0.0415053722599849767016522,-0.0381505583695022354451254,9.7340073756323146625391,0.0237230947984645411386051,0.0145451270350694800148617,-0.00287991782951689838029874,-0.772660442685761061909488,3.37782075137047588242467,1.24151684950030460896642,1102.52184243666215479607,1085.97198030740628382773,1082.57514532495952153113,1115.95669139072788311751,-12.8967464954715094194171,-14.5514651337183220647375,44.215808482386854905144,502.956242428864982230152,164.000671559731529214332
2.48499999999999987565502,-0.175794011544512768230319,-0.0524710575441777252181375,0.166628704393215115731053,-0.000402570808721928281512237,0.0211320161828869416964505,-0.000223051977518596601657297,-0.000652274478518046038795497,-0.0026300363876245922388486,-0.0705961229529829398243734,-0.997501072071156125176117,0.0364772221492344478344094,-0.0410598935892633118416306,9.73664164792387509805849,0.0237247244549153753212511,0.0145033892076743050475462,-0.00313553828659333608253057,-0.772607451590556992826464,3.3778696389495563856542,1.24150889863195179607658,1102.3861088846228994953,1086.04527907001784114982,1082.88272885504989062611,1117.07242674844087559904,-128.394794739406705730289,75.1761062616828183990947,194.750495795629404938154,435.780843675882067600469,163.99966177234986730582
2.48750000000000026645353,-0.100194175347599931380493,-0.226693077832776535007753,0.112292136152058866227499,-0.000452598622678628730378603,0.0212154009437797511083978,2.45429654749020589768038e-05,-0.000622616174118101003455428,-0.00268528896750941121346345,-0.070591187019940299096632,-0.997501295093358053556187,0.0316651076327782166064395,-0.0438570868393377416571965,9.73978460888186070576467,0.0237158648098994527531058,0.0144444841291662007948249,-0.00338563184514190790297405,-0.772554005658708020654046,3.37791841978255913403473,1.2414977233388018174054,1101.87986846296507792431,1086.3478608387147232861,1083.54889780393773435208,1118.13559560910744039575,-322.099184905460901973129,183.865665712970752565525,350.798618221573576647643,464.694124504754199733725,163.998622435702202437824
2.49000000000000021316282,0.00342036853893643716384432,-0.470779898806339081041017,0.0524100864098399343848911,-0.000579367691923383075491838,0.0212160707854617928969088,2.33796678750523080929022e-06,-0.000596005981198599946169203,-0.00272737706863939886534065,-0.0705866348110415625649594,-0.997501523993954752889124,0.0272574250061847003778759,-0.0464302729377848860670142,9.74342251834827699497055,0.0236971665703268712099838,0.0143697872675044597406968,-0.00362582375867339995120786,-0.772500055786526251822011,3.37796725960253896303698,1.24148463126936015044066,1100.7756129600954864145,1086.96460739858275701408,1084.63672194615787702787,1119.39589737096480348555,-477.956675016331416827597,263.319919446399751450372,419.640527325609411946061,469.778342995105958834756,163.99734290389289981249
2.49250000000000015987212,0.115262780807246126291155,-0.713929605769620834188061,0.0191117123781465621246145,-0.000722868018470371816348863,0.0208698250592621974142116,-0.000225573404449077381979383,-0.000575288166361773503632016,-0.00275499823085212543205547,-0.070583636475047895064705,-0.997501678068441588465021,0.0233063672874446944915938,-0.0486872398086910657122317,9.74752988181934476585866,0.0236694628534700503286192,0.0142813652135703236106812,-0.00385190447958980164422371,-0.772445814948393816301575,3.37801622862085171306035,1.24146991392230376938244,1099.49008508788347171503,1087.66446043594669390586,1085.64710044056573678972,1120.48448732408292016771,-557.545429767799873843614,310.030826095778365925071,388.130786658174770309415,455.922907598106291970907,163.996251379355641120128
2.49500000000000010658141,0.268981018917244019128532,-0.995338095443974446574487,0.0130866660500268613964714,-0.000807083155329260410609793,0.019693710246183666889852,-0.000600632550334692129345715,-0.000559417060788388199182863,-0.00276454206850498210995548,-0.0705816500446284494918459,-0.997501806744881980293371,0.019900139221092558172721,-0.050621666179336818891521,9.7520706937280916548616,0.0236337064560122565859412,0.0141821367435711540028187,-0.00406033764633408934818792,-0.772391794287055954981724,3.37806384328548459095032,1.24145479526020552363264,1097.98788581125654673087,1088.51476152906161587453,1086.57737587944870938372,1121.67551190895528634428,-657.3957880099127351059,396.931495248654130136856,348.988980467227690951404,557.100455986222186766099,163.995136090730994737896
2.49750000000000005329071,0.511012093209582185515671,-1.35367234498002542153472,0.0413234530177541831141852,-0.000604663571796292356221036,0.0167681262744090280036868,-0.00109582382729274505246686,-0.000548221858676554442933726,-0.00275362022568285914544961,-0.0705788256496072546886111,-0.99750204913330209333111,0.0171009400969443364770584,-0.0522168668613432612746195,9.7569990394756960228051,0.0235910063181629034434472,0.014075741677677397825641,-0.00424831289964708140594052,-0.772338457943239964365034,3.37810888693063704479869,1.2414403424611260007282,1096.20310614783397795691,1089.6491179121899222082,1087.39204534290183801204,1123.26998960401397198439,-610.716629668663131269568,425.122616487360517112393,224.477183922868107401882,612.383151640473784027563,163.99377363062922086101
2.5,0.758180392599838715028682,-1.64356313750387283967314,0.0910623554043112209965827,7.48084745736312534125645e-05,0.0129648302671381276951479,-0.00138342670882604461789211,-0.000545699166308447449272312,-0.00273097770039117072535251,-0.0705752474137922719554794,-0.99750237021285570460094,0.0147564469043166140993506,-0.0533684971386078899069361,9.76225918517078383729313,0.0235427092319062600256352,0.0139661058653681741797969,-0.00441331720646487811465786,-0.772286533638429806281067,3.37815069497345277227396,1.24142645255583139451971,1094.93430266291329644446,1090.64037461149837326957,1087.6997617990630260465,1124.73742766715758989449,-421.599551412973482911184,393.200004838726442812913,31.2074136239068415932252,605.29186567724912038102,163.992620852577516643578
2.50249999999999994670929,1.03663124408671336595944,-1.89284704498533695726792,0.15646171900081840000496,0.00166486220818303832548468,0.00798376716011173562237424,-0.00122631915150666725815298,-0.000558252125544388003511309,-0.00270532433086486528983627,-0.0705722070865469064404607,-0.997502648035418992833456,0.0127146276639514138606657,-0.0539342788644249851448542,9.76778842636508315422361,0.0234901037641988066906329,0.0138571322521264406885111,-0.00455343909917776349521867,-0.772235280040708516047232,3.37819009799552594230931,1.24141227082594385322523,1094.09510839076915544865,1091.61511793638351264235,1087.54808241102136889822,1126.29644893240015335323,-244.955569534709638901404,376.418578322326368379436,-134.568760251616510004169,622.0686444872304718956,163.991453325669851892599
2.50499999999999989341859,1.32037878103552075437221,-2.09084686546331921519482,0.222376581921277710618412,0.00427684333074694437992758,0.00235153702939321649148519,-0.000559344620368135581750524,-0.000586781906321158508443858,-0.00267857999286115954981624,-0.0705699708786917678793316,-0.997502854247570236445597,0.0109448712665392439147283,-0.0538973113835549133554537,9.77351963319064864776919,0.0234341129604048251100501,0.0137525257284592371948007,-0.00466734943331078514644483,-0.772183836666472056542432,3.37822751850215707847269,1.24139718876910931655289,1093.70952481523977439792,1092.52246750310996503686,1087.02691799780495784944,1127.84777088959367574716,-36.9068254488419071890348,332.304345947757440171699,-277.580807267128420789959,589.160654046339686829015,163.990276054791337401184
2.50749999999999984012788,1.58012226929328414293252,-2.21817883464957166239628,0.274479663569698217884252,0.00821808418649969812941336,-0.00361865868786686488769999,0.000514193723332242330105457,-0.000629280400515721790102863,-0.0026497864239386609806759,-0.0705702637483798245199296,-0.997502868502644468584606,0.00946591566555056440623872,-0.0533095187133560480252648,9.77938277654866539023715,0.0233753184884600284654255,0.0136553587104733999829653,-0.00475423732638339310158093,-0.772131846175875047322279,3.37826316478762267436764,1.24138122552015506272483,1093.91057426352494985622,1093.27663966612226431607,1086.16017837468575635285,1129.24225220263178925961,216.62108734156748823807,278.805212338310695940891,-417.341130764606532466132,533.856714355224880819151,163.989090065322585587637
2.51000000000000023092639,1.82848380558354617342331,-2.29461134257873045072529,0.309557437299076088077499,0.0139625687152975363342078,-0.0107038502746752174632494,0.00190838813390441838085954,-0.000684830573280933996294095,-0.00261819340661675501943928,-0.0705760587197631211742177,-0.997502483683173402084776,0.00829170619955114929222617,-0.0522083661895768672001061,9.78530663510394838056072,0.0233140113967482791312857,0.0135677946922427190845628,-0.00481388647103752394945664,-0.772078926870814141736332,3.37829813304185000433222,1.24136412576528787354846,1094.79263025194768488291,1093.91649356480161259242,1084.94021234398178421543,1130.5170544613699803449,415.642164059744686710474,182.00191716622293824912,-437.647456955999132333091,371.501588957310048044747,163.987660750358543282346
2.51250000000000017763568,1.96508818592557088500428,-2.30806256557749378544031,0.314152791733456282496917,0.0189711651689751757687841,-0.0161032507235829777658687,0.00282597813219491456049326,-0.000750245956404166770663255,-0.0025808090177008497813349,-0.0705887033041031619617911,-0.997501617431954645809355,0.00747507423820627237009973,-0.0506846767024827504766193,9.791221114355696641951,0.0232501964676652718433392,0.0134911020821117909329612,-0.0048468037546732139000949,-0.772025405382906093620932,3.37833367722763933116426,1.24134607333535540441005,1095.98878508382381369302,1094.18664925195344039821,1083.97194108990561289829,1131.09976014741846483957,551.0764241383302532995,53.6685432554361412371691,-330.152362355336435939535,108.219089520528115144771,163.986467461135788425963
2.51500000000000012434498,2.01797585438063231677575,-2.28899772755966557369334,0.29632650036226615419821,0.0238809772064850558970228,-0.0208765878278545265189781,0.00314581635486464988166189,-0.000823112379406867335739084,-0.0025316534092403694851392,-0.0706067593549113969864095,-0.997500391976552602812944,0.00712698097795051721536908,-0.0488229021856516343103038,9.79705943461091699475674,0.0231836918277735226645575,0.0134256878696057575794942,-0.00485446854956369557021478,-0.771971205012529582134562,3.37837101572079578915009,1.24132800631514017553059,1097.54801237263927760068,1094.18483628107878757874,1083.28945053220513727865,1131.05814990897260940983,740.667165581651147476805,-48.7781186908715795880198,-191.639117756180439755553,-173.365788850063893278275,163.985275411121989463936
2.51750000000000007105427,1.97917015057380862863567,-2.24303732316996118356656,0.250171827310193828353135,0.0295937456752964136996731,-0.0263524798472390305026369,0.00328957151352330702531734,-0.000903739958985447125287827,-0.00247278356777163145843734,-0.0706307950348735169576742,-0.997498761323057259176039,0.00720386364092978626061381,-0.04664556934751468847411,9.80275838320423709149054,0.0231145204657296904349195,0.0133710287981247330502121,-0.0048389521073702226189317,-0.77191615097982391180409,3.37841031783264034160652,1.24131093883497478636002,1099.69212091173199041805,1093.94275865849908768723,1083.01374550112473116315,1130.23293120316816384729,810.381216813283572264481,-111.340408033313551072752,6.29944984161752241647036,-425.631213631195350899361,163.983850510074546491524
2.52000000000000001776357,1.85854080740247717962177,-2.18524055462922328629816,0.185190979718855702751412,0.0342885627944593054938771,-0.0310496274193545647446246,0.00370154173557968443550314,-0.00098787611500986854430606,-0.0024048915824590503219349,-0.0706570780439529783079067,-0.997496990596636323722635,0.00768130833356148179369427,-0.0442677476268214242782761,9.80826116821137183876544,0.023042827827001614859892,0.0133263138837848484768989,-0.00480303887643639560584008,-0.771860753419673750741481,3.37845078942336396465862,1.24129585984063650627718,1101.59991845670560906001,1093.62813424091223168944,1083.32094778141322422016,1128.92999384081667813007,764.287773306585108912259,-127.5023187796277710504,233.470865501390534291204,-626.391700653552675248648,163.982670610037104097501
2.52249999999999996447286,1.64330461717400111432141,-2.09498623715323750715811,0.0801694449504901096581477,0.0390312537789467076110306,-0.036112057112260342872645,0.00459282717558477313057885,-0.00106639024614106278643355,-0.00232793663726109986006341,-0.070680779212254560284201,-0.997495430189958121047766,0.00854122657350814273868878,-0.0419009017854310300554843,9.81351871216917359674881,0.0229691129473823495155127,0.0132905329034726689407808,-0.00474996572223729263129144,-0.771805759569920812879218,3.37849165733631640051726,1.24128366472946205512073,1103.51355977826483467652,1093.30524706460096240335,1084.18109982863165896561,1127.10097269990046697785,818.866874856320691833389,-124.790088173497608181606,478.390601649435836861812,-886.314978232004023084301,163.981501168377349131333
2.52499999999999991118216,1.27951002282536774323773,-1.92858677826335389582368,-0.101711685952408467659147,0.0442822669344788283352088,-0.0424379342502442524764916,0.00585323399187673634735951,-0.00113369816662537586417214,-0.00224964894112693108638168,-0.0706982326525395221583636,-0.997494324889128813893535,0.00961698393802253026496629,-0.0396748981882842910451359,9.81848937223667483920053,0.0228943910238229471343363,0.013262419259965926507383,-0.00468295031891233920484652,-0.771752361119068530648235,3.37853191187314738641589,1.24127420256883946869664,1105.69425283098712498031,1093.00418380004475693568,1085.71290078966035252961,1124.49841894965675237472,765.525070329675145330839,-88.8411723098689236621794,609.82728287064151118102,-987.867664251801329555747,163.98011154626698271386
2.52749999999999985789145,0.901595026213497852118905,-1.72968201870767313010901,-0.295178769346427671838029,0.0476187591666343071339362,-0.0474125363508163810699614,0.00664511931359096277155407,-0.00118875206340456908947478,-0.00217579597849677655943545,-0.0707085119468619932581177,-0.99749372578264472455345,0.0107852970568843992138497,-0.0376308113269890609497992,9.82314065353774701350176,0.0228200123578430509596604,0.0132404104867532099870653,-0.0046052525190492851064894,-0.771701101369202224766752,3.37857191871929707360778,1.24126692969796859067344,1107.34118512991312854865,1092.86104120305162723525,1087.23023624298480172001,1122.1616343786415654904,610.52644524720983554289,-35.1764795112079724503928,605.505927768631408980582,-927.650204564071032109496,163.978965134114986312852
2.53000000000000024868996,0.474946263464851081703699,-1.4631604280981624910396,-0.507349297708864277467455,0.0494675464201521433715847,-0.051661379907175564163424,0.00645191459430813091940893,-0.00123688762216303126291461,-0.00210500168341311777106539,-0.0707114300466860912219857,-0.997493639347981853049419,0.0120707849644073883510487,-0.0356912734276364981833574,9.8274497103198310554717,0.0227473142060920473228602,0.0132227376518239264635568,-0.00452010564201111870313854,-0.771651580681195659039417,3.3786124585317671709106,1.24126101214914785764165,1108.74688505722338049964,1092.82830140248870520736,1088.74043042850371421082,1119.86016792683608400694,516.946884028049339576683,-0.380256196694946813074978,564.887931264736948833161,-886.451921364991221707896,163.977829810993398496066
2.53250000000000019539925,0.0356261645660324796636154,-1.14347218313362986030768,-0.703474787745195784260943,0.050052107177027432838301,-0.0552396836222475429156731,0.00493180975095904982480333,-0.00128381761205172270287611,-0.00203844493300452209855189,-0.0707076713035776766025364,-0.997494005581897380530165,0.0134480730627745681537988,-0.0337642218054383241865324,9.83140149249320138835628,0.0226774603935895047168714,0.0132075412221194926631895,-0.00442987453519120156358868,-0.77160353521918401131785,3.37865346507122632502274,1.24125544417391453499988,1109.92591955005354975583,1092.85913992206815237296,1090.05467589930867688963,1117.72937477181631038547,416.272451706899801138206,17.6689668573548388508243,443.532770071679237844364,-785.902748510187279862294,163.976702092373443520046
2.53500000000000014210855,-0.384090294493472372838738,-0.770083226676309351432792,-0.83709341413860294256466,0.0491662886029599829895709,-0.0578390197933810468189364,0.00194279983596058010084096,-0.00133341831814936151619222,-0.00197861709270468529714426,-0.0707006464912777604636673,-0.997494572547437341469845,0.0148634408373770343647635,-0.0317878583242215684290244,9.83498825643501639603983,0.0226112711173955364951649,0.0131929247665750933038442,-0.00433595552934360958796667,-0.771556401121691437516859,3.37869537796821095554378,1.24124885579273103175524,1110.82824731575783516746,1092.91664623677547751868,1090.95809427886206322,1115.93065418428523116745,338.90804525381821576957,19.3814094745452649704021,281.644498961538033654506,-699.209511861014448186324,163.975580561310465554925
2.53750000000000008881784,-0.825440436866903493040581,-0.28102976719421357554296,-0.882780140080285602444121,0.0465109533519175513682775,-0.0597976278749018860803055,-0.00244136524311029667888562,-0.00138432732393618568474125,-0.00192527322833457880703334,-0.0706934053190206856953637,-0.997495126709010859755722,0.0163100470628752131085903,-0.0298036852716911451754989,9.83820935823081654802991,0.0225489726362251841074169,0.0131772645013460941443295,-0.00423894327678461715208647,-0.771509394685438332217586,3.37873817182390645541545,1.24124016030714101610499,1111.62045977632260473911,1092.95604696944087663724,1091.46289839411633693089,1114.23332721251131260942,249.716425318279874545624,4.25411680412262249717514,92.9482314057187721800801,-547.538557767132147091615,163.974236698743482065765
2.54000000000000003552714,-1.12075262188144453290306,0.140200459346696809648236,-0.813515113191035976747401,0.0431784754323394359687427,-0.0603692321715486035493825,-0.00606187210599387713699793,-0.00143516525951197871160958,-0.00187248380996474965767828,-0.0706878905096440662836343,-0.997495544153226276762325,0.0178936609026385945453441,-0.0278588018701269070354076,9.84107064801857767122328,0.0224901248603439941897708,0.0131593459953835995729365,-0.00413918059726508906492892,-0.77146147417632582321545,3.37878202969970686808665,1.24122898008000959180208,1112.07682944234920796589,1092.93791682079609017819,1091.42283543589064720436,1113.19296139544962898071,150.609695919186862056449,-17.4679941925209369912864,-87.0060231989119046147607,-351.951376338054842562997,163.973113947622067598786
2.54249999999999998223643,-1.33139212104855886309451,0.545243381505285951149631,-0.645360672669927248890076,0.0392940654131217551037203,-0.0593138130162124133093471,-0.00893734115457838623752806,-0.00148719846547266812755717,-0.00181540886244910075995873,-0.0706835824854219751944839,-0.997495869996116835132227,0.0197038678142892054179214,-0.0259449516369920155089979,9.84358264140856675794566,0.0224337514430932305486976,0.0131385515014849265508223,-0.00403691804859473892669319,-0.771411984854031840264099,3.37882736443225217826125,1.24121602030101918501259,1112.37350825591852299112,1092.86870699847827381745,1091.02786827812178671593,1112.47357033082107591326,103.693944741737539061432,-33.2353100121061117988575,-213.676253741509754036088,-260.474344820573719516688,163.971982834857158195518
2.54499999999999992894573,-1.4959860922656109671891,0.975773588286065196584218,-0.372425741314450664543045,0.0347427464669329832958056,-0.0564164522480350844046981,-0.0108374365325425922601532,-0.00153754086699606153272601,-0.00174803229654024944519919,-0.0706761195258496927040781,-0.997496429859604405443463,0.0218492569367700895099915,-0.0241359985159014939215538,9.84576029686583176214754,0.0223785137438387883579427,0.0131151336480490269403854,-0.00393255132551915183997115,-0.771361125149459425642817,3.37887264791683517017873,1.24120351049358457196092,1112.59529916605788457673,1092.77174027073556317191,1090.35445416718312117155,1111.89058967134678823641,63.318785706316234040969,-27.3583898764178599094521,-248.740425772035308682462,-175.12643696978020102506,163.970610213871168525657
2.54749999999999987565502,-1.57617666119349131292893,1.26707570955608961327243,-0.127813077076708969670449,0.0312989771804370736640877,-0.0533073822409926845189432,-0.0108815295874447933582863,-0.00158141694139083636289067,-0.00166409676821400532090167,-0.0706620125325873593702397,-0.997497491813951975281327,0.024442270559045381483898,-0.0225426040226643017994057,9.84762225490730003230055,0.0223230988376477076928772,0.0130900403658677170343205,-0.00382677628095197397417593,-0.771308646598338309985365,3.37891628685394884712423,1.24119340663783184197655,1112.69010218445009741117,1092.73191504909618743113,1089.78416614926163674681,1111.59793814597219352436,20.100313507008202407178,5.68478369000293071167107,-200.127079361605098029031,-77.0940718890817890951439,163.969449990533604477605
2.55000000000000026645353,-1.61853039282955535327346,1.47200063733964814360888,0.0863055004597380187592037,0.0281235542499012405870396,-0.0498224425744247870206927,-0.00975805869078777768366173,-0.00161646227311111959079604,-0.00156595922476912194874765,-0.0706403365279538592025332,-0.997499122550334349490697,0.0274310283769040041956799,-0.0212159902202768910206565,9.84918914412659951551632,0.0222665650787003989441448,0.0130646532495255068839768,-0.00372018252088424528772892,-0.771254444454859355850829,3.37895728967270381204457,1.24118590487167756997167,1112.69580073359293237445,1092.80016418918557974393,1089.35381877037502817984,1111.50511931190135328507,-21.4482948222652396452759,64.816163435530313563504,-138.09548471416724169103,14.5749496380621330615668,163.968268993151298218436
2.55250000000000021316282,-1.64138233930134092020126,1.60607871532852541918146,0.270086443300923406685143,0.0242621427480696968959073,-0.0450777158273878708616422,-0.00790917083834567942457472,-0.00164239172882014138055151,-0.0014650362653369638447215,-0.0706122143801936746898562,-0.997501223961417493590886,0.0305896057819255301479799,-0.0201544024164127151543813,9.85048323993511765195308,0.0222085421630822295313568,0.0130404910562270832941056,-0.00361292524023472134270252,-0.77119946003316519611559,3.37899625998423802641923,1.2411794170049290642055,1112.58286071033876396541,1093.05599586627386088367,1089.09368872569075392676,1111.67081289416250911017,-64.7213551441850682977019,122.718939976905744515534,-50.2540852772210016041754,115.225528749990829169292,163.96682410377999872253
2.55500000000000015987212,-1.6393802164100872431618,1.61909482819646766138533,0.350489617760989524697379,0.0207698043978575275225751,-0.0406169523357813103126013,-0.00639764719940878311826848,-0.00166194037284207946428283,-0.0013716992575216096009183,-0.0705787139802270535593465,-0.997503699448076042166633,0.033717286484511124755592,-0.0192991397060578231958949,9.85152918501751706514824,0.0221492455137559419997562,0.013018952928995349699326,-0.00350496501816928733227807,-0.771144850008969928722991,3.37903400298163347770242,1.24117261024230862709317,1112.37219395787201392523,1093.41375888907009539253,1089.10254834398892853642,1112.08124695565129513852,-110.685485626666007874519,162.210183764822261309746,41.8293463532345199951124,226.623817554177833244466,163.965594744108670965943
2.55750000000000010658141,-1.60910541894779157701123,1.53029367944294691916696,0.357103670919548310536129,0.0168799664731303471210122,-0.0361128069877862944991875,-0.00507319808819055133308762,-0.00167621968194268033611194,-0.00129257235216389339445275,-0.0705415776624402218741849,-0.997506414610055736069683,0.0366846576197698004406789,-0.0186295601279815661865946,9.85235398621819591369331,0.0220894967742246393915817,0.0130010792882006391557592,-0.0033960235756579758986673,-0.771091701311102606375414,3.37907136669531960038171,1.24116476696118160916171,1112.02943328220544572105,1093.86704678509795485297,1089.30283545745692208584,1112.80393198193337411794,-157.923705629221956314723,181.918724840356162530952,99.4504916078788738786898,339.955623446401602905098,163.964337067770713929349
2.56000000000000005329071,-1.54775284171247662357018,1.36594281174398868294872,0.311885052324404277168668,0.0126871647391135350391167,-0.0321152953218340475594061,-0.00386379580635075542752177,-0.00168566741510302493811668,-0.00123454436292476810860252,-0.0705051384505680361902691,-0.997509054244678505796173,0.039355567533982969974371,-0.0181385532856684697500249,9.85298615615747941376412,0.0220306773876262802780435,0.0129873558509206281363912,-0.00328557944316796267381076,-0.77104028289375492466462,3.37910877048411206757805,1.24115541498274351006614,1111.58257542972592091246,1094.32335251327185687842,1089.59980080202831231873,1113.78102507288326705748,-198.731323734004632797223,161.025223366554001813711,123.431622831551877084166,444.550258425634126524528,163.963054733110539018526
2.5625,-1.4430556782863912523851,1.13074099889733492574351,0.222225456536378929150999,0.00847432140226210377231819,-0.0289372895151910683453345,-0.00280302408772961902244658,-0.0016909062108819408656174,-0.00119854314768524363929436,-0.0704741033551840589943538,-0.997511284843204615313539,0.0417101532642520853033652,-0.0178241048438661647823622,9.85345588296867980204752,0.0219744143353718113242934,0.0129778071056720293446896,-0.0031733830961395729716723,-0.770990661384721831517197,3.37914583180232241943486,1.24114499414438284041751,1111.03577666353544373123,1094.67217290193070766691,1089.91999357161466832622,1115.02668327406149728631,-253.791328962693967241648,103.096908316003847971842,121.676135868076798374204,594.903967867516257683747,163.961741490858429415312
2.56499999999999994670929,-1.2705293942565596410077,0.799570799470828208477258,0.0945844250026711685919167,0.00410055479277959128436848,-0.0260307805583078165356792,-0.00207336922241388443843846,-0.00169388597791978790831069,-0.00117836119087142928742173,-0.0704522408260373073085603,-0.997512845636692846440496,0.0438691446039035856663268,-0.0176680154859865101713012,9.853794735503502266738,0.0219222996626440048972828,0.0129720676213002719667777,-0.00305976607269675595496272,-0.770942519693845418338185,3.37918303922108043124695,1.24113423513388898555831,1110.31361878491247807688,1094.83883705485186510487,1090.20818148136868330766,1116.75554491222078468127,-268.176885529288767884282,6.9048384215877032232811,73.6830332360129744984079,660.276166097688019362977,163.960128546125162074532
2.56749999999999989341859,-1.09753791586623372644738,0.509262153242840853728524,-0.00100192530081218600553072,0.00131026386984412369224318,-0.0244470492519064837300125,-0.00221543862300677130150461,-0.00169697089970478713627511,-0.00116949917073246056377356,-0.0704428331803672869160238,-0.997513507965450019199238,0.0459185701002927382230467,-0.0176409584917184489305519,9.85403485159518410796409,0.0218757382114841934794836,0.0129694075740355903997303,-0.00294539928582756302746781,-0.770895418627845940839904,3.37922150661534814730658,1.24112329989018888021235,1109.69489223588902859774,1094.70669709403864544583,1090.28840873779472531169,1118.32806410454986689729,-244.047927560819260861535,-113.204764675267739448827,-15.5622377498733523992769,640.839504171767657680903,163.9587527211432131935
2.56999999999999984012788,-0.908967804328064565844159,0.236398493366980544383438,-0.0530086917615300162731629,-0.000728701462390360594004179,-0.0239662133088290908722318,-0.00322421201130526635658669,-0.00170252872754974031617448,-0.00116336288780303468044786,-0.0704440981999149562486906,-0.997513405494454885591438,0.0480231325903966929646849,-0.0177182552211514118822855,9.85420933677546884155163,0.0218356399848674415098415,0.0129690741200847951125619,-0.00283160923020565587562847,-0.770848651360215852967883,3.37926162534386342883863,1.24111301769586468424222,1109.09337914710840777843,1094.27281323147553848685,1090.13037029261931820656,1119.95974243307955475757,-256.77310867779937098021,-250.283441728635295930872,-133.631420228712244124836,711.554367514461091559497,163.957343172393848362844
2.57250000000000023092639,-0.677900104779410428434971,-0.0375862014910846586879245,-0.0402929441743413996324108,-0.00271231740680922270639308,-0.0245408390193871568663031,-0.00512938462047466368909365,-0.00170943214394555110385854,-0.00114811775065098270985631,-0.0704525122957914834431747,-0.997512804467194036384114,0.0504047737577749677129191,-0.0179467467038739968143712,9.85435218422582437369783,0.0218024630502311189683695,0.0129703834190042759794137,-0.00272023226289476059355787,-0.77080136877572436038264,3.3793029696012109042158,1.24110477915422157124681,1108.41102669249994505662,1093.4552798853953845537,1089.62025163665111904265,1121.88583594212241223431,-242.883862420223493927551,-331.60373642197134813614,-240.879132197489639111154,683.202988161883013162878,163.955612002524162562622
2.57500000000000017763568,-0.487018477738059063497644,-0.20473539226344236729993,0.0340082665214284304844305,-0.00418556894776877380648372,-0.0256399376491617571327541,-0.00669061398657100347975302,-0.00171713005507763329798854,-0.00111885528671100344284828,-0.070466739225636981780454,-0.997511806656138588778049,0.05314877940848991566547,-0.0183500336101620788176181,9.8544970753560452436659,0.0217764189675397450141059,0.01297272450920909474259,-0.00261314839450954529073701,-0.770753547582776588065201,3.37934451259080059770668,1.24109905535588693759053,1107.87895983500720831216,1092.61479454936556976463,1088.92597463163178872492,1123.37575737388920060766,-204.521652572206932063636,-339.802422898317615818087,-325.321254195257665742247,546.689774923027357544925,163.954135892914081296112
2.57750000000000012434498,-0.303162790345988086837536,-0.301364441625901924304287,0.150662788860582763650342,-0.00537252030928801662529315,-0.0269083144960902305442563,-0.0071588069077500775597156,-0.00172298910362994649528301,-0.00107487302608595268645086,-0.0704826055962191472259448,-0.997510713486796984916793,0.0562537120764606823897225,-0.0189843118131891863686889,9.85467729412834891888906,0.021757419720019564868263,0.012975885391921350778266,-0.00251202881020794925939765,-0.770705063273556811864751,3.37938506033960894825441,1.241095686818195931167,1107.38841842963893213891,1091.75626777090383257018,1087.99364536567486538843,1124.61928481673749047332,-202.087702374187529130722,-346.843007323157621613063,-442.889076831407123790996,458.442742578618663173984,163.952624783921748985449
2.58000000000000007105427,-0.100141535144107979293793,-0.343030902814662974620319,0.288779803456553518792305,-0.00595968233309601951724899,-0.0281823929328875663613552,-0.00597412750281730003248937,-0.00172180254768349093145996,-0.00101474965981092476660641,-0.0704953927156054399594254,-0.997509869903106083377509,0.0597278827715658419683642,-0.0199543558907753770803595,9.85492530213688233686753,0.0217451993825292753947931,0.0129798789898227552586096,-0.00241818914712246899739734,-0.770656112449123020802233,3.37942343397049382858199,1.24109509510786808483829,1106.86852132313629226701,1090.88057951274981860479,1086.711529247474800286,1125.66797108678224503819,-172.503771842597444674539,-276.518009131638336839387,-472.579944986328939648956,290.12022312013579039558,163.950770933235560278263
2.58250000000000001776357,0.0454841597871219679993793,-0.327630546787937404484836,0.363681179301268198145181,-0.0057398121376409485042136,-0.0288864454375211410219748,-0.00396659947012932903587235,-0.00171355333765641675361491,-0.000947128205074827009095351,-0.0705011699975106320703588,-0.997509540878277700670651,0.0633884002861380274618242,-0.0212454681294873062857853,9.8552708823641967939011,0.0217394517174563130235132,0.0129846123464970406718999,-0.00233202077547590763337282,-0.77060715050016992400117,3.37946033683806446035192,1.24109586547996686434203,1106.52589957042596324754,1090.37367772524567044456,1085.63074564074327099661,1126.06988593233813844563,-106.507726448401172092417,-148.423875874326284929339,-397.881187436413995328621,47.883723575615590561938,163.949192417121565767957
2.58499999999999996447286,0.158396591082406446027164,-0.275666544014511072369089,0.365136123776977683519362,-0.00523543440353601077785761,-0.0292841502988844190613626,-0.00176880621811718484123754,-0.00170139553738667061340284,-0.00088286590126224683775652,-0.0704991131160958572898778,-0.997509765091503686207375,0.0670128976546960214433213,-0.0227736352599385086237227,9.85574069053225443326482,0.0217398582647456220517945,0.0129895476058826380566513,-0.00225300306841673533483905,-0.770558084746926996722038,3.37949716381612841331616,1.24109601262728763693133,1106.33598269089429777523,1090.13846013337820295419,1084.7221233102927726577,1125.9073897046603178751,-40.9716722950642733280802,-54.9091206908099493944064,-305.450398012005450709694,-158.657083295023511482214,163.947579339182027524657
2.58749999999999991118216,0.241393638763704482252948,-0.202408539678064075539865,0.29792041809706765187471,-0.00458228687275082351842981,-0.0295839242241122402088394,0.000164111650602963282793642,-0.00168902052921999449447421,-0.00082954397561708242449241,-0.0704920748385576001471264,-0.997510326070423447575308,0.0704438670470891037389549,-0.0244446183245860225452528,9.85635735857708716878278,0.0217460781495759161718873,0.0129935689865566719042311,-0.00217982417752116477971391,-0.770509110697213617235946,3.37953458448269694613941,1.24109461840657986364533,1106.32104120895064625074,1090.09913212179162655957,1084.10349365068327642803,1125.27660051586303779914,45.0050978946374513611772,13.4596869716463665156425,-147.542455864553147648621,-349.497914155115893208858,163.945938024781810327113
2.58999999999999985789145,0.288308892859781784601125,-0.109848594978764313445652,0.157127557553822155833601,-0.00354252876309421550413137,-0.0298453389820176294422449,0.00148793385118688864521275,-0.00167862603380256113043412,-0.000789099956427006632257715,-0.0704846247124298191932823,-0.997510895806341779668003,0.0736323303487147196033646,-0.0261969263803623793329667,9.85713827033304390567992,0.0217576993276988872594302,0.0129951027910640108664619,-0.00211060009030423698095369,-0.770459945208639140901141,3.37957313554928839849367,1.24109130434647485508037,1106.56100818036748023587,1090.20575856823643334792,1083.98441103097002269351,1124.15990013388477564149,166.804293968005026727042,52.6506707219105862805009,82.8071342601505051561617,-565.62425190023350296542,163.944263373122339544352
2.59250000000000024868996,0.308729313344362599202952,0.018906536298890098263259,-0.0667688225959759823480155,-0.00216274036801853905553905,-0.0300023190732183545059719,0.0020590822284210171834451,-0.00167155077402455858569252,-0.000760115956873401920831923,-0.0704806731761011412418227,-0.997511199216942090473026,0.0765936270052138545860743,-0.0279859465272224161580539,9.85809423101663284683127,0.021774219820260010127555,0.0129923393567643024465452,-0.00204308779729689199075593,-0.770410303853502620441418,3.37961306313799791922747,1.24108596150836114624383,1107.15506267879072765936,1090.36238547540119725454,1084.51752932198405687814,1122.44847925636167929042,261.946509695172210285818,44.8439076609671900541798,302.802512274936361791333,-653.28015641207593944273,163.942216432530415204383
2.59500000000000019539925,0.306006313568852217343874,0.13820169704706589119958,-0.269074244085498570644432,-0.00124216269318601574625505,-0.0299061343141348023877413,0.00168233404885641930036344,-0.00166821245035223865438301,-0.000736331749544741494782618,-0.0704764175774670043050918,-0.99751151054662479111812,0.0794364444485238102577895,-0.0297870619339092174149286,9.85922854739742682284032,0.0217949326919249612710683,0.0129837161956392714567965,-0.00197507399623595564230882,-0.770359953753189219405328,3.37965413889192012319995,1.24107892120257079504597,1107.87074072884342967882,1090.42997810654128443275,1085.49842359234480682062,1120.89349935182417539181,315.053796075660443420929,2.25192952843831584175405,472.353526160451167470455,-603.451674656766158477694,163.940480573638467376441
2.59750000000000014210855,0.300072178274379042228759,0.265919314066418832620542,-0.448945423475766602905423,-0.000691167812476312592127881,-0.0294644616447544832604777,0.000597559503438161820736141,-0.0016698457438105592486044,-0.000711422702135483943190752,-0.0704696294177380166967595,-0.997511993089233217624212,0.0822711826272126967030118,-0.0315549378791050369463811,9.86053633067683854562802,0.0218193022759596705340002,0.0129676779311696955404587,-0.00190452337743524970081754,-0.770308473518508507460467,3.37969587585389197315067,1.24107174294620703491887,1108.73033165916899633885,1090.37364512304338859394,1086.87929695278626240906,1119.4312208830779127311,387.593975781882420506008,-54.9646601847610227764562,639.364365464066395361442,-577.127429179257433133898,163.938714997318726318554
2.60000000000000008881784,0.309390271781886661006666,0.422963577643659660587616,-0.596149698661858851167494,-0.000384259560709841860217523,-0.0284366873191801393383482,-0.00150094283568807940199008,-0.00167813720348231032973574,-0.000685883689089753227803581,-0.0704613097896863022073788,-0.997512575859195615990416,0.0850736835768379773270453,-0.0332215825379093623870297,9.8620043800669954237037,0.021847180345060158296322,0.0129427253530594293245981,-0.0018294404045399164249891,-0.770256077279491968567982,3.3797378277455201178725,1.24106560084561756696075,1109.80871060775280056987,1090.15515480561748518085,1088.69524541966507058532,1118.00786220592794961703,388.745611869316348929715,-100.545753350117919922013,641.027632715909021499101,-444.77940380025796685004,163.936564052605092456361
2.60250000000000003552714,0.341055720881113855202926,0.552557332261652489613368,-0.635384854222085349029214,-0.000290132635513447550805466,-0.0271663389009755319725148,-0.00394343804258949753166474,-0.00168757123325753016773731,-0.000660340836013499458967413,-0.0704499408009638949934583,-0.997513377205846984985271,0.0878057723344727314440661,-0.0348567691286830322328072,9.86361155452853211045294,0.0218787715061748537503927,0.0129077480880271534130488,-0.00174789748000927342395927,-0.770203641882364342663436,3.37977934158519000007459,1.2410610677061955087197,1110.6740597185155365878,1089.87091635629280972353,1090.08443511636573930446,1117.2073238640766703611,329.908882861361917093745,-125.568954872144729506545,472.917078735109555509553,-230.39331056261781327521,163.934746659863179729655
2.60499999999999998223643,0.400080676379114541507676,0.676880662086155382439756,-0.569066698437309836933196,-0.000148741351639462452772014,-0.0256218116743396687184919,-0.00694370222630837259647496,-0.0016930586555472821458368,-0.000635193353416977474733274,-0.0704351453937032689900377,-0.997514434971182528677502,0.0904325886201618606152763,-0.0365193575476168499904794,9.86532878903869381304048,0.0219147725503226580012761,0.0128618182685434657985812,-0.00165810640360495599975044,-0.770152377583110281378254,3.37981999760330120707863,1.2410584242737501270426,1111.45825502205957491242,1089.52731003125677489152,1091.05983081334056805645,1116.85589565311488513544,325.219673226554391476384,-152.195855445601011979306,286.161294022810295700765,-59.1993987096442566553378,163.932906349550989943964
2.60749999999999992894573,0.490507232425809625020463,0.817362072479336010388806,-0.372287758740086904829525,0.000371862884999347878631909,-0.0235851229128046235850036,-0.0103342001875004214223042,-0.00169769018806638230870143,-0.000620178302094557360943372,-0.0704181140260202870218009,-0.997515651001230185812574,0.0927448420993570166181996,-0.0380923860631407623644762,9.86711969332613136884902,0.0219562965021255045161563,0.0128040885350238654166732,-0.00155803152755776600467408,-0.770103329874573527824566,3.37986038475685512949553,1.24105572571997813113853,1112.3001580846482738707,1089.10993707906482086401,1091.51524158647976037173,1116.91132687052845540165,294.535322244298072291713,-144.186125018407778952678,31.7542456791677487615289,84.1769127704100981191004,163.930675792143119906541
2.60999999999999987565502,0.563745892519100566531165,0.925140831116404882550341,-0.137129072346212799171639,0.00132374336626945514165665,-0.0217669011202123313664103,-0.011938992920079658996424,-0.00170721412650579073590207,-0.00062091959153068331835057,-0.0704033069468550931624407,-0.997516693313256541664202,0.09461570059117514752689,-0.0394115729380262735936924,9.86894131149182030071643,0.0220045999164811267867492,0.0127337227696688939926339,-0.00144570754125983346252693,-0.770056245997630228750097,3.37990115297507287550616,1.24105127658122071920843,1112.93093163328103401,1088.80637940616475134448,1091.21860204173640340741,1117.27678021696692667319,238.77773053948865822349,-100.22478167688183248174,-252.44651027522309050255,188.973639634592444735972,163.928802231295662750199
2.61250000000000026645353,0.60514341767301460528472,1.01812872722260205904377,0.118161076924688787648243,0.00302644755083075929491532,-0.0197196231951897588130507,-0.011529036737132134296524,-0.00172371656860106307190827,-0.000634876215175320091597955,-0.0703922310567749315302066,-0.997517449835678804426209,0.0960721351980665799752401,-0.0403963928452509141164839,9.87074495698126952447637,0.0220606060782466452396822,0.012650261197917836084037,-0.00131938839547221108301767,-0.770009876775079593613782,3.37994272115153382429753,1.24104487300577992492379,1113.49404673734579773736,1088.60881317068037787976,1090.25300903510355965409,1117.85619506870148143207,210.832557803800540341399,-52.108031320127459196101,-472.581154021977397405863,250.561773347391323341071,163.926918486651771900142
2.61500000000000021316282,0.597591868351731503317126,1.09174302808433121292353,0.345539116454346928453134,0.00537257567001183169996814,-0.0172473472517128238734596,-0.00968205570996630293656438,-0.00174430096007276960907995,-0.000656267136804127579688406,-0.0703874450380043842345756,-0.997517746744367328481928,0.0971965774947735894340184,-0.0410708243871958506021613,9.87247746669057235635591,0.0221248282706294693844562,0.0125535853516291016213069,-0.00117761558913023018854704,-0.769962925232097528116526,3.3799855247753174403158,1.2410368269426750309492,1113.98509442230010790809,1088.54583924956409646256,1088.85569627162635697459,1118.52958908370396784449,169.390833484161674959978,18.0163252170136019003621,-612.841187457265164084674,276.22413702147832736955,163.925030661572463941411
2.61750000000000015987212,0.513035448488262546540284,1.13124165269138932110593,0.498195264530212900133677,0.00813840175712227456572556,-0.0140662876627558226794168,-0.00711259628426932476868982,-0.00176452344286516776133977,-0.000680806036414232360921839,-0.0703912326604557714304633,-0.997517433687848842360779,0.0980390622682259238462876,-0.0414906203895032757444916,9.8740828210291411437538,0.0221973313182279967381572,0.0124441414089810457876961,-0.00101944494950833805003987,-0.769914651706679609155515,3.38002910395811273502886,1.24102744259615538346964,1114.34100090476658806438,1088.6988947967654439708,1087.1888030978172992036,1119.23731575380884351034,109.187340565770284683822,127.56970290402294665455,-715.653958224553889522213,304.438676521164893529203,163.923143841306540480218
2.62000000000000010658141,0.32287142929879375508051,1.13078183350750505198334,0.570225742095608723047917,0.0109198825173805729588095,-0.0098775967153684890442733,-0.00412989922509788328491842,-0.00178091449860373640147471,-0.000701779089103798047431793,-0.0704001470765625303460666,-0.997516765181717723898203,0.0986987882070660405009477,-0.0417003468273619698480914,9.87550378531191341835438,0.0222777110289444531254777,0.0123233295649338402133477,-0.000844958098900645956583211,-0.769865258119965090166659,3.38007228866255582389044,1.24101836212372651502278,1114.5310311251289476786,1089.18368776408419762447,1085.27742648050366369716,1120.05178246630975991138,20.4036007292420222825058,230.849887835352461706862,-627.073750147123746501165,284.615638424663018213323,163.920889251560879529279
2.62250000000000005329071,0.110138814954091002196179,1.09373193126497714189327,0.538741388483455985181081,0.0121136257832561433644969,-0.00673697040988151946150353,-0.00194484380580445086195152,-0.00179032407622887763248842,-0.000712319357443997247178458,-0.0704118538632065166238405,-0.99751591825088559151169,0.0992789828465627244291625,-0.0417448932705893963057697,9.876683935218329324357,0.0223654272689897196113584,0.0121932402755130092630864,-0.000655272376779820597131332,-0.769815102912358217857047,3.38011389360838920836727,1.24101135708419874070785,1114.44301890841279600863,1089.85314423594218169455,1084.05343434708174754633,1120.66039394593212819018,-89.2913309120122846707091,319.032800701377254881663,-357.719903797722849958518,221.587965483063442206912,163.919024986030649415625
2.625,-0.119111916282875623940285,1.0331839988458875190247,0.430684565487150394780258,0.0118730882142688010105758,-0.0043564126637816915493806,-0.00030030182087932132811714,-0.00179251298440027723342383,-0.000712069320501693397290621,-0.0704213779888494956216149,-0.997515246514761755314282,0.0997600243734758501679138,-0.0416102907808347174944963,9.87756982746194367450698,0.0224598141912531606978476,0.0120567044715087969691814,-0.000452221929000793223044075,-0.769764413488310372812862,3.38015356083545537302371,1.2410069352223387362244,1114.08457447056889577652,1090.77885176759104979283,1083.48882696151508753246,1121.1597222937250535324,-208.209018600887134198274,451.164497727732452858618,-68.4992014972991540844305,190.589400898310913134992,163.917183993338397840489
2.62749999999999994670929,-0.362552500810611022519225,0.953786028010183528635935,0.248073742830786592161729,0.0101423277381834757437939,-0.00211775145501238212103479,0.000929429265901425289558846,-0.00178638597182348684427877,-0.000705920905870448278131291,-0.0704255811086130362186353,-0.99751497155612212086595,0.100019614245212468128798,-0.0413010045560580421608599,9.87811284638208420005867,0.0225602080535174873143767,0.0119168878575506200639955,-0.000238036168284487835216864,-0.769713615205323664625325,3.38019165433888657545936,1.24100479170275246332267,1113.40197381540838250658,1092.10896672458079592616,1083.71093833959525909449,1121.61334095042366243433,-273.628370048305839645764,505.089461695853799483302,220.655535376913718437208,143.103051391429602290373,163.915011573075503292785
2.62999999999999989341859,-0.509494599616269194797269,0.892359408579106117009871,0.0826526174371923355588265,0.00768080538477108800549109,-0.000563856795464213653677754,0.00128121898327093297446921,-0.00177165448970200019827848,-0.000694790654739159841551954,-0.0704235022048684544682118,-0.99751516099328829678683,0.10001766702759758154162,-0.0408208502719096186228676,9.87827040622676477710229,0.0226659143949424941866244,0.0117770550724249026958157,-1.54818602618319740827323e-05,-0.769663046375671622278958,3.38022833627216501284352,1.24100520396490332508677,1112.71643262032739585266,1093.30429907607026507321,1084.59210463839963267674,1121.87523755068218633824,-268.246491113910735748505,464.41030711595055890939,451.019982932812638409814,84.850036890977193593244,163.913239332728352337654
2.63249999999999984012788,-0.582376321983325118125663,0.838543264973014013108354,-0.0586294172832416138341216,0.00498915032263566333298188,0.000952176380972474703349995,0.000790213063071334401339663,-0.00175027158868183122138185,-0.000686818471677457247255572,-0.070416363132437792549112,-0.997515715824008109002818,0.0995784862681640403625494,-0.040129606624050767615941,9.87800766067818436511061,0.0227761251129474685817033,0.0116403947258623564203761,0.000212867238840882096661752,-0.769613187153703970366792,3.38026381107820794724717,1.24100674625679441298587,1112.06074135983885753376,1094.43101826016049926693,1085.96603825425927425385,1122.03759113487853937841,-245.006262754606552789483,435.683852802110493485088,640.779876202761897729943,52.8083904065588995990765,163.911515887026439486363
2.63500000000000023092639,-0.595119051261882581194129,0.773449508378660777196956,-0.162456763455372021898171,0.002431825666744549634124,0.00313730737832722652094763,-0.000690144259137357796510259,-0.00172681322640950768096402,-0.00068690723269191256063898,-0.0704069515998893974417783,-0.997516424103206289508705,0.098598369299684462951916,-0.0391501320905250638215733,9.87729804342601092059795,0.0228897588311626140611388,0.0115099194540878788095561,0.000444347704199572236805071,-0.76956384305181302352139,3.38029873766599386897269,1.24100769956019174600215,1111.49140130655428038153,1095.48271834008096448088,1087.79600401941365817038,1122.13927950271499867085,-151.499639401152990103583,303.229243599278106557904,643.841170862699300414533,22.9485352009290153318943,163.909515304664836321535
2.63750000000000017763568,-0.566125028678907682433419,0.707499310946855364257146,-0.177018013975760196698772,0.00106868999991314886192917,0.00543663590433112950406347,-0.00223263347104346804652963,-0.00170708860724664733196643,-0.000695373488007910663978584,-0.0703964602915806286764777,-0.997517189543366211701425,0.0970712153432332081059997,-0.0377972284850179168769202,9.87612392876048339473982,0.0230052543367375329774749,0.0113885403694843709981877,0.000676155228359430005360964,-0.769514271152136886122719,3.380333147004191296503,1.24100814518710289569015,1111.30324316283304142416,1095.94716447815699211787,1089.18524410857298789779,1122.15233381088319219998,-4.73378955675808477110422,69.3112921191201394321979,474.587311726519260446366,-9.74742796274788680932488,163.907912861442838448056
2.64000000000000012434498,-0.528712684324526449586301,0.619608502218135237527008,-0.113883031927712707886968,0.000391463550834502023445527,0.00802815455904271578491116,-0.00341108746982348408349761,-0.00169630806992892408345541,-0.000709835730310770106517293,-0.0703855394875148449029822,-0.997517959714090407530307,0.0950494995538877507357256,-0.0360105976917086539890178,9.87447722658426485509153,0.0231205345125042177611974,0.0112789810189670731271905,0.000905331200144046297460798,-0.76946349761880306061812,3.38036705499725886880924,1.24100912250294470595691,1111.46773235877049046394,1095.82927480067655778839,1090.16894057804620388197,1122.09054236290126027598,119.83797232415128064531,-155.423248522450791142546,304.743014918137419044797,-36.4888917909873740086368,163.906387916993338649263
2.64250000000000007105427,-0.50511949876641748513606,0.515579606564776082855417,0.00339885226726057343080156,7.12940559811298731496959e-05,0.0103196478833167838012885,-0.00391847045172102111804113,-0.00169551326014129245985107,-0.000726218906699145389134487,-0.0703755612012026271484544,-0.997518641344433687478954,0.0926201008790442786855479,-0.0338228926681112262997431,9.87235980579106175980542,0.023233093199904818193513,0.0111836680109240072661381,0.00112881036660415854516737,-0.76941084350680333248107,3.38040094751492503633017,1.2410110751240157611619,1111.90243302445378503762,1095.17004823554475478886,1090.70895918316364259226,1121.9698893519282592024,220.339715190407474665335,-388.440142538646909997624,105.732181155283328166661,-58.3223884438224260406969,163.904934867200950066035
2.64500000000000001776357,-0.511690668719076757753328,0.409184278950240343242228,0.164510826913375096669512,-0.000128887900893479717418649,0.0117743091449940828763232,-0.00379929448170022521572009,-0.00169698549171539629469574,-0.00074062231580076707225524,-0.0703665476609420109666004,-0.997519250594207651516854,0.0898615474428373500748179,-0.0314461185409719359840075,9.86978382316847557831352,0.0233401178030142736341546,0.011104768162053493124608,0.00134363987762994548449957,-0.769356445267110888863726,3.38043417765907916461288,1.24101473769115289158549,1112.56943093472250438936,1093.8870740879833647341,1090.69760148382260922517,1121.79893042068215436302,313.69337187043799985986,-672.652306815067049683421,-114.667847170724314764811,-75.5187328195022615773269,163.90357705984953895495
