t,ang acc x,ang acc y,ang acc z,ang vel x,ang vel y,ang vel z,quat x,quat y,quat z,quat w,acc x,acc y,acc z,vel x,vel y,vel z,pos x,pos y,pos z,mot 1,mot 2,mot 3,mot 4,dmot 1,dmot 2,dmot 3,dmot 4,vbat
4.01250000000000017763568,-0.511978775650963835452956,-0.647863102048171435320967,-0.0299323351047550249848239,0.0165663874728951381054554,0.0249075157911403215205137,-0.00744916518434627760586464,0.00213845673813236681129468,-0.00216162694015918166803858,0.0141657274819583563901793,0.999894878047950186328308,-0.00547900881062340222582563,0.0441362129074920270244142,9.79704584404485245840988,-0.012605951438055588986753,-0.0127225552507455857281782,-0.00203781190400366364265383,-1.16753909504095010341018,0.234504099970690577103838,1.14410347847047644265217,1098.72127037789323367178,1122.47343487808598183619,1109.29852031247378363332,1111.04083167204248638882,-148.580983992772843294006,217.475439894638014948214,-562.685253666689504825626,157.817471038746305111999,154.322824074852775311228
4.01499999999999968025577,-0.755975314785650054361099,-0.853213045512752898957842,0.177166598013960840951597,0.0152985518603115811658855,0.0239097535311840886373957,-0.00643368981326960642092017,0.00216661886877921342972608,-0.00213066324521930762145305,0.0141527002910853422906756,0.999895080178498707468293,-0.00469450312805602676391459,0.0472770329622396595636857,9.79656677180145329941752,-0.0126128826647887298806339,-0.0128137244109642490369483,-0.00204444569380825020427084,-1.16757279469396380022772,0.234472739145817121730886,1.14410065384193493365217,1098.18966182128701802867,1122.90284682670562688145,1107.66619358905359149503,1111.49856788764782322687,-295.047416856375036786631,125.174484555875949354231,-788.76946754359642000054,196.394018271398266506367,154.32084631207504799022
4.01750000000000007105427,-1.01199203565000228621784,-1.17630512902904271754778,0.419525915735262655559268,0.0121517227519193707352407,0.0214388981003238755784768,-0.00449755396383415967376251,0.0021891074372363916560047,-0.00210924142705363505678751,0.0141430690847708651070036,0.999895226498704103867965,-0.00364612914325941617210702,0.0504295134746132744929525,9.7961217940243887625229,-0.0126088322894077689562131,-0.0128972383468329079847514,-0.00206076182057865443450484,-1.16760703634930562699878,0.234441494746415513006355,1.14409873343505186227276,1097.24603329361139003595,1123.09930730086534822476,1105.35467297475588566158,1112.02280176339945683139,-376.857990978883435673197,7.76762420473338810467112,-874.88377274062224842055,166.912401900637007656769,154.318569124893656407949
4.02000000000000046185278,-1.16996018975918247839729,-1.47468120194657248411829,0.612112029505974430954041,0.00858898050984839046828601,0.0183412502870610588656675,-0.00294535246313551738947534,0.00220274834334846037267597,-0.00210155719180465504897226,0.0141384955253395522972726,0.999895290450090623579626,-0.00228497289887487353698958,0.0535030705345221069269002,9.7957399558622721968959,-0.0125928308723292220472345,-0.0129724945788610435126742,-0.00208776458603699473920434,-1.167641657724988846212,0.234409873768003512717328,1.1440980291506530619472,1096.30537186639230640139,1122.94168494772929989267,1103.2917747253497964266,1112.3331298971511387208,-374.261310230584740565973,-144.615988563376390629855,-812.12502913564912887523,82.6066554006064848181268,154.316758397636704103206
4.02249999999999996447286,-1.25344052679851003517797,-1.75861062758804931327461,0.800507862023289162856088,0.00485798398343566511375924,0.0140699861541048899110651,-0.00163494137051773606554572,0.00220492965859961712049575,-0.0021071380128266656642233,0.0141394592585547158869463,0.999895270295892202305765,-0.000654460176871402010689849,0.0564177096556476298516714,9.79545269595022105590942,-0.0125644505197836150317547,-0.0130386596673058956230573,-0.00212592499900318828917611,-1.16767652207951577736367,0.234377105043978156695417,1.14409766288275727141865,1095.37472674245850612351,1122.37622735804848161933,1101.2940478290777264192,1112.43583504040248044475,-341.091369459270936204121,-303.093931415112024296832,-756.95945055742208751326,4.5171647836014976462593,154.315045502473793703757
4.02500000000000035527137,-1.27382532284799787625218,-1.99900022925602205425832,0.989753227778151001281515,0.00117284554260139095224758,0.00891825924295159590260429,-0.000334783419678175630726513,0.00219623406548625187129087,-0.00212338567594390651913083,0.0141454727900597997808374,0.99989517582538001150283,0.00116149022414891583965257,0.0591551181083678975780593,9.79529193578224877114735,-0.012523873313943716112373,-0.0130947621501613688244081,-0.00217493149886133609396954,-1.16771116785139250637826,0.23434273070373706771008,1.14409657386450591687321,1094.59991501909598810016,1121.42621529065377217194,1099.50697747256276670669,1112.35571572106914572942,-237.586687146772931100713,-476.479880854241116594494,-629.52216751342780298728,-68.6177111667817456464036,154.313419018500695756302
4.02749999999999985789145,-1.22794360521377932116138,-2.15671854955960551336602,1.17586665111918753368059,-0.002413240471672217866278,0.00322624994093927966107294,0.00138973689711079789743664,0.00217579995220943626238475,-0.00214729192712932292347316,0.0141564834292822842864989,0.999895015728636038510047,0.00307212070044220880715713,0.0616675803811301131984735,9.79528850818465102179289,-0.0124719485153821103146088,-0.0131398185166556758646239,-0.00223377750276428912665216,-1.16774513519024636387655,0.234306616345505924758896,1.14409423182812597374891,1094.18679330672466676333,1119.99382795377732691122,1098.1464369915106544795,1112.09274648456857903511,-62.509389203843483073797,-729.518369515532981495198,-465.861346150369115548528,-141.264632412551975448878,154.31190265327433053244
4.03000000000000024868996,-1.12106521881755427649807,-2.22505057857730781378791,1.37308627184480158689439,-0.00616134276040687829667508,-0.00382021464400461065180625,0.00453431138445407281439836,0.00214508280335120975201857,-0.00217559302682259489772343,0.0141717785077150205258478,0.999894804384550694997813,0.00498515992438626487359699,0.0639521710569845025506908,9.79547044060455540659405,-0.0124101119016082842710924,-0.0131731042003905944592912,-0.00230078415759062560735915,-1.16777757262895365286681,0.234269474769886326681601,1.14409009775608661030333,1094.28736807307677736389,1117.77862344307618513994,1097.17767074181097086694,1111.64939255900640091568,150.579191202044540887073,-870.253393665798625988828,-231.146106744022659995608,-171.261036037189114722423,154.310217316903731443745
4.03249999999999975131004,-1.01329210022480831199232,-2.1718886909683989827613,1.48965484507444334560944,-0.00851517329804119676994745,-0.00982397004028613164694494,0.00828157915419068871298869,0.00211053232904049757265308,-0.00220771522659567089735821,0.0141903005418413403343481,0.999894544281248798256456,0.00686635848913871860155211,0.0661029825437920298680794,9.79586102005090708644275,-0.0123402692488059195080607,-0.0131943510310583694139508,-0.0023736620243440505542698,-1.16780859775555345692055,0.234232148388400618355121,1.14408426166527488199165,1094.9396892627348734095,1115.64256098544842643605,1096.9907064577905657643,1111.23644130438265165139,377.643529559380908722233,-867.57352894507710061589,53.1623392605990758852386,-162.838822366260330909427,154.308929266883893660633
4.03500000000000014210855,-0.915952078294958171866824,-2.00443972553094384991823,1.52458517902347945316421,-0.0101449559167447207058688,-0.0155598344431028060008693,0.0128788237461727895355468,0.0020770835097996343324156,-0.00224366142148870470821032,0.0142111143327799151203639,0.999894238543919566808427,0.00869717048106139617447141,0.0681848935124555882714148,9.79647819445605527732823,-0.0122646183851516012847105,-0.0132037965667689584370326,-0.00244997410497093054751461,-1.16783892012759027423385,0.234195323326263804553093,1.14407702020201984538517,1096.17558572087364154868,1113.44075579835089229164,1097.44348243811396059755,1110.83519844717511659837,653.119723242812369790045,-917.05995803665382481995,325.738351075422201574838,-166.927552292285241719583,154.307766476124754717603
4.03749999999999964472863,-0.836281277181165627609971,-1.68689533837843930186295,1.44873368835691507250374,-0.0117006021096510617190978,-0.0214582442356276888173472,0.0183760116523057834281296,0.00204448195501657874195711,-0.00228609913426297854319169,0.0142336054455124826761958,0.99989388979915161392853,0.0105152480283126209537059,0.0701617158296759524382935,9.79733372257163281915382,-0.0121855250630600875361154,-0.0132021404258847001311761,-0.00252738440558306076688666,-1.16786840295503924203047,0.234159190894937113691654,1.14406974827114948922713,1098.20528787894886590948,1111.05726119526525508263,1098.61939821316764209769,1110.40180354292124320637,803.487082027794599525805,-784.139051951040869425924,511.641500812458616564982,-149.602971011112003907328,154.306519934342475153244
4.04000000000000003552714,-0.808531785457140439454804,-1.34499202631274994423904,1.2844049111203055257846,-0.0130260947550201507810774,-0.0253186768375869425407032,0.0224533633758898509835689,0.0020120834672202854778722,-0.00233241902728690544618906,0.0142569624255009554103513,0.99989351529453907030387,0.0122604670709883373236337,0.0719931594833985583070657,9.79843327135355401935612,-0.0121053647691022770588321,-0.0131904952914657525725461,-0.00260380701550711824224238,-1.16789680896875935900425,0.234123737673677778658998,1.14406257982402226325291,1100.19302113101252871274,1109.52006053859577150433,1100.00168994217619911069,1110.08718359211957249499,809.925837018691481716814,-482.521347488515914392337,603.551136961820020587766,-118.324596070105741318912,154.305607308622711570933
4.04250000000000042632564,-0.817727326197854487155325,-0.951994798819386756072447,1.0266348943169345542259,-0.0145682482691415308984073,-0.0278633831933051238916033,0.0256947037318200482980401,0.00198032004018290673855174,-0.0023774803806607593820166,0.0142818012250206897995053,0.999893116265493153704824,0.0138291178070555909052075,0.0736632724933370675035604,9.79977566823630397152556,-0.0120264549082236046201322,-0.0131702551015677616491617,-0.00267728963824237237850712,-1.16792399135803615095597,0.234088947079533427064746,1.14405482664395052871953,1102.25491706404295655375,1108.64465445782229835459,1101.637153897977214001,1109.81018056257062198711,801.995777350583693987573,-231.378264837308449841657,674.312115737817066474236,-108.699637841530190485173,154.304827303369648916487
4.04499999999999992894573,-0.848289592222499888585219,-0.538652971099248034647644,0.708265917543895340280358,-0.0164754538302636505120446,-0.0292913244583575815838117,0.0280213197292478316535735,0.00195029414596078554469671,-0.00241832621343139554312418,0.0143085361209037038865421,0.99989269160812632719626,0.0151657850780209657592934,0.0751717869034827790297726,9.80135218052888212980633,-0.0119508906888513150024167,-0.0131430341086597162608696,-0.00274592647712056841038941,-1.16795012984781854115113,0.234055065804573053656057,1.14404618967530757878137,1104.20300001776536191755,1108.36316921440925398201,1103.37325052086521282035,1109.54368540291193312441,717.101280045396151763271,14.107198103966156921274,698.813255484234446157643,-111.569339639847939338324,154.304157854909618663442
4.04750000000000031974423,-0.889689243985623878785418,-0.122916548070372139145334,0.342581936103553252870313,-0.0187607662166065398967607,-0.0295947682595729261167961,0.0292257526846789288110795,0.00192166667267923028591947,-0.00245499933902236988289558,0.0143371564366866367096209,0.999892243096313082517668,0.016278136387245678573521,0.0764928242860956481008472,9.80314661655619623559232,-0.0118804017258541411844464,-0.0131105462019613545898711,-0.00280797650947292977766101,-1.16797546104562832702811,0.234022391430278087209871,1.14403663254373033630884,1105.84042346426986114238,1108.71519044834212763817,1105.13122017539831176691,1109.25233386437139415648,620.261299234939087909879,253.66241917004657580037,760.998601464932903581939,-144.380964688665130779555,154.303621617848733649225
4.04999999999999982236432,-0.934240091875648492880657,0.358667849959507623047728,-0.11621559356246043137606,-0.0217345601664085674720184,-0.0290650105457133343944687,0.0295300297261489458344741,0.00189118524204774391545003,-0.00248792257697415817099817,0.0143675791952907923321181,0.999891778810340525751599,0.0171843345661135404878195,0.0775468438991194358722581,9.80513607732912007008963,-0.0118162312643185392346812,-0.0130744437947108160802401,-0.00286206925767977168884038,-1.16800027510186743562315,0.233990618298803826347054,1.14402675181689783556749,1107.30430651393999141874,1109.63148131025945986039,1107.17824352818979605217,1108.82178057946862281824,445.610514090285903421318,375.251388534896989312983,732.37041163321657677443,-176.79277106817986009446,154.303130976604904844862
4.05250000000000021316282,-0.957747702479258555818831,0.735273813788412167191666,-0.490163376984369236755157,-0.0243250142743190907179685,-0.0280266578888409591263642,0.0288046138216734026737953,0.0018588593968425644840925,-0.00251600496532009389530349,0.0143973107988157895259507,0.999891338087397829603731,0.0178764894582312677817626,0.0783223886736167107525119,9.80729113905853111532451,-0.0117589856616019533541717,-0.0130362658172213374818682,-0.00290714726643890837912143,-1.16802485960929858244128,0.233959508780977404329704,1.14401740913996841086941,1108.06847603472124319524,1110.59144739101657251013,1108.7930722335643167753,1108.36837000903051375644,215.067462118081522248758,377.433972352772684644151,623.744248781180999685603,-201.237621151044294265375,154.302847895149653822955
4.05499999999999971578291,-0.961247736074389846905319,1.07332379906640440481169,-0.826126920013216636817788,-0.0267953809875488904723717,-0.0261191455847585400629196,0.0269964599163911092571944,0.00182384708103973153421606,-0.00254063367406012286311978,0.0144257245818993334179892,0.999890928390304800643662,0.0183968603621424281469032,0.0787937430795377646841615,9.80957620186530832029348,-0.0117087370035439102683439,-0.012997211493566238060815,-0.0029424402778224509683036,-1.16804978844313223085294,0.233928350891855763027394,1.14400962693747376697218,1108.37964382453037615051,1111.51865117202328292478,1110.2969647720956345438,1107.8155924737134228053,47.0393608566620073929698,361.880010866624161280924,640.344568943251033488195,-256.349034283226501429453,154.302692617637291050414
4.05750000000000010658141,-0.940763636889009990937893,1.41381960043991439235356,-1.15395419338030635891812,-0.0294010837166639067696838,-0.0225825026160258388041591,0.0237220171126562434649188,0.001787046879817312137681,-0.00256351498527829105636422,0.0144494052780239998906575,0.999890593513629410971078,0.0187949189715102410458414,0.0789724888029317284576791,9.8119501996078692940273,-0.0116649191555049623614249,-0.0129582317702987403346127,-0.0029672790991848259009589,-1.16807533473188507322504,0.233896879042991945318875,1.14400330458876076100694,1108.30367283900454822287,1112.400847445349654663,1111.99479507828050373064,1107.08662483761440853414,-89.8052180565942421708314,271.059300632308293188544,612.200108638848860209691,-265.217969988866059338761,154.30264974236985153766
4.06000000000000049737992,-0.902356515228939670691943,1.62573531837242701847401,-1.34528208156536521755697,-0.0313733532974043924368424,-0.0185891935567370596149583,0.0203197599126111703993214,0.00175243160119547105105231,-0.00258590628111779029935091,0.0144667418247366799666231,0.999890346479608838059505,0.0191118457845422529128854,0.0789331458774009675494199,9.81436729933855467322701,-0.0116265311555390285502831,-0.0129199604697521116397629,-0.00298085862243962270573538,-1.16810161074490226340572,0.233865167907196580543427,1.14399717709990778047313,1107.93061773424733473803,1112.87394767518503613246,1113.35796531529035746644,1106.48950262376888531435,-199.341123162916744604445,135.120534796718089864953,544.697459766178099016543,-217.442568962455965220215,154.30272970253540165686
4.0625,-0.837836714935187298891606,1.74497730825985741809347,-1.43543348066911757854314,-0.0333629574410979068410654,-0.0135932315710243657030931,0.0163498859132135306027056,0.00171966801807254361308952,-0.00260684825305930716748959,0.0144783637668979073276354,0.999890180171930320618401,0.0193428423025656937017658,0.0786684345703472648336785,9.816778607703813719354,-0.0115922599736498072031665,-0.0128827134949906132316277,-0.00298233937163060137606752,-1.16812891148905384497425,0.233833103885915938313644,1.14399058460620017818599,1107.30696722318998581613,1113.07645011933323075937,1114.71828237711133624543,1105.99941199280215187173,-281.376446674727617391909,47.5255064081021529887039,548.144080597433344337333,-163.775094566475530655225,154.302924283013169315382
4.0650000000000003907985,-0.746454300279764448866615,1.78167559850767243112557,-1.43601482004332403619173,-0.0354563672444961827667775,-0.00815265473927828838995868,0.0119781766502859900874745,0.00169094327404667064615462,-0.00262305608187198176228794,0.0144853762481620910312907,0.9998900818412855828754,0.019436063012592985632665,0.0782230575859254595449954,9.8191324725711091048197,-0.0115605820436936578693432,-0.0128466243173615338180049,-0.00297067902038832985442407,-1.16815694662941771397868,0.233801047594922761785341,1.1439827262535282592637,1106.52373550087372677808,1113.11157520722554181702,1116.0986857182774656394,1105.67062715093652514042,-338.177882713132873959694,-3.83880837412115383244782,553.004334001901042938698,-78.155682147509494939186,154.303209192743764788247
4.06749999999999989341859,-0.617238729915117634305943,1.72824825890131794636773,-1.33363031204758608616601,-0.0378163352404087063640681,-0.00323702150740418472321669,0.00762934569148931637783129,0.00166532032933013030527591,-0.00263087859566033411412578,0.0144900121322807887841444,0.999890029342119901478725,0.0193289923674121316699015,0.0775819822173409584520343,9.82137574409062352742694,-0.011529936040715933406875,-0.0128116345197240976555575,-0.00294486875059792041486872,-1.16818534427092113325841,0.233768733551215079913277,1.14397293736467653424427,1105.61607780962435754191,1113.05725607746262539877,1117.48330404712078234297,1105.60863358206461271038,-404.426618217266423016554,-14.9221973681054347338204,588.601933333860642960644,45.6960325885584737193312,154.303596537549537970335
4.07000000000000028421709,-0.421290943313822219273845,1.59037339262621402191655,-1.11757229105731203944174,-0.0407272878709279209652472,0.0013039268762644233914938,0.00344400268318205502598994,0.00163903946788457777379577,-0.00262756447583926923058928,0.0144935344468859299282837,0.999890018239038003144969,0.0189730672054552462757471,0.076675918344818211336289,9.82345476470656642220547,-0.0114987842381025166110797,-0.0127775853832112172570046,-0.00290414243306583467682525,-1.1682143018292214797782,0.233735799508684616299092,1.14396095373833706076994,1104.501602409787437864,1113.03696422038501623319,1119.04169538494670632645,1105.8991073138793126418,-391.475300706642144632497,14.5679920534351747818391,527.725481671552529405744,168.008061044250950999412,154.304170508194147259928
4.07249999999999978683718,-0.23987789357935274114908,1.43962791316002447494782,-0.889854439351554948878231,-0.0423836990878044619912579,0.00421083411560632149550631,0.00113711862532634550536359,0.00160807418850251906787541,-0.00261497954346861420996118,0.0144960005022383743578107,0.999890050357892024024409,0.018407506309820603762617,0.0754303506047900029773956,9.8253160085694712932991,-0.0114657212964171858343709,-0.0127443178953398576075395,-0.00284813257403989999669291,-1.1682438038803939495125,0.233702123624176888450066,1.14394804959031559654647,1103.65870130609118859866,1113.13009603772979971836,1120.12193145547848871502,1106.4486738872858495597,-293.325562472415981574159,63.1987728781964364088708,349.923980594674674193811,272.954165436209564177261,154.304732900430963127292
4.07500000000000017763568,-0.0759218525906073388176409,1.27393387095624133209526,-0.651777697794016397381256,-0.0423437696974530361493372,0.00672185599794667115042257,-7.67667337979409251155077e-05,0.00156860173948761695388032,-0.00259406320420084131675442,0.0144980837619456091880377,0.999890121661368813654747,0.0176509753950336023553547,0.0737762299356878453737707,9.82690839334625643175514,-0.0114295885351927660467108,-0.0127117496622860728233695,-0.0027772228280362231192524,-1.16827391474703734530749,0.233667603371163296044344,1.14393549782348968868462,1103.03497459742538922001,1113.35295808477599166508,1120.79131528792004246498,1107.26387814106033147254,-197.525612308667973593401,102.907861332962426104132,175.893554053758748523251,352.74473870895985783136,154.305375041073290276472
4.07749999999999968025577,0.0427363206230946604535781,1.10303963642072044848419,-0.429959938683313946938824,-0.0409256070473914684848538,0.00930229248507899973696933,-0.000637542004698645500652965,0.00152252564876849275435355,-0.00256808699786465356035281,0.0145000823228744850357241,0.999890218322958546082191,0.0167676321664024935431669,0.0717578351542962344922216,9.8281840653321825840294,-0.0113895663433011204435097,-0.0126800543544751780078439,-0.00269240593183577361924286,-1.16830409870115481396624,0.233632753224552125459468,1.14392401954096945004835,1102.67107324454786976275,1113.64463534439460090653,1121.0013992257472636993,1108.2123975808306113322,-73.1961099557354089029104,117.380814397668245874229,-42.0431958840263035881435,380.95406938342324565383,154.306078337281974199868
4.08000000000000007105427,0.0838198614323487078969777,0.926851152278867385092553,-0.247250083858850777662752,-0.0388248153214813471190148,0.0120529766892650165577283,-0.000720154381947575540287576,0.00147278868087888045214362,-0.00254392937112478834810192,0.0145015833952625086689103,0.999890325004458513369343,0.01589152080443648196173,0.0694405993762338413777258,9.82910035879209154074942,-0.0113452361816611269756949,-0.012649734946290448062145,-0.00259530731557306229562165,-1.16833421619826682835708,0.233598013414984345681447,1.14391391619897464515532,1102.66899404764671999146,1113.9398621567643203889,1120.58109930849991542345,1109.16864848797740705777,80.3657814374093391052156,111.613275003201863455615,-328.058285165064830835036,378.337329045084516110364,154.306850142676637460681
4.08250000000000046185278,0.0480899111005910762095539,0.711791034474126727005228,-0.0838796946452039088315544,-0.0372336274353330734521172,0.0150115263361236973144175,-0.000572469761558118146044238,0.0014213072398135452329565,-0.0025196104528248308360161,0.0145032706599670536268265,0.999890431222660414078973,0.0149817959367980479967741,0.0668741495156686821532688,9.82962323709645602320961,-0.0112965853112525875523442,-0.0126216010663987941026187,-0.00248838046732585433523655,-1.16836455088107493693883,0.233563817393639405750605,1.14390431699611094806812,1103.07290215173497927026,1114.20270171941069747845,1119.36110779992168318131,1110.10408422605632949853,202.644155863667720041121,73.8001904424906882695723,-548.521306856548903851944,279.681663121215535738884,154.30784974065176129443
4.08499999999999996447286,-0.027005609549903830668427,0.537444190200311422422885,0.0066431617055567283511297,-0.0373342896717155856012305,0.0166464970279679956577379,-0.000386361231503564578337873,0.00136905043589373486348504,-0.00249264453373562950080911,0.0145049074470712090895175,0.999890543652646401895367,0.0139875963943160847025027,0.0640918698913230666658336,9.82972746429399002465743,-0.0112440312862996470016919,-0.012596772139389908473639,-0.0023746119728908759299868,-1.16839496921668573037323,0.233530764992512712696637,1.14389520898503760371057,1103.68221482696503699117,1114.30886310897676594323,1117.83849277421722945292,1110.56705680358345489367,272.186081102933144393319,22.0590687903045505890987,-676.685418783577802059881,101.280705915680641737708,154.308740433829171934121
4.08750000000000035527137,-0.110088858505685574518118,0.382943357736682532532768,0.0576782050086715805670146,-0.0386723996764823732541494,0.0172365090131587905819543,-0.000224549569595233766434311,0.00131531294087099972188459,-0.00246295851701874976211193,0.0145062647013988899741266,0.999890667328713900197101,0.0129060597553658368275009,0.061095853086068171999834,9.82939733846434826602945,-0.0111884871566115019769772,-0.0125765354624052839993542,-0.00225742407663635227463295,-1.16842493777726241788173,0.233498981664066296293214,1.14388695655234173820247,1104.43383255724961600208,1114.31299706336221788661,1115.97768070600386636215,1110.61048775563472190697,320.244982151514250290347,-4.67192307287415076189063,-841.418843356013667289517,-72.226677462096347426268,154.309687680539866505569
4.08999999999999985789145,-0.187591604824687063768351,0.233614021748395572775081,0.0862144830692558872264897,-0.0405873597938233160453692,0.0171368954189159740375548,-9.32568907079580901005669e-05,0.00125741218777831098227238,-0.00243688802894836487392127,0.0145097923311328300122192,0.99989075410659233877908,0.011861540166278827790336,0.0578496647176105077692299,9.82862693677318155494049,-0.0111314183988577546785548,-0.0125621210902163733119652,-0.00214052937120167482282218,-1.16845350753595056403356,0.233468114022647693639456,1.14388008607703373087361,1105.28343973772257413657,1114.2855034936123956868,1113.63139855743725092907,1110.2059234162729808304,269.336597854595595435967,1.25054805912443889326369,-837.059949919075393154344,-202.832808017278466650168,154.310886916167760318785
4.09250000000000024868996,-0.228043825428729168836028,0.139378045906448672086597,0.0921834390756531979471688,-0.0417751310380638993247082,0.0168295273108115296667453,-3.5427265228690794430285e-05,0.00119372662838913520290396,-0.00241613678044067881414692,0.0145167915184193085931241,0.999890782448877857291336,0.0108898155397066515037707,0.0543414969699448913154072,9.82742175394603911797731,-0.0110745675199979045494336,-0.0125546515952895069295758,-0.00202796281826728196431842,-1.16848030092906207677572,0.233437734348068554046662,1.14387555855063594023591,1105.78051554652256527334,1114.31924980365783994785,1111.79238095640857864055,1109.59632371554835117422,120.53556171558996368276,42.0106086457972054404308,-666.829685895086754499061,-260.57527864446103649243,154.311936857355135543912
4.09499999999999975131004,-0.253222844091456344983726,0.0631376347895120093589583,0.088916488966840317997864,-0.0421497502640957866226756,0.0166426069735466850008088,-1.53585425041374730437387e-05,0.00112333788157788824063621,-0.0023997551694320416910966,0.0145278885513535800655394,0.999890747849040972816681,0.00997722707331075153724953,0.0505763490890388106580033,9.82579839368949947697729,-0.0110197616557093890088392,-0.0125550324721595343846481,-0.00192380216501607096725446,-1.16850531531585355438096,0.233407254867874669468364,1.1438739124982579831169,1105.88611754630051109416,1114.49555653684137723758,1110.29725012796188821085,1108.90304702305070350121,-39.4741554555375131485562,99.0405524523815330439902,-516.3489968342329348161,-258.504676028047526870068,154.313037893053376592434
4.09750000000000014210855,-0.276870490503327515430243,-0.0159716011399232693523942,0.0826180412695944471623832,-0.0418560220230877466640607,0.0169349521225139222624367,-1.00916525160154231950107e-05,0.00104985442267898254793679,-0.00238987163040521848750286,0.0145396890603064730951299,0.999890690133485859902862,0.00917447093518917317078731,0.0466494689447095323142634,9.82378326064553064611573,-0.0109686077458232399822746,-0.0125640110277025571910992,-0.00183160099376954241950921,-1.16852918779996683973366,0.23337667294158717656849,1.1438747605035666232709,1105.58314476924488189979,1114.81445256591973702598,1109.21063597223746910458,1108.30380033540814110893,-224.834820987103086054049,155.086975821226246807782,-321.400728227224647071125,-185.072630330072882998138,154.314180539842681127993
4.09999999999999964472863,-0.303329728426881994884923,-0.121202557529350635201482,0.0751235190417984810551388,-0.0411475746897955671488312,0.0181190031477997150199943,-5.05891367108778745127415e-07,0.000977103748908932047065323,-0.0023822709803882537865638,0.0145480012321230686711537,0.999890673828199738615297,0.0084101766791373488985073,0.0426637006108562394368633,9.82141304099112666392557,-0.0109223407401257150556306,-0.0125820975386040645460639,-0.00175435055409241063249792,-1.1685528106826732486212,0.233346079536710576673997,1.14387657770010164881569,1104.76194344136501968023,1115.27099141594749198703,1108.69024648682579936576,1107.97768387140035883931,-466.996997194256380225852,209.799472968056676336346,-101.035289196217831886315,-59.7898758619534405056584,154.315372789919962315253
4.10250000000000003552714,-0.320637438801802288068643,-0.289802546464638821621662,0.0641332863755215282219879,-0.0410148983150139187503491,0.0195515401334242951147946,4.59368889691323309659027e-05,0.000906990355467459600374847,-0.00237314944867124053007323,0.0145525640798348111087934,0.99989070766292709180334,0.00762264531333120554101868,0.0386847071572046299903214,9.81873257983056113573639,-0.0108818803084422249111141,-0.012609467802302317535057,-0.0016941600447781396399094,-1.16857680823240284162523,0.233315143967910199052085,1.14387839399126423067798,1103.24815978327364973666,1115.86344993075999809662,1108.7054595262563907454,1108.00485095609838026576,-619.16236780133988304442,202.944222764122173430223,95.6621861651306630847102,76.8631210179471935362017,154.316860516590764973444
4.10500000000000042632564,-0.293659972989564810319507,-0.452443219508229743652805,0.0506281198664312870327819,-0.0423737305182716739171411,0.0195727992878021207767691,0.000134942984832996034109606,0.000843389952966157210693943,-0.00235913945105431467272328,0.0145538919841673303201546,0.999890787269768877010279,0.00676077815254078756668221,0.0348172694052363423944385,9.81579324384519757984435,-0.0108477703481729814000145,-0.0126460736621682116181953,-0.00165210101439318434758674,-1.16860143074189748446656,0.233283639446503904268937,1.14387952392451364147519,1101.66613160235783652752,1116.28571252976826144732,1109.16855741765152743028,1108.36199947649015484785,-659.058111722211378946668,130.073816152756137398683,248.578331407139387465577,190.33785873325948045931,154.318147863632844973836
4.10749999999999992894573,-0.186480073638562532378771,-0.600382422729435760722083,0.0278786747146028794641648,-0.0449282185880845869041522,0.0177363137874730555920699,0.000294430150376145114473475,0.000786996499629450752336113,-0.00234124230209541497882419,0.014554755458824723823863,0.999890868235494889582071,0.0058589913718403857645356,0.0311024609569943190356955,9.81265081490473356495841,-0.0108203085609089554031126,-0.0126916512713937841561052,-0.00162832345454027617448478,-1.1686260769626297673085,0.233251408300980844767736,1.14387970982873010683534,1099.95286922466266332776,1116.51381901152376485697,1109.94835118329206125054,1108.95654024976465734653,-731.628394397254965042521,37.4219327185081738207373,379.431698838933584738697,277.39409822179959519417,154.31948500097655596619
4.11000000000000031974423,0.0504171996039622025143068,-0.713648003057227975354238,-0.0154027785861136704004259,-0.0474480383083508705510667,0.0141581427184370323840712,0.000561981248287235415211915,0.000736519283627213661516664,-0.00232239197180557051594652,0.0145569531010632229744983,0.999890919057418225968092,0.00498885827911652035560053,0.0275417760335456562881262,9.80936400538997865794499,-0.0107995090886590563300507,-0.0127458772327428884046929,-0.00162222110233331377748822,-1.16864989269984209663278,0.233218702451095299954531,1.14387843286388135588538,1098.00798963037163957779,1116.47282219336079833738,1111.06571591184615499515,1109.74896996759912326524,-659.299106838048373901984,-71.2790348685772841008657,418.267721829269987665612,274.851656815241256026638,154.321147992767976120376
4.11249999999999982236432,0.321425243051611519984334,-0.734090710853588457318608,-0.0667002357195586453864067,-0.0480244507570645254301844,0.0109905318785052889124509,0.000807492127973555404336914,0.00069179620009783852809665,-0.00230495265915146027926874,0.0145606071247494969073122,0.999890934722964308534188,0.00421008825307028766715689,0.0241586552018432931809855,9.80599316365141504547864,-0.0107850354091551230845125,-0.0128084635431856552756358,-0.00163260195907510862779743,-1.16867285557255051742231,0.233186011018480743306469,1.14387553262810914844749,1096.65637369047249194409,1116.15742383718088603928,1112.03968979243836656678,1110.3307985338408343523,-453.4155549837674925584,-175.912134398098828569346,382.229031735331716390647,191.505940002438819647068,154.322583134989713471441
4.11500000000000021316282,0.624198769528879759960205,-0.677767210416112098059216,-0.131444753680712400623065,-0.0466728737964133763571617,0.00828709930228704177990195,0.000951481574713024789470561,0.000651292460515369583083645,-0.00229338313524932949777346,0.0145640859897187505828109,0.999890932574358126672109,0.00362129935583414830357896,0.0209483287102146774338873,9.80259853848820306154721,-0.0107761052501307800360886,-0.01287917045038889339581,-0.00165792409970077006531319,-1.16869558028961506579435,0.233153441159453245212774,1.14387176832191972408737,1095.7409118554528504319,1115.59326152137032295286,1112.97686107052277293405,1110.70649966761129689985,-282.095121414710433782602,-250.23954147973734052357,362.460402019458797440166,109.151895465086056447035,154.324069787143002940866
4.11749999999999971578291,0.913972533761647443206755,-0.573693916114582092014018,-0.20098365224844663701198,-0.0438080710307668305669715,0.006250860592560698002218,0.000837580316234160806264375,0.000616371562178334264463231,-0.00228725297330463440623194,0.0145636921182828293214184,0.999890968829208026669164,0.00322362695158499162895183,0.0179632662798219142064049,9.7992399898471944652556,-0.0107713902846886880326771,-0.0129577990432649774177332,-0.00169651786490284750899549,-1.16871883564612688566342,0.23312116497473697740439,1.143867431047807858846,1095.24589808339896990219,1114.90622612978222605307,1113.85199180253562190046,1110.87655801116625298164,-99.2712310098816743675343,-273.781120712198060118681,329.017323350042431684415,25.8150227798074460849875,154.325599000540165661732
4.12000000000000010658141,1.15011564713552960625975,-0.443128004763810423582981,-0.263620202819997706544797,-0.0396675292170427240545649,0.0051583564984825427957027,0.00013077881985823340028896,0.000585873129470441738816944,-0.00228088716806189263294757,0.014556934730060328703205,0.999891095192290579873884,0.00291164302768071037164077,0.0152064506615713253279143,9.79597596244134294352079,-0.0107691216528963979587319,-0.0130440479515827253975679,-0.0017468542191320132576926,-1.16874312404994085135002,0.233088838090033667604928,1.14386192868214053852682,1095.24455570040345264715,1114.22435591780936192663,1114.62194768727295013377,1110.83557478151033137692,88.4831367670220032550787,-252.465044315164590216227,301.077077321359183770255,-40.9274514885900941862928,154.327178864030059912693
4.12250000000000049737992,1.34995217576226855804578,-0.299084915465913481202875,-0.313643036758251336770797,-0.0345083477118911866043938,0.00473962108003582460735714,-0.00135314223037200261068325,0.000556065367654823587348356,-0.00227339139708008283052854,0.0145422435165915246019219,0.999891340277604290243119,0.00266939313953418189129252,0.0126274036347650830958145,9.79286161890173545430116,-0.0107672402698538258875027,-0.0131374760296647068169573,-0.00180746030092872322914133,-1.16876920054570088147727,0.233055730591535253948265,1.14385528611561793077556,1095.68831376723414905427,1113.64390090820620571321,1115.35737718914265315107,1110.67192075372327053628,205.707072579530006350979,-140.772485150594832248316,222.159936244729777854445,-54.1623833910773697652985,154.329131758155654097209
4.125,1.45223977096861589508592,-0.216468003108731460448766,-0.326841834947186327120505,-0.0307447569142563666144685,0.00485271942275226908503072,-0.00266643620968829786824217,0.000527666308948202184871124,-0.00226632305619816482034068,0.0145223718857486958078162,0.999891661469253345551067,0.00252623958841426826671395,0.0102598890437141029852164,9.78994893402247257085946,-0.0107636986636579726900331,-0.013237471532486406317064,-0.00187693478391626634299572,-1.16879711491749804785911,0.233022052752717118151438,1.14384756179359259320449,1096.27309106330108079419,1113.52049349205640282889,1115.73274736849657529092,1110.56476286455495028349,233.617633077806630126361,53.5718610663036614027988,76.7161467696967491747273,-9.96412912863910094074527,154.330805167204403005599
4.1275000000000003907985,1.50879315681866899012675,-0.19380237686146323250469,-0.310716429379745306960103,-0.0276181955923729162416524,0.00501276482672331855777736,-0.00346261389714900853081803,0.000503348957407128544914998,-0.00225848691890492619602226,0.0145034929781079745952921,0.999891971487126274276136,0.00245428519559103691660695,0.00817422221874432308741376,9.78728695876464804825901,-0.010756695736943351973669,-0.0133433129268844211795519,-0.0019542641222207151469048,-1.16882652685836752048942,0.232988086214898831860509,1.14383924203635856109429,1096.85640193262315733591,1113.91176021353771830036,1115.7409579229911287257,1110.62210010808007609739,201.699829366457123569489,249.126981499199104064246,-74.2128821741987252380568,61.4337580962468905454443,154.332523919533855405462
4.12999999999999989341859,1.54359526550521941601346,-0.22773918080517110973382,-0.27448280355847809452996,-0.0247149316879055891416073,0.00495488073808337137898805,-0.00385796491385592557957218,0.000483852535917818533679063,-0.00225106272861972864229863,0.0144856509271576189973318,0.999892266388503592189352,0.0024686469160886681528666,0.00640003771339478153001856,9.784920870839904694094,-0.0107446946410395521159797,-0.0134543818172289646878381,-0.00203890979208533546299109,-1.16885652288822527999912,0.232953965276274238549448,1.14383127120376082430653,1097.28159021013334495365,1114.76612839955237177492,1115.36168295762558955175,1110.87193165503617819923,107.14475792279019117359,440.118163638053658814897,-255.625460151719380519353,144.588397737428181244468,154.334278052694003235956
4.13250000000000028421709,1.56271022811376392169791,-0.329812718811751837133528,-0.217024637048167601260928,-0.0216689140205238474357063,0.00476982969197444796327634,-0.00415508593836777344321387,0.000466493891108439378504619,-0.00225006795030801513141094,0.0144685230137427869173683,0.999892537497554134695577,0.00267549600995867914443593,0.00489591738873417989252879,9.78289139009784491918253,-0.0107267461935095596153866,-0.0135700233199889785246084,-0.00213077602191342639278981,-1.16888635386226802381771,0.23291969253109240378663,1.14382505782625920609519,1097.39212572223709685204,1116.11235103172793969861,1114.46283062223255910794,1111.34504209676720165589,-31.5119261624210942329682,660.345108900142349739326,-510.200492614932898050029,240.619298605047902128717,154.336071495584945978408
4.13499999999999978683718,1.56693443418089017882266,-0.521711329595445749696125,-0.121426945869100480490665,-0.0174603053333572677541241,0.0044950808582531346160871,-0.00452657162123699333827753,0.000449445930997529751078912,-0.00225684421358833238804853,0.0144531900447600839682005,0.999892765443513797940511,0.00308777318976534431715919,0.00363550491324100832901678,9.78123578879961463883319,-0.0107025413257870825184392,-0.0136895056708020990132724,-0.00223011268392157933210251,-1.16891546916215460782951,0.232885293452695263383134,1.14382049982036626545323,1097.1240305793212428398,1118.06785394405301303777,1112.81068049455097934697,1112.07502814806139213033,-152.686164451646249062833,724.43648319278236158425,-682.742949015724661876447,274.4817050919722873914,154.338263630225100087046
4.13750000000000017763568,1.54772759077795529769617,-0.723496164761722959646306,-0.0151764609698480153893163,-0.0133988942601899526513298,0.00379125714766766945887366,-0.00490657880946657187770654,0.000434870592642149400748608,-0.00227201318409322354854862,0.0144402521421656167277536,0.999892937662201997106592,0.00370453083714889636057777,0.00266754149641430099437756,9.77998728419943752498966,-0.0106723159794026665331268,-0.0138120527638270797210485,-0.0023370645611428104114482,-1.16894336583402935758613,0.232850892226247885297141,1.14381723160937265326709,1096.62869489997888194921,1119.73453344769177419948,1111.04911587715400855814,1112.71745062222703381849,-224.387636617716680120793,607.566945887414703975082,-747.659192142798474378651,241.135830817671063641683,154.340118931271632618518
4.13999999999999968025577,1.49703626616789486902803,-0.93660559119962494278866,0.123115127141310301550625,-0.00919478605001180539224581,0.00195375744261412588251292,-0.00521432059337074461924377,0.000421633923339682741004975,-0.00229544683109031378773213,0.0144303125999478421004341,0.999893044802668273796087,0.00450913376873569859970559,0.00197314294180538085665688,9.77917404795442024578733,-0.0106367283497255347979316,-0.0139367740707538895900131,-0.00245160034952835370267166,-1.16897006689992366545994,0.232816171914684816313112,1.14381543564141008317847,1096.00209239623268331343,1121.10568867349002175615,1109.07238453383706655586,1113.28070730214972172689,-263.215449189834714616154,464.250466317353925660427,-865.544559062546113636927,211.311320138797725576296,154.341997086205736877673
4.14250000000000007105427,1.39983633709752375295921,-1.15831321281414800772325,0.324355482904529868193322,-0.00487680433498380132284478,-0.00154076607337108551984417,-0.00508418173858129953529561,0.000410607334221946079170357,-0.0023233931065723481546037,0.014424164670704620050401,0.999893082251012033090376,0.00541532458837559738107359,0.00157014841718788877855673,9.77881914388995454601172,-0.0105966865214103984904614,-0.0140626716368839818627201,-0.00257317483104674282756719,-1.16899622680043102640468,0.232780909136612756960005,1.14381426745133341071892,1095.31261765402973651362,1122.05578577927849437401,1106.72139308184137007629,1113.77400722292099999322,-213.829324534402303470415,196.274483164157800274552,-817.62036601972749849665,143.065068303736012467198,154.344268178661366164306
4.14500000000000046185278,1.29340545051794975073278,-1.28194996055904542053838,0.513957196039848795976468,-0.00203506731546518456962835,-0.00534809429833389606695482,-0.00430530055003066226132491,0.000404244078993975532697325,-0.00235255427363470839829951,0.0144215818612086123934324,0.99989305922063853593329,0.00634759487413914802456105,0.00150366292018355024451282,9.77893922556683570235236,-0.0105532134421031219967402,-0.0141886822967365842929066,-0.00270045716128030407338079,-1.16902207182368078619561,0.232745223803470041579189,1.14381290751593422960752,1094.93294577356050467642,1122.08706108931096423476,1104.98428270373779014335,1113.99603264366851362865,-87.017041550008840999908,-160.828756167578632130244,-605.588820072820681161829,44.321903593755486383543,154.346167671678216493092
4.14749999999999996447286,1.16403330472095101200125,-1.31412167550264458171227,0.7119069558389911067664,0.000549354395764737441464065,-0.00967114371238173876899058,-0.00298237023991589685761872,0.000402860852802895089575658,-0.00237849419156250380114059,0.014422689404970500531844,0.99989298402250692543447,0.00720934694731985292737164,0.00177367634767820053776077,9.77954361378168712803927,-0.0105074162210535664019329,-0.0143136570306554473941407,-0.00283139401750083421344106,-1.16904747775373052398606,0.232708964170723481279524,1.1438100329838309932029,1094.87753244627970161673,1121.25164199844061840849,1103.69344898147733147198,1113.99561674088977270003,41.0999270680358321783388,-465.933886421645127029478,-418.84981925455559803595,-40.4962340088795329506866,154.348064364373499302019
4.15000000000000035527137,1.01345972069955858607671,-1.26266727344527218690473,0.903646840644978355250316,0.00320321042180910084060108,-0.0138553458304410664209128,-0.00138500789517202846541644,0.000403392120282474874078116,-0.00239993409697468159172407,0.0144273190469990115342158,0.999892863022833644492948,0.00796689017463884929792783,0.00230957714226617122355023,9.7806329209779345745801,-0.010460447159857730672905,-0.01443639927418881481469,-0.00296323395980763182322448,-1.16907227201104024771894,0.232671887549621120294674,1.14380557181235542607567,1095.13844540890067946748,1119.7573916572027883376,1102.89003360746505677525,1113.79355147362412026268,183.133643471914439260217,-715.778055990419261433999,-190.013494832150598767839,-132.94530475041312911344,154.349950581440793939692
4.15249999999999985789145,0.832370878343945630462031,-1.11850942604844005856535,1.0681980082667794640372,0.00608836963118111664655663,-0.0174310308264627109031686,0.00066001001485427172096182,0.000403062815892591970023257,-0.00241622618846265698952513,0.0144370706349453911676584,0.999892676071326036435494,0.00860105737761266558871753,0.00304264078291110323659652,9.78219900958981547489657,-0.0104134917320853059852226,-0.0145556991929267336843834,-0.00309265764121563219851696,-1.16909633266792289951752,0.232634109103494940429258,1.14379898991270545494103,1095.79320066363925434416,1117.67275171848859827151,1102.74338150731659879966,1113.33089021713772126532,375.32938690088377597931,-977.65576758090253406408,84.7368409374230253661153,-263.779600309049953921203,154.351814204202185010217
4.15500000000000024868996,0.581385179119354944532461,-0.866277496767368426766609,1.20229101595382537048806,0.00944890609295646367871147,-0.0206471496310516311467609,0.00396966729333269024299069,0.00040161723452617219178723,-0.00242963397039677383992817,0.0144543779271567255501063,0.999892383545320062587791,0.00915250782686680142141711,0.00394925838364654224754702,9.78422456596176814969112,-0.010367680134648244588691,-0.0146704355997409902762074,-0.00321591359394045664399364,-1.16911973414755476774474,0.232595895605527597238549,1.14378947580220780011473,1097.01509234340505827277,1114.86911281929837969074,1103.31371781215216287819,1112.47465347207889863057,515.57573817032073293376,-1015.20260065496927381901,317.483922615117478471802,-358.14273378546965886926,154.354012620228928653887
4.15749999999999975131004,0.358295883216382282654422,-0.617711969265166027653891,1.23564428321041286373827,0.0112618080615333165245273,-0.022232464847837168919753,0.00757885687985900436541842,0.00040176419340317334315954,-0.00244207897788019205609356,0.0144793667629633943105816,0.999891979394438190631433,0.00965829316606706123060633,0.00506115120780727123506182,9.78668358004292926466405,-0.0103238932807938506297507,-0.0147796923256742953473042,-0.00332919981749039582338834,-1.16914251428244875263829,0.232557421043891571210693,1.14377759407788404111272,1098.37107935449080287071,1112.59673871521385990491,1104.33080112039215237019,1111.54017654821041105606,605.132841308399406443641,-823.510246370978393315454,485.971401863308869906177,-403.935148059653727159457,154.355805330284709953048
4.16000000000000014210855,0.152574767598825877801261,-0.362707079888861749772389,1.1631406718295338453828,0.0109761709994762486630737,-0.0226596804521994737990909,0.0117100290822879996022188,0.000406012805506470581245332,-0.00245122533066000807336349,0.0145111281865906108917708,0.99989148348285972200955,0.0100738981324693943619764,0.00640492021955460510973523,9.78954209866378910476215,-0.0102826959580391251447562,-0.0148827243032382833948235,-0.00342918356436120721694727,-1.16916505242280410747924,0.232519013989133299658008,1.14376386129691831605726,1100.04075654994699107192,1110.75156158744357526302,1105.74357482146865550021,1110.45497773178067291155,795.936653346978914669307,-648.00607775161120116536,661.986354519117867312161,-484.01388843377515058819,154.357549154286232351296
4.16249999999999964472863,-0.0398567878622174409652956,-0.0777181986575942035377906,0.946008834055884872960007,0.00891795205887430803004534,-0.0222404833686218605937057,0.0161428711865459310892401,0.00041425277843742166344887,-0.00245382763819474401800758,0.0145462641047378604675089,0.999890955735830977424428,0.010337644058711126238137,0.00795430639751694076866606,9.79275852346298414374814,-0.0102442686140777269865332,-0.0149789466024188890058699,-0.00351329228054113621923515,-1.16918775496728311047434,0.232480560184400969481189,1.14374882164463542721933,1102.35076262122561274737,1109.35670832645587324805,1107.64073289298767122091,1109.12010710604158703063,885.50619944664572358306,-348.385170065110457926494,689.386346464622079110995,-469.315536422719560505357,154.35957720583314767282
4.16500000000000003552714,-0.149501820001165630635853,0.133014156380694997805492,0.668141711323311349168819,0.00724510070764951708693902,-0.0215066526151222563167931,0.0188020832193245522601099,0.00042800244025472078098285,-0.00244794311601626837435197,0.0145792085179710893816374,0.999890483176312128144048,0.0104146357121832622283364,0.00971319764583111408540184,9.7962847146317599822396,-0.010208441499472068261789,-0.0150679141224220481537488,-0.00357974859266944325439375,-1.16921090097537616614431,0.232442308779010647912244,1.14373313060240056060479,1104.46828754718012532976,1109.00963573711806020583,1109.19050655379169256776,1108.10840004966712513124,862.003598659477461296774,29.7092611662673284911307,572.409691369604502142465,-351.796236250074400686572,154.361208512892886801637
4.16750000000000042632564,-0.228384890459475270452216,0.318354892463997007912013,0.318964922357241831285535,0.00674687331766151733580816,-0.0206961594240992856341688,0.0202087036969649073980815,0.000445723173604020022654792,-0.00244057760243130208999141,0.0146065126725995458184526,0.999890097217509765670229,0.0104445227288503389440066,0.0116218843453943301846643,9.80006612041542268798366,-0.0101749293675683846749358,-0.0151491489920512322625568,-0.00362766768494357343122214,-1.16923378089588503314644,0.232404130865605962341647,1.14371831504111298727366,1106.66078061452367364836,1109.50525463228723310749,1110.50278134983614108933,1107.36112592479094018927,860.382985002270402219438,312.144104232681740995758,467.104945084712142033823,-235.01264454671900239191,154.362773997095303002425
4.16999999999999992894573,-0.308653254680541611065792,0.490759078423589567563567,-0.0611575390530524135024315,0.00730077956843379772405855,-0.0199102178362132314903832,0.0206097761134127893667412,0.000463432861951999796896323,-0.00243716193743698109411278,0.0146266988949965964089683,0.999889805360574812631569,0.0105352539992207006047664,0.0135725712334359011057572,9.80404461657328596402294,-0.0101432808668180298589112,-0.0152221046780935329034712,-0.00365720150637179356942208,-1.16925646084291967596869,0.23236529918874712641319,1.14370561843816376246252,1108.77020247219138582295,1110.57035625828143565741,1111.52603127921520353993,1106.93333682693355513038,776.463468026366399499238,507.550423877784737669572,338.593920770843340051215,-81.7399709869750239477071,154.364282049443005462308
4.17250000000000031974423,-0.414235604284135416897072,0.657952676206022712968036,-0.442169831657495016052906,0.00835883786383587179535937,-0.0191699195635696081896349,0.0198329672353447852839459,0.000475746363586589202793187,-0.00244023904343224117344247,0.0146393259827817812102069,0.999889609229229536779826,0.010737250628974681632144,0.0154307993026689266313767,9.80816014240705591475944,-0.0101128306300121428851213,-0.0152862137912553180951747,-0.00366929204790359753465823,-1.16927928552885096458169,0.232325227474092538271222,1.14369567903827706878417,1110.54309795465542265447,1112.04300675167610279459,1112.19575095369032169401,1106.95242606985607380921,635.209799079725485171366,656.347616893404278926027,237.426146385410504535685,107.665412635926728057711,154.365718243168998924375
4.17499999999999982236432,-0.568740264013002372323058,0.857063815795442662803794,-0.854594372007041025440799,0.00870551783067038432994966,-0.0181775285936302023748201,0.0175239654131050248686563,0.000480008480156500797961239,-0.00245126064229067878660895,0.0146431204774426435011314,0.999889525191047567886926,0.0110795276428584665850963,0.0171168493022929163460688,9.81235186570152784213406,-0.0100826730978566588697865,-0.0153410685820853792682428,-0.00366513617966605486503395,-1.16930293263121498625878,0.232283818258552349211854,1.14368805402146400673757,1111.94625146758994560514,1113.85209434274838713463,1112.71316201114223076729,1107.47166389011317733093,350.850435340824560626061,612.234290125265374626906,171.624365250549118400158,257.231219609690015204251,154.367356030863078331095
4.17750000000000021316282,-0.695163578359955125485214,1.01308214095116211339587,-1.13109521662709266998093,0.00772013113895849822226891,-0.0167792066155724624298973,0.014491966098948238714228,0.000478485167873961975137931,-0.00246692607235690685232865,0.0146362991231322684543281,0.999889585348608944670445,0.0114981919506608604164555,0.0186507018827749247724679,9.81655969454195442835953,-0.0100517361745306264136923,-0.0153865900325551620275721,-0.00364580589117887354441705,-1.16932773615463370120438,0.232241666930038503924294,1.14368179653487112013011,1112.29735013135950794094,1115.10417820230236429779,1113.05387277994304895401,1108.23858216790449660039,-59.5854426183917880166518,400.357683043657175403496,154.280623126945670264831,348.062244510272819297825,154.368648105060401576338
4.17999999999999971578291,-0.771825015380107393170306,1.13296106455730738460375,-1.31112646068990179593072,0.00552054195369609118637655,-0.0141620507663924293656477,0.0106262616497397408693582,0.000472743607345855868830109,-0.0024856537385629924423458,0.01461987804540575489054,0.99988977713043203365828,0.0119615385846870286856714,0.0200405967990454070282169,9.82072406353029592196435,-0.0100190841562339330583775,-0.0154230487112239685737469,-0.0036120150747259950271828,-1.16935308189563191838545,0.232199179729117827220009,1.14367573425327639924376,1111.64832425449799302442,1115.85388275796663037909,1113.48456512677694263402,1109.21197511266450419498,-425.035625917153026875894,204.456235143747818483462,208.050392375212027218367,400.868508408674983911624,154.369863600648926649228
4.18250000000000010658141,-0.77044820153808180052124,1.19779261983386242640393,-1.40113834474990461842481,0.00236997039520352040589679,-0.0103956722027608843700319,0.00647871541052583849173985,0.000465721217639639487040348,-0.0025072041892517508455962,0.0145972808224426840728594,0.999890050190290757825551,0.0124634668449927071831596,0.0213246305962638757480754,9.82478674300669929664309,-0.00998404268408711187410276,-0.0154511518623342003486698,-0.00356395349885261017441884,-1.16937867900718317493158,0.232156846854100817889588,1.14366851365182164990131,1110.17217200177378799708,1116.1264593780210816476,1114.09412474181908692117,1110.24292470994782888738,-757.888719910188001449569,9.23492072611080594413124,298.477383533826184702775,401.686004572667059164814,154.371015222392429677711
4.18500000000000049737992,-0.643933009542426715299257,1.17374624142589834008277,-1.38429384660167253962015,-0.00152881026090521390456423,-0.00575920949068862552538972,0.00256546110787425358373826,0.000460038433138073817648545,-0.0025326672675832491259118,0.0145724920525002379217971,0.999890343985713636598689,0.0130231260929658254621444,0.0225385769403073712990881,9.82869141887613295693882,-0.00994621849924234857631689,-0.0154720623312126666359934,-0.00350141974053988199247489,-1.16940407477349639364661,0.232115351939467168262965,1.14365962809516541476285,1107.85888065494646070874,1115.9000573615971916297,1114.97695204444630689977,1111.22040513552815355069,-1134.67548351261621064623,-164.734554115970126986213,447.602561052199689584086,391.627700103717131696612,154.372089885574609979813
4.1875,-0.343351579461915357160962,1.04152658707204692767334,-1.25678982611233580612975,-0.00582792740061003483598157,-0.000556237849112522163806671,-0.00156600364046007825731543,0.000454971378209214412802891,-0.00255823600347524068507332,0.0145496472135498485650507,0.999890608854632212398883,0.0135620351434398295209505,0.0236588154995445616723959,9.83238511236531209647183,-0.00990546231748392833060812,-0.0154873039065579944789652,-0.00342425574425624188595885,-1.16942926291522719672855,0.232074722212463474546595,1.14364933235410748402217,1104.4987945842108274519,1115.30278660744124863413,1116.33213754708003762062,1112.20106321046637276595,-1256.60053232134441714152,-224.105129557897498671082,531.048736439890944893705,311.358622253426176484936,154.37329124138108227271
4.1900000000000003907985,0.00113180740633382170660937,0.869601708608124801536121,-1.07880526145456689945945,-0.00769051012063681500158241,0.00239787620324925744227929,-0.00458263985613362179183383,0.000450260747686214444010511,-0.0025823548803893636542639,0.0145288345353640491186553,0.99989084826452290233334,0.0140461361176961591068491,0.0246758949216603074017229,9.83581810663133282446324,-0.00986177016262341187002871,-0.0154987412541565811041622,-0.00333233696655268118655413,-1.16945377919338144856454,0.232034890707944585486189,1.1436383946441497361235,1101.5758779933398727735,1114.77953171380772801058,1117.63219572664570478082,1112.77719824679525117972,-1104.2954385488665138837,-156.685564395232802326063,526.612381839242857495265,162.999018121585152130137,154.374219828427641232338
4.19249999999999989341859,0.375215583405169028630155,0.682317572509172243222508,-0.851126314252269144944307,-0.00655106081190458093554962,0.0033476232824733087242719,-0.00703252286585227814885712,0.00044830865752941439789786,-0.00260593053509964407352117,0.014509522568461576813581,0.999891067685041101675836,0.0144909615591744811435859,0.0256376993960594004584586,9.8389447893257937494127,-0.00981533656030483293852829,-0.0155083923759031447331402,-0.00322568779354439694531664,-1.16947787246011403183843,0.231995803107108405916037,1.14362730110339771982808,1098.97731739146661311679,1114.51935878546510139131,1118.96519945627619563311,1113.01605830107428118936,-981.750824294406811532099,-7.49081664880593578459411,553.208426147705722542014,11.0763934507306291976647,154.375074728902205833947
4.19500000000000028421709,0.771648879609261650891483,0.493589900640857170976972,-0.552640787992410342788219,-0.0026208390964467236788904,0.00314188134123011188897356,-0.00872542974151203042099123,0.000453212121479260770292447,-0.00262304108567989026704059,0.0144927494435871107025804,0.999891264891907716183539,0.014778960635508639476221,0.0266329711191875054265843,9.84172580538926133897348,-0.00976650588503643821147726,-0.0155182527109556343825059,-0.00310480504720257949671791,-1.16950227068190648616053,0.231957537373884165043947,1.1436155355551935741687,1096.66712387186794330773,1114.74207763056369913102,1120.39823785738417427638,1112.83258021404890314443,-673.135750239558319663047,180.341900138595718772194,467.048993890840336007386,-150.925274644535903689757,154.376017543781756558019
4.19749999999999978683718,1.01348392986835178497529,0.387785270044832097724452,-0.305409569765040134203815,0.00128724031385682208435128,0.00278246263943369423130014,-0.009071187544167648095228,0.00046670600599385704933611,-0.00262922518447519272533075,0.0144801113930639324678395,0.99989142717213419508937,0.0148218004631574112872627,0.0277089049566665406032495,9.8441279008925715032774,-0.00971580097432693350067989,-0.0155301607288112625271381,-0.0029707371012937877977067,-1.16952691243188322545166,0.231920123171018233154683,1.14360307354132095802868,1095.61163864026889314118,1115.42106828615806080052,1121.30044442573034757515,1112.26143192785161772917,-229.542603547411431463843,352.570413599967878326424,267.527059030004465967068,-308.533704792086837187526,154.376735638875317135899
4.20000000000000017763568,1.14171509274339588735359,0.335285198310362519968919,-0.0782174289081699058989727,0.00479447284238032622738501,0.00293757999096420658463602,-0.00898176300346610265168401,0.000484876694039117325709526,-0.00262209953624186571305432,0.0144730334485313159864628,0.999891542057472992865996,0.0145720470445577926499325,0.0288057201835877768614225,9.84612483516158576435373,-0.00966394705329766401380454,-0.0155456686064050428330852,-0.00282531744391558998358294,-1.16955135859844916446093,0.231883045619607125464867,1.14359034265290215870436,1095.51941085413091059308,1116.50492969856350100599,1121.7358731525341681845,1111.28991169008850192768,107.00417660191534707792,463.696492821610149803746,78.7805319931993324189534,-437.896803226895144689479,154.377385634591121288395
4.20249999999999968025577,1.17734201764290036251737,0.312746716467113439197334,0.126538915315689282081735,0.00780717211634436841077855,0.00374933363478610051297557,-0.00882029279108010634546932,0.000501183927605966853500996,-0.00260596707033952917215158,0.0144708209873700456571388,0.999891610139607589502475,0.0141151659554136083007947,0.029814157300556615171061,9.84769780567470576215783,-0.00961184998997056776193215,-0.0155660128854727547453862,-0.00267109421498125778129951,-1.16957518435422702651749,0.231845874569822557598187,1.14357874893468092203364,1096.14665952327845843683,1117.73955075026606209576,1121.69434708569633585284,1110.07194791171718861733,382.113751097684996693715,472.038614453104912627168,-140.403102452731474159009,-513.016934349854636820965,154.37798075937735120533
4.20500000000000007105427,1.11205365873405614962621,0.304021520019456925609802,0.302206882384311814604416,0.0102604190433047796904287,0.00526874252331743612998149,-0.00847804807858939732390091,0.000515135300545632767235671,-0.00258599694949544550368059,0.0144702231339593322817505,0.999891662910118439455687,0.0135576186267748061142768,0.0307470668636025644404608,9.84883713467730004254008,-0.00956050363126730376461815,-0.0155921396266445275863299,-0.00251115371175029359479547,-1.16959843648937522608833,0.231808745841963648182116,1.1435691753424124250671,1097.42997960961929493351,1118.8651227708289752627,1121.0338576402705257351,1108.72482701833928331325,646.021161494890293397475,399.031208913703665075445,-423.940831516417460989032,-571.368795817535783498897,154.378511731275096963145
4.20750000000000046185278,0.929550758498958518138977,0.289856182998765199432256,0.475641467451251243048205,0.013065571666157550778653,0.00725049104953389041139378,-0.00751668285293221813403441,0.00052765856640196208415805,-0.00256787217286050814882281,0.0144685477236046623056298,0.999891723415248900863617,0.013018524816864995852228,0.0316470924876416370707943,9.8495427832210449281547,-0.00951101055769379422066834,-0.0156246014774371264066666,-0.00234910195420910293193084,-1.16962091213084962149082,0.231771983367977552070727,1.14356179035554816891818,1099.37676533075341467338,1119.73470679483489220729,1119.57464292811391715077,1107.21510393262906291056,728.916062720979539335531,203.432276423795684650031,-623.650972168311113819072,-500.530937233462964286446,154.37907743006968530608
4.20999999999999996447286,0.696665610358835452053938,0.273116633819675436178898,0.583931660478299918715095,0.0153450163744920514696801,0.00838783009468336074321293,-0.00618014153273159852486351,0.000538567031437383724606915,-0.00255654430355898567781003,0.014463291067729533434516,0.999891816218515194769623,0.0126042412675267667676593,0.0325359426071196583540868,9.84982466741915452246303,-0.00946446820143532346891746,-0.0156635139971821081561476,-0.00218890899714261266337245,-1.16964210277308566787724,0.231735600115942158572224,1.14355690802751031043272,1101.0745599232241147547,1119.88228415294793194334,1117.91560277942903667281,1106.22217233217202192463,641.323751361019276373554,-72.6408862546138180960043,-714.325852756489211969892,-311.973779943771035050304,154.379491320009293531257
4.21250000000000035527137,0.388374810806876802349308,0.261170394310378639612935,0.647884041613366878920033,0.0171732166888701118234728,0.00882218528081482426805859,-0.0044810348542233691820913,0.000548544892810915569146546,-0.00255061368306032376640502,0.0144541549577010854099601,0.999891949730364992809939,0.0122978496778600732142195,0.0334537002142339251475889,9.84970312363101285768607,-0.00942186797366150602384138,-0.0157084689440533248339094,-0.00203465559118844001307291,-1.16966200663356767464052,0.231699349123934833505345,1.14355398798456642239785,1102.58338408755844284315,1119.37150236356183086173,1116.0030136643315472611,1105.65523503291024098871,579.397585531445315609744,-351.999934172871007831418,-841.953899378013147725142,-137.738682476222692230294,154.37984770551750557388
4.21499999999999985789145,-0.0499304255024974746879352,0.266722976869958383616677,0.668529672446289247034201,0.0186364516916035019566955,0.00892323786803254914712369,-0.00230207027275652377495962,0.000559655378027676809853108,-0.00254880656964019984209169,0.0144446892840807694646799,0.999892076707925347989203,0.0120863967908293595820979,0.0344656429543453574071421,9.84920731178053898702274,-0.0093840077927342408631306,-0.0157584625335805104950904,-0.00189012147123872450635296,-1.16968091949776908933245,0.231662634196811489939449,1.14355241999878654013401,1103.97154785088127937343,1118.12228448208361442084,1113.70583328253906074679,1105.53347891979092310066,425.91214406053040875122,-526.042136636772170277254,-799.498841640178170564468,43.4086501491501763894121,154.380210319932871243509
4.21750000000000024868996,-0.448705602704335515529266,0.293118595357703848325315,0.638582528231623647307913,0.018948203243061383788115,0.00882462654208517570386672,-0.000566965900737221575531044,0.00057199297234408633203856,-0.00254984828120770248144344,0.014438212331871341786993,0.999892155601006304976863,0.0119569293583778046841104,0.035595524066341546753911,9.84837404407294592090238,-0.00935121419640243083104547,-0.0158119790528940783180811,-0.00175868392482840898462249,-1.16969970022803915199461,0.231624691373807173322419,1.14355257918043284881549,1104.71294480786104941217,1116.74129168037802628533,1112.00551945613074167341,1105.87227828365598725213,215.20549581205617073465,-565.853535370991494346526,-592.026847533692375691317,207.430165429245676023129,154.380458332663124565443
4.21999999999999975131004,-0.840119123266827916296506,0.337074404328692234233955,0.562530855527576090224784,0.0178670778115670343677568,0.0088396745520580109062303,0.00104054388518004200560318,0.000581768021590091453758287,-0.00254602534284692396532312,0.0144372788961183110695297,0.999892171914229854756684,0.0117685185541668430042606,0.0367887589657789060293425,9.84724704972467002050962,-0.00932324642527838573502486,-0.015867112520442365475315,-0.00164330199057924146964493,-1.16971960630230342736979,0.231584870952092652940379,1.14355470847297446823632,1105.04757532994153734762,1115.29301680522871720314,1110.74569904487066196452,1106.57062974693712931185,81.6664428639359414319188,-548.473088895127943942498,-409.944229365655360197707,318.805152836564502649708,154.380648963534554241051
4.22250000000000014210855,-1.1849316054562664124461,0.382149213699522205534009,0.452449769507866139672814,0.0154120735522853338772542,0.00927795081095009535609996,0.00258209626839519222618602,0.000586187795720561764974132,-0.00253519158077996405870058,0.0144397754246713486137033,0.999892160876566848948244,0.0114894816047578368634063,0.03800471896198328453087,9.84587351265381904852347,-0.00929929935990882194918328,-0.0159218655506947089073311,-0.00154591669765389975489678,-1.16974064073276462494277,0.231543267257624418853368,1.14355824918534931811109,1105.12127702218072045071,1113.99892623590244511433,1109.95579830930250864185,1107.46630404783877565933,-8.92109024875954581546011,-441.691588872718398306461,-196.455462052249089310862,381.337064387397674636304,154.38079023966045610905
4.22499999999999964472863,-1.42126284319653728438482,0.403432978728782698496502,0.310191129517710273422182,0.0113333788191735135991722,0.0104415360921507379549089,0.00396200143905916981473814,0.000585561942178314601137323,-0.00251790007065411710479585,0.0144435287491326540959546,0.999892150632385012798409,0.011140778226335329437191,0.0392581342071336852894703,9.84430225745210307763955,-0.00927830342083010677078914,-0.0159743081815938922640719,-0.00146723362177897300590024,-1.16976234832571512889388,0.231500660800242452630471,1.14356205073530325933007,1105.0029698786977405689,1113.08455886086517239164,1109.76342173460943740793,1108.47731506887407704198,-67.8819934461913305767666,-289.056535828837468216079,36.7151721349735993271679,446.882347370101797423558,154.38086876307653483309
4.22750000000000003552714,-1.52275037780208455373554,0.367981914407517374243639,0.121629020787545394366447,0.00520649281534132056525888,0.0127764841434569696720924,0.00491560676958315966728064,0.000579005099475271936028398,-0.00249895605746288827428425,0.0144480753176312384788993,0.999892135317265284832899,0.0108248007344578511812472,0.0405336366167387274206391,9.84258132150035081053829,-0.00925913490578975616196455,-0.0160227165653670546030529,-0.00140673901374012639067801,-1.16978442360451362347362,0.231457574884347261345852,1.14356552822422741222397,1104.78186705494977104536,1112.5536435567582884687,1110.1393741699773727305,1109.70071578468923689798,-80.3559357087908097128093,-101.285095828946026585982,212.421115128075598477153,439.756775876071003494872,154.380884866892699847085
4.23000000000000042632564,-1.4318807016024386324915,0.272024230139648492965421,-0.0308108254225058948716498,-0.000222791067241141137406438,0.0150118647666733062012723,0.00464104368456957992045142,0.00056963575850505203824331,-0.00248303077927356299903217,0.0144520440474543050701772,0.999892120999973266215477,0.0106400977148358166779474,0.0418895283985923905234472,9.84075625593784764078009,-0.00924061543724998338267262,-0.0160657332458475389513897,-0.00136263699251057391302611,-1.16980666805532584895388,0.231414539273739922053963,1.14356828819680989006713,1104.60119020015372370835,1112.57813338172036310425,1110.82552731024998138309,1110.67609894825477567792,-64.4173102743493615207626,85.5032934118771663634107,311.134887433497453912423,376.062261504611171858414,154.380828137049974202455
4.23249999999999992894573,-1.15981423760496138442022,0.109613743491718818034997,-0.156001748557308750342543,-0.00526809253715434383513738,0.0165041907030611390005959,0.00354033571453807880194398,0.000559364834288661179166613,-0.00247245395466479979396102,0.0144558235293117762904069,0.999892096807754038323424,0.0106362347818060726245548,0.0433557656405188299175713,9.83886845109128493902517,-0.00922164357018161184864624,-0.0161023191531665561815334,-0.00133216207412751685805474,-1.16982869200197603376523,0.231371844015434813268683,1.14356970077517416939372,1104.45978050357803113002,1112.98116002381766520557,1111.69504860714482674666,1111.58102709221225268266,-53.8825463303067095921506,225.036375087306879549942,376.768102313061547192774,379.963367932404139537539,154.380692046340328715814
4.23500000000000031974423,-0.665873940239438799615357,-0.132646954835927866067635,-0.262188304939830529871614,-0.00995120547654679797611177,0.0167841759980580824962448,0.00211880919379578988928636,0.000547915148327165492901647,-0.00246654803026654821304642,0.0144610673247994678952688,0.999892043550601017365409,0.010800415139763444583032,0.0449152301322767733005037,9.83695363059151617335374,-0.00920118941378621560400752,-0.0161317237167660568197824,-0.00131180561294335761707286,-1.16985078296590816471223,0.23132931599957498591813,1.14356911987058240676163,1104.33177746850219591579,1113.70331525715687348566,1112.70936782181524904445,1112.57591578791675601678,-43.9173162876623166539503,274.205138977782951315021,336.0546897110069721748,346.387806732953436039679,154.380430424671544642479
4.23749999999999982236432,-0.171538216924236791571801,-0.343213727244091215684563,-0.315804627061384790565057,-0.0117785825474284542441206,0.0157060921878160140996439,0.00116566022005045832714287,0.000539769156051650282092391,-0.00245742028542160050735843,0.0144694905089080786547706,0.999891953553256551678885,0.0109768380346638855238339,0.0466421115091239027461434,9.83504113525164136433432,-0.00917824825843250972912113,-0.0161534724122639194998641,-0.00129744736624240876270153,-1.169873107595219341448,0.231287298741947477953573,1.14356523522995723318729,1104.24019392213972423633,1114.35218571870655068778,1113.37532205569982579618,1113.31296612587698291463,-40.0628640689782855588419,242.245750354191557107697,199.910911277451930345705,266.388846372052512379014,154.380126842196546022024
4.24000000000000021316282,0.320099456476936938820188,-0.528555688423935077224769,-0.343411128487994044000686,-0.0108975322163683465553907,0.0136530635941548156297998,0.000518219833419278569711097,0.000538625284497523779299322,-0.0024408899182591864765457,0.0144847174558385746040434,0.999891781498683185347431,0.0110803825065216993150941,0.0485900011707020990092687,9.83315211557835588962462,-0.00915196282663706568716311,-0.0161672445400207094590161,-0.00128476144357561345571428,-1.16989609694587248789333,0.231246253193636314149373,1.14355735414608106204071,1104.13146314815730875125,1114.91454400892780540744,1113.70892237820248737989,1113.90786001977699015697,-51.7397161650034931312803,202.709870520952563310857,63.0862922475457494897455,203.164499644212583007175,154.379731497245131777163
4.24249999999999971578291,0.741643101142069771647414,-0.676788036802758896648413,-0.358111786482806060405437,-0.00816869337905443484992851,0.011292199677546016847729,3.90121002372691941684907e-05,0.000542948474257648580794389,-0.00241596967152606523915326,0.0145050642227654881522003,0.999891553016548084720228,0.0110853035308925013113779,0.0507056170325153876543567,9.83129987239461300418952,-0.00912146391989602546568339,-0.0161728746669506373567771,-0.0012699252150954120580556,-1.16991970405059175774909,0.231206044916286657109339,1.14354596384895090821487,1103.98149534131471227738,1115.36573507131129190384,1113.690753516937547829,1114.32878862409802422917,-76.1970356159525010752986,161.033896256780082012483,-102.499559133050212267335,110.192791509237011382538,154.379258894982399397122
4.24500000000000010658141,1.0130582677639283772919,-0.775323277273730404601793,-0.363807918387542672533641,-0.00415399210720071923597096,0.00910067606310412113845842,-0.000409354155418089433668416,0.000547573409971018379947816,-0.00238567402284526816624854,0.0145280896809322230406325,0.999891297357909047960334,0.0110419586448403800327256,0.052860314000926847399775,9.82949054651572673435567,-0.00908611846306674880713317,-0.016170137366510791560037,-0.00125011287402439653232422,-1.16994357342027455182176,0.231166115404279615130889,1.14353283928308346872882,1103.75047797007755434606,1115.71971349021168862237,1113.19642458253724726092,1114.45882397732316348993,-127.066757912714962230893,158.663761828868445036278,-330.652962641800684195914,-28.2750091247591086585089,154.378692987356117782838
4.24750000000000049737992,1.11445931777310680566018,-0.842769496497984160754413,-0.360826229825537192485996,0.00118146248649966421548352,0.00664464401097496215609084,-0.00113473853843954353842749,0.000546789000487225818579462,-0.00235095261607359351865854,0.014552787776837374997263,0.999891029611374881902464,0.0109589490264613009795625,0.0549128158937997254418484,9.82772509850008013643219,-0.00904566357762811266984837,-0.0161586300753603986923856,-0.00122390053102579754104595,-1.16996753105177053733144,0.231125932644424325612675,1.14351981308992467489816,1103.34616155175103813235,1116.15905388045575818978,1112.03748870372828605468,1114.187413578474206588,-172.446030208861003529819,186.502338197037147438095,-512.917696856549810036086,-177.187512256981932523558,154.377907454632975259301
4.25,1.00178037709921663456214,-0.865259055169554813780053,-0.345636731410043640533303,0.00535621114348599092896963,0.00444227572884701299438248,-0.0020031885324269626917626,0.00053828991806689828296395,-0.00231577986747761883218333,0.0145778565371580837856103,0.999890761235695424424819,0.0109048314795703454871401,0.0567860851650295872516949,9.82600008078140518819055,-0.00900019987360851404789575,-0.0161378123008364821044935,-0.00119118201453161120552393,-1.1699908356633683670367,0.231085007220718424703065,1.14350870935327475486076,1102.88824781903326766042,1116.65222518119685446436,1110.63183609825455278042,1113.57288641603827272775,-208.128426791749802760023,246.69286729445573769226,-634.514395958344607606705,-320.913197777060759108281,154.377166325489838527574
4.2525000000000003907985,0.701717118446573473455885,-0.86505650188000005051947,-0.309743606459018661070104,0.00862943955880904854660596,0.00222069310775695801657426,-0.00311706468376477668913438,0.00052342515004560560311353,-0.00229021359318374662442097,0.014600932051514858844854,0.999890501874651005387307,0.0110687578672934022749885,0.0584719317820003234298376,9.82430886540344872059904,-0.00895014456925254282826376,-0.0161070962598215926264711,-0.0011529725414789436521712,-1.17001322450717348822025,0.231043258344682367333434,1.143500548185341747498,1102.30551941779231128749,1117.39251821692801058816,1108.86491672393663066032,1112.58284758958893689851,-249.731213209866695024175,345.812978715874237423122,-743.956615370659505970252,-443.098012558685127260105,154.376339011370106391041
4.25499999999999989341859,0.277587323854858791793987,-0.857136953606172813380226,-0.253036614934686987510304,0.0108266531460864540159506,0.000180599371001832374392104,-0.00420727111726477975839344,0.000505545561523015407959236,-0.00227972598837187200027099,0.0146199632891103534215738,0.999890265875772454862158,0.0115508671883306907046673,0.0600021493629638927314041,9.82264459337727124932371,-0.00889615765233291860836218,-0.0160659415283273925012519,-0.00111131068555750064409671,-1.17003482660768076684121,0.231000849248754552833773,1.14349518132495719946462,1101.63959175298396075959,1118.38129007477618870325,1106.91205302140133426292,1111.35739635324489427148,-276.297337514012269821251,451.833672016992352382658,-790.750450849799108254956,-517.573218137124172244512,154.375443207274400947426
4.25750000000000028421709,-0.241352718576140712336553,-0.85416512389893317624967,-0.172295572872824459542684,0.0112033352617018737429344,-0.00161140452282306249551236,-0.00472780519118887448265509,0.000488640894334922346042838,-0.00228672872138351761586716,0.0146324148972955224434767,0.999890082729930740335078,0.0123922954013135078188412,0.0614221837858248478903,9.8210013393401620618306,-0.00883901885384031499315327,-0.016013990721490872770616,-0.00106885383228359364012061,-1.17005608867693822183753,0.230958077130450023517483,1.14349279309891960210166,1100.92403273022227949696,1119.65168657701292431739,1104.9111644696877192473,1109.9949814989033711754,-308.489911880139743516338,600.313970448600343843282,-843.109899664586691869772,-587.045997840244808685384,154.374468508608202910182
4.25999999999999978683718,-0.890709247187282504576444,-0.871533113466300246585661,-0.0526829455891303713443996,0.00901723871612679361842169,-0.00345466523205535235713226,-0.00452711327526874804383361,0.000473729700630113432450324,-0.00231326242362833028876068,0.0146357698310090635074321,0.999889984886634386462845,0.0136272823801525527764866,0.0627203713601623136231211,9.81937489968744792179223,-0.00877958571067567750123573,-0.0159511549281008205292132,-0.00102850631444260215939523,-1.17007713223429732352088,0.230914731994245031598822,1.14349378006826318809885,1100.09714219358329501119,1121.38285992701912618941,1102.69650352307849061617,1108.42216636404373275582,-283.560417603309019796143,639.444833410029787046369,-749.575175784655243660382,-536.139489416712081037986,154.373212544154853276268
4.26250000000000017763568,-1.39426612822708761996182,-0.908928025228375902067057,0.0654376237841154534402577,0.00511524866986576721289426,-0.00468702315463751829904826,-0.00418603970174731294245918,0.000459675024765791840307416,-0.00235641101070124944424911,0.0146326482141493630084739,0.999889941263851000918805,0.0151937521208237308334432,0.0638459023717445478540711,9.81776387938514716324789,-0.00871891723599663853727648,-0.0158776270699307435474434,-0.000993006448815742003358165,-1.17009760563468256933106,0.230870721881547558140824,1.14349701735802455893065,1099.50623064220576452499,1122.84891074406300504052,1101.16328859076452317822,1107.31428405181986818206,-199.335436999221826681605,544.842988138509781492758,-522.374601550893430612632,-374.393577408053488397854,154.372097613353815859227
4.26499999999999968025577,-1.802128176632846523475,-0.964594361859940296888283,0.208849224908934816280492,-0.000202484297395419984670617,-0.00609040398168676777590491,-0.00420923197445922936399398,0.00044499890029672513423048,-0.00240725058109060585653793,0.0146271345154853921882721,0.999889912689515214516689,0.0169131230910957858215582,0.0647461238603954519765793,9.81616988001142409814292,-0.0086581112160008678185763,-0.0157940658508346140620482,-0.000964485315345475378509543,-1.1701172073963586051093,0.230826612288444421583478,1.14350081899724909106908,1099.10046500858720719407,1124.10707486771161711658,1100.08463051532407916966,1106.55019847700350510422,-118.179463824710879293889,445.611353834065482715232,-358.082123017864773828478,-243.254586667995397419872,154.370916245236060149182
4.26750000000000007105427,-2.1437217216807895603381,-1.0275877418112955297147,0.416822567628087670144055,-0.00754377564578376756665445,-0.00868753917457566748883124,-0.00460673844299567831345188,0.000429467656366184602316494,-0.00246018081744127890819751,0.0146213553750881054826838,0.999889880048676182866529,0.0186736384567309093851506,0.065396333758809849223681,9.81459590283240856933844,-0.00859813366609193940881539,-0.0157017425561940711375986,-0.00094405859440286319945318,-1.17013623809004219111785,0.230782854130640868728364,1.14350343997541070706347,1098.91533332308222270512,1125.07696751323328498984,1099.37287797567523739417,1106.09801111847991705872,-6.43234734957231424345991,225.825927443212265188777,-167.400818405550324996511,-91.6146707983755277382443,154.369427092339662976883
4.27000000000000046185278,-2.29814715316115503185301,-1.05109865241428912518984,0.614492083049108184233944,-0.0139205731191301643884239,-0.0115111189466371843098669,-0.00470919880494999939374301,0.000411669592873197399789109,-0.0025151147527732319215954,0.014614701878913892094114,0.999889851336144497295777,0.0204721777543468430593521,0.0657526806028592702979552,9.81304558926499126414456,-0.00853971206342638358699482,-0.0156025583392844016672463,-0.000931911975837200869457466,-1.1701546871295929186374,0.23074047635076766482598,1.14350451009935216717395,1099.06830327183934059576,1125.23620450492785494134,1099.2476264232961966627,1106.09212512301155584282,135.095411063642274029917,-101.75270557188231634882,33.6192781333473149629754,56.2043488243501272449976,154.368130496924891303934
4.27249999999999996447286,-2.32958616649722038971504,-1.01472481561707805752803,0.810521953211855494814131,-0.0197959507950928731423446,-0.0145612899464737551025184,-0.00345470971803286779067133,0.000390673681064420915722002,-0.00257096570341283593361115,0.0146059171139562953001256,0.999889847246446472617265,0.0222864818193560659809194,0.0657872563330454407370951,9.81152334299306261300444,-0.00848331777657590144214872,-0.0154989119789968841922612,-0.000927560172971632042673851,-1.17017275808888454591283,0.230700107134480469905924,1.14350385711521784770639,1099.59081037840041972231,1124.5682039853738842794,1099.54097436634197038074,1106.37903286260166169086,273.510050047622314650653,-407.294308582786072747695,174.692359641407250592238,140.847715538169097726495,154.366780992944569561587
4.27500000000000035527137,-2.27741188622174561828615,-0.911948503893764139682787,0.973015538193918838594243,-0.0250546003654497605184215,-0.0177734425294041355203323,-0.000626910580421451190183402,0.000365879139488311144919053,-0.00262510964514542800146701,0.0145953268377293811364215,0.999889870171339789628462,0.0240641384920674272773766,0.0654856690322980772300809,9.8100338040172712084086,-0.00842917851526715430909853,-0.0153934558476543394134328,-0.000930117452135746647368109,-1.1701906406016115980151,0.230661395381175249319483,1.14350141478223599200703,1100.43585352207742289465,1123.19973296201396806282,1100.12108822150321429945,1106.79636370070238626795,410.039985798457223609148,-691.695781056765781613649,289.626241832872267423227,164.996833957960802763409,154.36539131853376716208
4.27749999999999985789145,-2.14694405627071471798217,-0.720212624806623624706958,1.0579206498186328744282,-0.029867089051598801063836,-0.0208285708695331202300327,0.00323206791034492870590134,0.00033634659375999468450269,-0.00267559019126474648825331,0.0145831857160971956749451,0.99988992296214818100708,0.025764957743456093353096,0.0648337453655902229421315,9.8085810407879385763863,-0.0083772010226703368801493,-0.0152888939895788663475562,-0.000938541724073508601064453,-1.17020854919859229603674,0.230623793580704172789808,1.14349832828335795653629,1101.64101030739266207092,1121.10972508009012926777,1100.9891055755063007382,1107.20401703239144808322,588.225443871727975420072,-1024.92773702954218606465,439.81018936106949013265,134.35815216649021408557,154.363957801642499134687
4.28000000000000024868996,-1.92100385709463616912274,-0.395848869809115599949223,1.04406673357311330363473,-0.0355221700680795823834579,-0.0234434911885940504283621,0.0077720354391468335353288,0.000302761043118866465806427,-0.0027175413191015190469968,0.0145720688600393440820246,0.99988998201194712045492,0.0272908579508665399826484,0.0638568009886125581564542,9.80716859179094591070225,-0.00832703710601205571162353,-0.0151877711781386315337272,-0.0009518214402523467784073,-1.17022648255229189118154,0.230586988929740582809913,1.143494581735819526358,1103.37698074143600024399,1118.07509427686636627186,1102.32013916830851485429,1107.46815446153482298541,653.004548485537497981568,-1143.62081398492296102631,532.508368414221422426635,36.0027188175543813031254,154.362192991175732004194
4.28249999999999975131004,-1.68553565752156964130393,-0.0670969039108385428837877,0.935963763146222649247363,-0.0401841246471201993251121,-0.0243807047624755128534257,0.0110551875561920882190536,0.000265198804789580806773319,-0.00274644892637702052462512,0.0145661525235150357548974,0.999890000111728460829852,0.0285485763417099996930304,0.0625746336419413518026289,9.80579888271498312235508,-0.00827808260529738944299982,-0.0150923693722183858978436,-0.000969109398547122720748992,-1.17024439748360808977168,0.230550750406711413287297,1.14348986436319099979642,1104.90603304982028021186,1115.39162101016563610756,1103.65164741757735100691,1107.3840306264792161528,580.29269479853940083558,-1038.51979110447632592695,572.188293859574855559913,-105.313175179255694047242,154.360689721684167352578
4.28500000000000014210855,-1.41475365840433342512483,0.288454175120999745107753,0.745643273828229480315599,-0.0442860112566252073218465,-0.0240010741636533589393743,0.0133844137446746981601198,0.000223922046453136816936483,-0.00276214200986332454948458,0.0145658098490474233882574,0.999889972861078946131386,0.0295273551215143453818612,0.061015958539725731468728,9.8044724047869422633994,-0.00822934402819460765476922,-0.0150047287108476621458886,-0.000989754058975818827581517,-1.17026264156398429605588,0.230514988775373186324913,1.14348441665378697251754,1106.27844421542863528884,1112.88249532134409491846,1105.18108063760632830963,1106.94158858563855574175,510.053502911125463015196,-1003.74810093019505075063,703.193809683924996534188,-257.142867202133686532761,154.35915821149939120005
4.28750000000000053290705,-1.07227793079377486940018,0.704004198854289442444099,0.45607168132059539011891,-0.0478558822506429740184508,-0.0221571630759046997449779,0.0149183508038498151976325,0.000177417451927311490287101,-0.00277215639935434301002748,0.0145713557721108520615072,0.999889873887514157857481,0.0303641131160446164916067,0.0591777688775262100673302,9.80318721028886663759749,-0.00817961134613224422063027,-0.0149265333604260558297838,-0.00101341330428745732793183,-1.1702817608805333726707,0.230479604183145697637869,1.14347945038540776963032,1107.45630056437630628352,1110.37288050551387641462,1107.16761646599752566544,1106.09831629046834677865,319.133513519325333618326,-810.793757268555964401457,736.457177942854514185456,-329.872118805458512724726,154.357294428777095163241
4.29000000000000003552714,-0.792070139164388620223178,1.01340376727853143101754,0.189494816963436729650994,-0.0496562176137550700949497,-0.0195585251285025248091376,0.0153630156586204488083913,0.000124034884362462247478498,-0.00278314998408368124982459,0.0145805228663514439835236,0.999889716772713654791005,0.0311752581635009462512897,0.0570591520206486305100135,9.80194023157912930344082,-0.00812747263356176918858154,-0.0148591184899033636884758,-0.00104014948289268068133684,-1.1703016413042783838705,0.230444674759603035374411,1.14347563592849010838393,1107.87411178302522785089,1108.82852653500140149845,1108.86336652732052243664,1105.29222799161129842105,26.4553136165892475162309,-494.586357007312074074434,662.699283093493704654975,-298.786678250286968250293,154.355724638448776886435
4.29250000000000042632564,-0.536789316474233446641051,1.25947104299843504193746,-0.0773128212554161364788996,-0.0505242569774232916368639,-0.016012154649977690390461,0.0152919915769227834217991,6.40375405387333992545534e-05,-0.00279885075896899081573932,0.0145910564381055776750351,0.999889523140910618792532,0.0320172538178911253448078,0.0547005520606791417748127,9.8007276044580926566141,-0.0080715214778862807987192,-0.0148033916216689445666255,-0.00107027983520778763142089,-1.1703219371890798417013,0.230410233022912969147455,1.14347291108230786349509,1107.58857713245924969669,1107.89994872047736862442,1110.48111288146492370288,1104.60438289921694376972,-230.916552548756413898445,-274.531625777541592015041,617.417043977925004583085,-225.74234268832267957805,154.354143640063341536006
4.29499999999999992894573,-0.309563401993662112854366,1.44288564731462476409263,-0.328515080225176059336434,-0.0508979112471076647339352,-0.0119459702704759543334667,0.0148789286251461583959754,-4.03974766913760014591661e-06,-0.00282211281334526168512733,0.0146011124863062273504521,0.999889311598667451796985,0.0329261927938673953919491,0.0521104065734839944079582,9.79954452562895816924993,-0.00801047669961352411249766,-0.0147597753231558659336997,-0.0011042744529613855546113,-1.17034212418520167098279,0.230375816959483670220976,1.1434713861697176628951,1106.71952902028147036617,1107.45586840611372281273,1111.95045174721008152119,1104.1635162781697090395,-465.195145147946163888264,-76.3922796810236803821681,537.75126135752782374766,-95.1322410447594251081682,154.352557791079732396611
4.29750000000000031974423,-0.114674520391598838697789,1.55096555463633656302136,-0.542936737992701923261052,-0.0509554824950409074313384,-0.00790912240202559964352691,0.013713224847322577973352,-7.84035113932497019573545e-05,-0.00285090031447313152490608,0.0146091997806561523648439,0.999889108592148745380257,0.0338410217254576650702802,0.0493626489527329431750147,9.79838568152026923030462,-0.00794321523518117834916641,-0.0147282018220209285491729,-0.00114247929462702900102467,-1.17036192089331070320668,0.230341323056632851784542,1.14347098868675778327031,1105.26260140671956833103,1107.51798732207225839375,1113.16986918825250540976,1104.12872169399315680494,-722.084910525260852409701,117.341613864848795856233,471.544330538118686035887,82.9467952068643512575363,154.350971248468908925133
4.29999999999999982236432,0.0942098792366633380757079,1.60585996142154607824182,-0.735163644724989961964923,-0.0508815135653316874542185,-0.00360024101865243344872125,0.011358957666163507424506,-0.00015595692738720978677211,-0.00287993371789096140600517,0.0146145063756424036655046,0.99988894065649136511098,0.0346359909667827842172372,0.0465564624784623737330236,9.79724500657823504923272,-0.00786878038968821455489966,-0.014708119912641624132954,-0.00118496095555607815034971,-1.17038179841941603065436,0.230306773297990707849436,1.14347115218920336587871,1103.10910446765524284274,1108.04257647543795428646,1114.30817339990062464494,1104.57825025420402198506,-805.778613049614136798482,244.231766842863834199306,365.747197492972702548286,233.305556364944521874349,154.349072971767526496478
4.30250000000000021316282,0.260145090739170969929006,1.59969644709314429142921,-0.828367043933022517698817,-0.0507531320454260928554113,-0.000151936494305167629076392,0.00879017571488771055909783,-0.000233018043358719484890729,-0.00290284823394015454797734,0.0146166797754015993088261,0.999888831616196793738993,0.0351636376285874990843539,0.0438002729734604107081353,9.79611519936000618713479,-0.00778639361631510654865318,-0.0146985233566207830480099,-0.00123135938883801193156897,-1.17040247797136753860059,0.230271872323688675532338,1.14347074648678215247344,1101.2337083414715834806,1108.73914615628655155888,1114.99860517571732998476,1105.29524947581785454531,-703.518536358266374008963,302.863672346581665806298,231.414524861207098638261,326.299365972051987228042,154.347500172915914617988
4.30499999999999971578291,0.430997465717847139110575,1.5467833408639557468689,-0.846355965189450998309439,-0.0504959212850515648529637,0.00355599565347703479994967,0.00598942748839376669367507,-0.000306434014840129085449627,-0.00291849403595775954908809,0.0146174995494084258157441,0.999888758456522586115511,0.035378970456590483339987,0.0411867050057660374906554,9.79498646122114458023589,-0.00769561876327541204839688,-0.0146979640605877526909895,-0.00128079841036770974115055,-1.17042450507396589287623,0.230236384729957471728667,1.14346994196950402233881,1099.59151178586398600601,1109.55689483717083021475,1115.46524602420663541125,1106.20974708406424724672,-577.702439082453111041104,326.25657563308561748272,157.145012562344788875635,367.917409290711134417506,154.345941902268918966001
4.30750000000000010658141,0.610564160984918280483669,1.45722375447327245900908,-0.807105747345870816467084,-0.0500100294454506391628179,0.00747812016767837334924041,0.00341163318514241210507865,-0.000373944015859703927234792,-0.00292609034368574707704602,0.014618761490035148825628,0.999888697446659535650326,0.0352455391673021228848839,0.0387860890184962212035025,9.7938472033550656448142,-0.0075964829371854376491302,-0.0147046591802489669265075,-0.00133201204695894046513283,-1.17044790083292982174612,0.230199923606819928378897,1.14346888572836746789108,1098.34519614605937931628,1110.37042903445194497181,1115.78433023852903716033,1107.13483652227137099544,-371.860539335590203791071,305.45680416807726942352,98.7081123550370023167488,334.88022164132638636147,154.344399310558316074093
4.31000000000000049737992,0.795908265036416429083488,1.32781454646625385329628,-0.715475691601610730430139,-0.0490434104841730444945824,0.0112142061273029988721639,0.00146810774746681475116938,-0.000433003802521664087066267,-0.0029245374960731730477892,0.0146196788801831283055588,0.999888664496910606338531,0.0347235856474604615007351,0.0366691918599819990931543,9.79268418574313059821179,-0.00748962666162210789072562,-0.0147166460389722350554642,-0.00138336337211799145253954,-1.17047141605290883070722,0.230162559403734673368902,1.14346679354261260286307,1097.73220908918574423296,1111.08417885801145530422,1115.95878658598189758777,1107.88414819227114094247,-112.00010585703478227515,280.414107517759987331374,45.9527379801794069180687,251.180729955245510609529,154.342879822492079711083
4.3125,1.0041238941469632361958,1.13917201726403738426541,-0.572831241137157776144306,-0.0470856692738822399380005,0.014741854903651048502855,-0.000114647412499423374159305,-0.000484033625484886519726307,-0.00291214082468284644542034,0.014619744220281354410429,0.999888672757698437898455,0.0337651195939531051370963,0.0348427955974702288632905,9.79148283814767950161695,-0.00737652876767195750384865,-0.0147318598996116715410531,-0.0014330406952461096064394,-1.17049366970438639690144,0.230124604669800475464925,1.14346260487283912787859,1097.78519561677421734203,1111.77249957204071506567,1116.01409392842992929218,1108.39074017204757183208,138.287572563152252769214,228.71729560625260546658,-7.87656665361299435090814,107.592226972749372748694,154.341088245057846961572
4.3150000000000003907985,1.14141897840020134502481,0.966134062031931528657935,-0.446234136824298355250562,-0.0446815404402251467597118,0.0169453651337111189933982,-0.000967621833436111138289359,-0.00052874423066056339473584,-0.00288793042917447062567504,0.0146211447628760704553486,0.999888694014032242129986,0.0323415082389591351796909,0.0332815657710058554474841,9.79022751656524903296486,-0.00725954525690738344811948,-0.014748211548549172017486,-0.00147921252428407463616611,-1.17051391725310449665187,0.230086524633064865019705,1.14345573394540656053664,1098.42364695200149071752,1112.22776533604269388888,1115.91940375271383345535,1108.42210932713487636647,343.902314361601440850791,176.250709240370383668051,-73.3533932625066142918513,-61.3747326395254617636965,154.339625088334599922746
4.31749999999999989341859,1.20629814590242512295504,0.787882124297987540550992,-0.329556560660938135942644,-0.0412497754948058376056608,0.0190046641061371174297179,-0.00152894980731868882981028,-0.000566592636675155724053365,-0.0028527667275288085338425,0.0146246395633810675335207,0.999888717270082105770257,0.0304671218306923619056903,0.0319976063719413089669885,9.7889021764832708782933,-0.00714160152600981906062527,-0.0147637136892938697352307,-0.00152025051768917224617739,-1.170532089438073519716,0.230048809496441575284109,1.14344625156367341034525,1099.50470718858218788228,1112.65375311824254822568,1115.64732696211740403669,1108.08386650884995106026,523.007281223737891195924,213.160683827441062021535,-168.627269898573956652399,-201.59266188484681947557,154.338196238247832070556
4.32000000000000028421709,1.16505229071759952574894,0.57725569383869135275944,-0.213833523744711179181976,-0.0361276675566112870363611,0.0213099678909526371595184,-0.00192858428756973311439527,-0.000598733035197480945033277,-0.00280855658948287725470983,0.0146297072657823965663448,0.99988874662490112577018,0.028183592977455013128818,0.030963537073410089817127,9.78749168809602565488603,-0.00702593597013435530729275,-0.0147764569792576457712974,-0.00155524357299504983540017,-1.17054836582495425112427,0.230011294596773940845935,1.14343472979582783111141,1101.03868335812012446695,1113.29356875517987646163,1115.07626740322098157776,1107.41414601771066372748,560.168266647781933897932,280.321928863947107402055,-254.374041138185901900215,-257.976841867826863108348,154.33652439020039537354
4.32249999999999978683718,1.0201453011698775608096,0.413258107828182119636296,-0.142192842614520281729895,-0.0319163808179645167029115,0.0225944444191354086581836,-0.00197083321819918480879985,-0.000631117360654526366771366,-0.00276217122290478784077394,0.0146365764622773467107386,0.999888755631155090597417,0.0256359547911528956598559,0.030050978203932997984138,9.78598258338700688341305,-0.00691591192674545929969243,-0.0147845461278973949043047,-0.00158436815645060643728548,-1.17056287991093732614445,0.229973059835743981471623,1.14342287764412642303569,1102.30554852182103786618,1114.0553627625622539199,1114.37545675642650166992,1106.79398229951084431377,460.770810504628400394722,372.972194009079203169676,-328.091524962435585166531,-226.656461205225525645801,154.335168587901023329323
4.32500000000000017763568,0.772480125250983640228242,0.274891479191688936634108,-0.0957803321710194721649856,-0.0288466514618848993145583,0.0229359739567308561214443,-0.00188563191935353733491576,-0.000665849610379690083801496,-0.00271750172633771543834191,0.0146444879273484648146697,0.99988874096914948097492,0.0229195122226582559399333,0.0292029928749897582651585,9.78436591292080670712039,-0.00681470431031558528112146,-0.0147862001782137555960794,-0.00160890209476760364867842,-1.17057594048655611018717,0.229933552160215659565523,1.14341227186956384542782,1103.34253741064321729937,1115.15842972522523268708,1113.43580977840883861063,1106.28086371168456025771,352.075404564455539002665,501.605859809716775998822,-411.383031384966329824238,-170.718491601159257697873,154.333853116552035089626
4.32749999999999968025577,0.464944033914832965947994,0.165920049585667167546532,-0.06506392292958734779873,-0.0269163050445587158365779,0.0227955840144060013774396,-0.00194559017858022750835367,-0.000703992979987702171412733,-0.00267777230749372463156077,0.0146542844236279400788048,0.999888678938639419158108,0.0201238525408606733213546,0.0283791592012547777557074,9.78263825000437314827195,-0.00672517681078428283814041,-0.014779860321273222134586,-0.00163120336144443353436351,-1.17058761531775301634184,0.229892459637728890919917,1.14340380133441277266115,1104.06592554464327804453,1116.56339206161078436708,1112.31854159950171379023,1105.94038984150506621518,194.783116952116472475609,620.064325597617880703183,-476.176361532326325232134,-87.3191154361866637145795,154.332571774794786279017
4.33000000000000007105427,0.126391497005936964681538,0.0935723553971167937293174,-0.0432344035721446695585968,-0.0261513992433792391567593,0.0225228472169159595062116,-0.00227786538266785748216292,-0.000748056828551416476760783,-0.00264585976433319479753092,0.0146650900856580990866407,0.999888571760947808542142,0.017337505687490581407495,0.0275083307423157237547873,9.78080275928993891909613,-0.00664960361209674093857513,-0.0147644450146504971344008,-0.00165451056088466020958794,-1.17059798109343948802064,0.229850104856247045015394,1.14339873897186827811367,1104.3164529954037789139,1118.25875135321325615223,1111.05492797074725785933,1105.84426813450363624725,-11.4436174820166645105246,768.66681639891601207637,-559.884375355981092070579,10.771635725130316529885,154.331331890568094422633
4.33250000000000046185278,-0.258160773580629887558047,0.0383460662637286134324377,-0.0155235356984293054738444,-0.0265272172021002103359244,0.0223044258897499327043423,-0.00280369643995684618073549,-0.000799272046509197711672279,-0.00261909356127600643007747,0.0146753769602305447761204,0.999888446957628240774341,0.0145458452921591319118022,0.026544655461726532341693,9.77887067255910658047924,-0.00658951748235553358412631,-0.0147395608117931765923547,-0.00168249918799957061572858,-1.17060752606311480050749,0.229807237797202357221238,1.14339698710489279243063,1104.00870745723318577802,1120.4067261436059652624,1109.51911972272137063555,1105.99424802013072621776,-216.290997027458672619105,759.61256478973859884718,-537.560965249633795792761,91.7194199809747772178525,154.329891776230709865558
4.33499999999999996447286,-0.518940542260909132288305,0.00429414130521648187976957,0.0132561429878245429225814,-0.0278644715986844961064239,0.0223412600714824362280186,-0.00313612726869533448362248,-0.000855811831486174559233127,-0.00259178460847963275381911,0.014684221236817097955285,0.999888334392253996796285,0.0116797093672046520262953,0.0255029322093522532732823,9.77686112944265950375211,-0.00654563286414923221900874,-0.0147056321452568999896826,-0.00171869450385366993525049,-1.17061739706348655332135,0.22976490020526824098468,1.14339723047935004629494,1103.23499801026650857239,1122.05681417716186842881,1108.36712314449914629222,1106.30286523440850032785,-412.611206757592015037517,567.888473842925350254518,-398.413962189678670711146,151.79171554787313880297,154.328731107546587963952
4.33750000000000035527137,-0.673149475420834253469593,-0.0374304253372688966461368,0.0472032869251472336769027,-0.0299895597239435950098763,0.0225994726712262540557763,-0.0033047934901356888597046,-0.000912758607696417226425034,-0.00255848668685065925437749,0.0146901386101016568491717,0.999888274717596337026748,0.00867765141502131742701209,0.0244597650995761334291601,9.77480049691041941173353,-0.00651780610344536957823092,-0.0146639189494590198303836,-0.00176602755740000211433227,-1.17062821546437101360993,0.22972454526493490956085,1.14339772299581454717554,1101.94565142344526975648,1123.24616851282053175964,1107.52704991177301963035,1106.7532065978700757114,-673.062454751212271730765,351.054184038101311671198,-265.47720976450932539592,222.62226412226956995255,154.327610792931295691233
4.33999999999999985789145,-0.695075768617006151117721,-0.116659126983469307869967,0.0869109839720791366168839,-0.0331602796294407364818824,0.0227942223032284313477547,-0.00316820455901329787670728,-0.000967970509105340855618427,-0.00251825205764041057734937,0.014693453144032872850766,0.999888267873629055237927,0.00556580688783718524614841,0.0234387176916587385011592,9.77272108864650057569179,-0.00650522167687389487461536,-0.0146162915718156434519148,-0.00182675582240986048368492,-1.17064048668535058972395,0.229686416682429062063875,1.14339810612161940639453,1099.86968573651051883644,1123.81208509735233747051,1107.03973709567662808695,1107.41597655501982444548,-832.876172897767446556827,32.0267379334843553806422,-81.5028327239832890427351,259.790846241327074039873,154.326312253087223780312
4.34250000000000024868996,-0.559996072406482192640453,-0.217137770707365090894214,0.111929959478232032843437,-0.0360683601675709855638452,0.0226080095772835248935095,-0.00275539086441028806262477,-0.00102268677201090298599373,-0.00247208666069963917122365,0.0146947290244893290916961,0.999888302921490113028824,0.00240636000286584272878088,0.0224004509353222455714238,9.7706604531323169027246,-0.00650652007995039614179911,-0.0145649591052279675507108,-0.0019024642207904913365768,-1.17065427384078790673527,0.229649815434355697441049,1.14339812062430357109122,1097.78127055895652119943,1123.40630220248795012594,1107.11953574815311185375,1108.05216082907668351254,-881.068059737181670243444,-353.329140074045653818757,125.568145243371816377476,268.236691504949988029693,154.325267641722717826269
4.34499999999999975131004,-0.264883611194764001517399,-0.360792185380140906225677,0.121132251948193381263508,-0.0385513333578254777100902,0.0221800999897377101865992,-0.00208904648659129438606485,-0.00107554418978935187843626,-0.00242376604819464699924758,0.0146937599588857180366031,0.999888376161096048555521,-0.000686219828341723403486441,0.0213602452085128562131455,9.76866009617963904076987,-0.00651998845921370352024526,-0.0145122323425943920011116,-0.00199389330621677811697379,-1.17066907449673385244182,0.22961427712671056422522,1.14339722129590670718358,1095.46434543782470427686,1122.04543939698214671807,1107.66757782189347381063,1108.7571600125445456797,-936.287567661631328519434,-684.391989170004308107309,277.260671654636553284945,289.085450004228505349602,154.324261021976667507261
4.34750000000000014210855,0.145329725105459522938034,-0.542805909298305078181102,0.115092548755027376805593,-0.0398724648353528873800933,0.0216434822678043155275152,-0.00142535798693661200538252,-0.00112684511848754271082229,-0.00238007608801692454453258,0.0146920194733081484889103,0.999888449930417144706496,-0.00354294296945072140214705,0.0203047703866931841809595,9.76676387723691163955664,-0.0065438202980972279970695,-0.0144602865622478708035326,-0.0021011223982389036317453,-1.17068436731137959228022,0.229579225554421645361103,1.14339576029092704345658,1093.09983272064846460125,1119.98434225663800134498,1108.5058391064262650616,1109.49758807909779534384,-916.574053396145700389752,-943.155621337871593823365,369.591652364385026885429,295.715371088180461356387,154.323285127396815141765
4.35000000000000053290705,0.652960519825426577433802,-0.767911540631887934438282,0.0939105194158140060833873,-0.0393792294869873271689897,0.0208293323067104269030736,-0.00101161009904361122967165,-0.00117370440998468012622213,-0.0023454336085230328111384,0.014689510815181520617112,0.999888517298171408675955,-0.00604492125775078770200111,0.0192886854855046432910548,9.76501703018485933682769,-0.00657611374143083748239347,-0.0144111112570049666736782,-0.00222356624730267156755947,-1.17069962012573536291882,0.229544768632380130624071,1.14339380041815208421951,1090.88147517084325954784,1117.32966129029205148981,1109.51553608371568770963,1110.23573686798567905498,-888.089331314013975315902,-1216.24232211331991493353,434.223622699810391623032,307.955041738439092569024,154.322345247688730296431
4.35250000000000003552714,1.30611578099026348631639,-1.07059818430901865227156,0.0602586030987062107322494,-0.0367033548405255594104801,0.0190939095959834562177271,-0.000898194272642530351126455,-0.00121445044888966280187403,-0.00232117379964460329722087,0.0146864192587036427456448,0.999888575242829036326953,-0.008139188525192381229445,0.0183485123110018917558239,9.76346432524248974971215,-0.00661494614502457223270682,-0.0143663987152272184383284,-0.00236016084896303011964047,-1.17071483698161515896174,0.229510925474105204058262,1.14339116035187893238856,1088.65938606407848965318,1113.90313064607153137331,1110.67695721992527069233,1111.03736328778995812172,-706.76382214702846340515,-1224.89036997870130107913,387.31441681184975323049,266.644935201935595614486,154.321257577996476584303
4.35500000000000042632564,1.83257125952441124461245,-1.32639553139044763518939,0.032628757843995929988079,-0.0326032219030048600605376,0.016619658510726154770909,-0.00106936320085533934608202,-0.00124714756368456982336956,-0.00231183765064554846979661,0.0146826783869799942783274,0.999888617524829381721929,-0.00971592622902026775699724,0.0175292184221901639618046,9.76214783139693409452775,-0.00665838249255973433499145,-0.0143274863398722730745138,-0.00250928253303921156014411,-1.17073053371102764330658,0.229477332826922286734828,1.14338807068824754864522,1087.34765606010819283256,1111.20520944039867572428,1111.4521081677748952643,1111.56896154399532861135,-384.28828782649270578986,-967.648642216202119925583,249.43585373585469255886,171.300704259650956373662,154.320383539040989262503
4.35749999999999992894573,2.27804783508855379636771,-1.5482807733651555714971,0.0108573006360555140981106,-0.0267182022471164695720525,0.012738437955001532739252,-0.00132272717603219109802626,-0.0012657281627225624564409,-0.00231881067838926677865397,0.0146762714321113305060429,0.999888677964623329152971,-0.0107317648398183168589881,0.0169608859505832772207601,9.76110607514870132206397,-0.00670442051259811499369645,-0.0142953509531743086502509,-0.00266875529671471971998598,-1.17074702303425448590701,0.229443928566526872403486,1.14338417462216024311772,1086.7379446249460670515,1109.06488743499062366027,1111.92413648860451758082,1111.89386680908819471369,-119.135347475096565972308,-718.566313614580280955124,136.120503142413497243979,91.0232186509821445952184,154.319541638327478949577
4.36000000000000031974423,2.61770988609027854820965,-1.71363524617420370788068,-0.00575193884241852540495366,-0.0198508098598477733531809,0.00779032625893081795420692,-0.00141313315319095580795128,-0.0012682037867745488048804,-0.00233987547108750575108882,0.0146675545483070830787842,0.999888758260387477960762,-0.0112208782389678698998559,0.0166974916811095698554457,9.76037237576281668793854,-0.00675117962066259982151228,-0.0142704863060316468337252,-0.00283614174699184677305719,-1.17076410171730116438482,0.229410609451732055985573,1.14337914393517015021473,1086.75197932273272272141,1107.61237787232585105812,1112.13271068348694825545,1112.02407763725022959989,150.044241261051439551011,-385.530814037119000659004,28.966060634912246030126,7.01065845455574532252285,154.318725248660228999142
4.36249999999999982236432,2.79785983384448844191184,-1.78769371364329110463132,-0.0187920787794384688829119,-0.0123293745129929716020101,0.00231130907679966352344381,-0.0012502388047755672376149,-0.00125916165887551769093922,-0.00237207043844202053115011,0.0146577080879463465812318,0.999888841259261029748018,-0.0112396693524782070872092,0.0166665095609398079823382,9.75997335471179461308111,-0.00679694783644082915763374,-0.0142528902656186510361502,-0.00300886731565534098001291,-1.17078143172591975229579,0.229377209017522953882207,1.14337258759649795791802,1087.48816583125130819099,1107.13723336480506986845,1112.06896679177907572011,1111.92892010136097269424,465.045570875155021894898,18.4493319422476211855155,-72.7523863084131363621054,-85.2668025923794630216435,154.317938170594061375596
4.36500000000000021316282,2.80847673085036664275549,-1.76445337039343508322986,-0.0324411197552659513743123,-0.00298517176737250625531694,-0.00389518443100126234360236,-0.00106126886875964536287309,-0.00124357191655787642677045,-0.00241453423123289987947682,0.0146477354964804074022311,0.999888907535423698824673,-0.0108090986614444023450332,0.0167879955910857532608293,9.75992811009952276890544,-0.0068402163641923989859106,-0.014242110430467077447636,-0.0031841367066395669105372,-1.17079874525922988937054,0.229343774306979442112464,1.14336496754564787003972,1089.07720717710844837711,1107.70462453203708719229,1111.76894875194489031855,1111.59774362428834137972,670.323662811202439115732,372.838186523730428234558,-134.685471024616305157906,-150.836689032761142925665,154.317025600763003012617
4.36749999999999971578291,2.64507548921436264066642,-1.66236070222761256331978,-0.0407483025121421343905936,0.00476699043453171922984923,-0.00841125454040615901096789,-0.00105993041023182284730841,-0.00122512569282506151267798,-0.00246265010720679968295177,0.0146382235842811743442571,0.999888954346286551455592,-0.0100279770689919375814547,0.0170076698596377390293455,9.76024828006721634210408,-0.00687964247862943474587372,-0.01423727518253538500137,-0.00335909152981371831800383,-1.17081600992827983276356,0.229309929236833492938175,1.14335647150134112060016,1090.83978414530724876386,1109.00142429742368221923,1111.39553943665600854729,1111.17473665619718303788,750.190874398792971078365,634.978898065733005751099,-165.138855609533379720233,-195.229582598089621114923,154.316290236478693032041
4.37000000000000010658141,2.32047199380863222728522,-1.49802460633166845127562,-0.0415506933007174089622637,0.0117318276665688558946243,-0.0120292768944828334931607,-0.00124810536009307818973435,-0.00120345642718855871597383,-0.00251230195989265818468095,0.014629739748664683310353,0.999888983207935400088218,-0.00898847203398826788411924,0.0173489771924480971898586,9.76093763076088549723863,-0.00691406627563014280352105,-0.0142371536103865214961672,-0.00353076498221246591266431,-1.17083313747079031941212,0.229275326329519996138018,1.14334707567787341453425,1092.82816154910233308328,1110.87951902236568457738,1110.94325447389724104141,1110.621595711297914022,867.070618576645756547805,878.809805297077218710911,-212.941543580667172363974,-272.480595476056976167456,154.315579087488742970891
4.37250000000000049737992,1.78844722842898673498269,-1.25865290356074721600521,-0.0287856316351884529425309,0.0181240486785257150226247,-0.015256593179802394044664,-0.00153093268502037553255302,-0.0011787531537005980879218,-0.00255757543428135900379083,0.0146225662284740366009261,0.999889004462750530244364,-0.00782157139383110600050486,0.0178229343606095130825295,9.76199225202104159393457,-0.00694246386512925237055605,-0.0142402217810773373124489,-0.00369632437790925246628992,-1.17085035871603837520638,0.229239857545075809142077,1.14333627008751581577428,1095.17513723819115512015,1113.39547332390975498129,1110.33083171875250627636,1109.81233367881668527843,811.359199429643012990709,906.374652017640300982748,-235.670350528567297487825,-320.075460836330876190914,154.314751477557422276732
4.375,1.26831824560416794867024,-1.04003261635580979138638,-0.00472634997768080818841829,0.0216084149418370036199732,-0.0175745753950937860787818,-0.00157723263058465244627893,-0.00115261676624897851754781,-0.00259495846733301957845463,0.0146185305476782163858207,0.999888998578495113989106,-0.00661454763502074966075028,0.0184095489404587572823679,9.76340063345242192838214,-0.00696402113943136395063371,-0.0142447523388349647083251,-0.0038531518447564180006315,-1.17086789107937150333782,0.229203452566257570577335,1.14332405345369214622053,1096.88495754625046174624,1115.41139228245378944848,1109.76490272125442970719,1109.02121840711629374709,591.592034642702742530673,732.246272596437052015972,-236.769900059749090814876,-335.376257015384794613055,154.314081601182579106535
4.3775000000000003907985,0.719483968544319063553871,-0.811277453964059924729213,0.0343111295553445438955009,0.0233813082077763793875658,-0.0201265619240448383198139,-0.00134994076100967107245676,-0.0011234038422796015655597,-0.00262628430698798190703891,0.014618668246768764737431,0.99988894726525601175382,-0.00535122654732346492156836,0.0191476041631501864292986,9.76514426139688218597712,-0.00697812280903965971579073,-0.0142490153097174117313717,-0.00399881258495632385674412,-1.17088608000203731052125,0.229166372689231456760695,1.14331090526915857275014,1098.13309741140460573661,1117.05670468689186236588,1109.14698221845378611761,1108.13545239373979711672,404.897585045191135577625,569.987264849226789920067,-252.465333448395455206992,-361.452763932046309491852,154.313430218723937059622
4.37999999999999989341859,0.180017811165500196679545,-0.580148045047441218713402,0.0876471130773205514552515,0.0238517560993372068622875,-0.0224412405077828967792097,-0.00107439268810939994071296,-0.00109039868934515866462365,-0.00265427725235772068307361,0.0146227790178261127934656,0.999888847684021087047768,-0.00399914910436308806973571,0.0200543884320720823544182,9.76719883677628963880579,-0.00698438633608950733278053,-0.0142513724167714246615635,-0.00413135108756834245474776,-1.17090540460244096898634,0.229128867357054566422647,1.14329714267709503516812,1098.90944547147637422313,1118.26132860669986257562,1108.50257605401247928967,1107.21395458745610085316,196.369410871106623517335,362.827206179834774957271,-256.21343016960599925369,-362.180081706636428862112,154.312792596035876613314
4.38250000000000028421709,-0.317483346799242560631882,-0.360638586628793111898972,0.162917234556686968405259,0.023081397165925374159734,-0.0236978542946285897219383,-0.000866790091363553319783741,-0.00105682325174552517108029,-0.0026835194763565476186451,0.0146291527042811345810103,0.999888709467657843532606,-0.00249056136035898795233479,0.0210667191138309041475996,9.76953528484933286790692,-0.00698278613595278499492913,-0.0142503392271703267085714,-0.00424942904134217695755193,-1.17092508207563117395011,0.229090816287080473179216,1.14328314753751247856428,1099.11494446576011796424,1118.87084071779099758714,1107.86591506760578340618,1106.32455198520665362594,-14.3593669993609509560883,131.80556206539503705244,-264.578784633982820650999,-362.804874354704679717543,154.312169611973160954221
4.38499999999999978683718,-0.838234610690520853815144,-0.136481567330102693258453,0.284747419647846666812541,0.0212685659140580997361614,-0.0237835609473559667081943,-0.00068552555238831649163378,-0.00102538741684936145215357,-0.00271296129476123349527628,0.0146358985484152850226058,0.99988855973623036454967,-0.000866546334825232800191941,0.0221301932614498646223478,9.77212197786988312486756,-0.00697372384345448098619258,-0.0142446750751124805167702,-0.00435231930094989380441994,-1.17094399712712471384179,0.229052396009568892676356,1.14326874020761959371839,1098.83764863647957099602,1118.92035641702682369214,1107.17968213084259332391,1105.3999302156826161081,-152.903269289302983224843,-87.776308789172674096335,-227.77400225659707189152,-301.896835061376862086036,154.311436374393110781966
