t,ang acc x,ang acc y,ang acc z,ang vel x,ang vel y,ang vel z,quat x,quat y,quat z,quat w,acc x,acc y,acc z,vel x,vel y,vel z,pos x,pos y,pos z,mot 1,mot 2,mot 3,mot 4,dmot 1,dmot 2,dmot 3,dmot 4,vbat
34.0925000000000011368684,-1.87368221496885145604949,0.257654992464164400711724,-0.146320336334608530615142,-0.0641676757782040363409237,-0.150163687239418697227933,-0.0503266152174977887678864,0.0248838933999798068985587,-0.000909161501598212853751668,0.232421433849173075802952,0.972296164711471067043647,0.0430733699504943917668598,0.00152348840788449346739242,9.85628180598732939188267,0.122125133212374697988523,-0.00557434835535028112146749,-0.00583650897116461033625745,4.56174518776758741722688,-0.981291581556376302231115,1.70041328598971674956886,1136.02803809887018360314,1138.45915546326091316587,1149.10870180933852680027,1144.11351784171188228356,36.5710354656008078677587,-39.7421146043959581106719,349.84095761660665857562,815.264980005408915531007,154.07477093690434344353
34.0949999999999988631316,-1.90422796665884486166931,0.235849737590949543042385,-0.0520271683884515542817262,-0.068926727742270932353108,-0.148765641811695020768624,-0.0504588205256195979075962,0.0248773679721673406095572,-0.00112657661088250149461487,0.232367122630615985379166,0.972309089670235993096981,0.0447823139333547309837158,0.000763059699705331828667454,9.8549987736613520183937,0.122102959267836139178875,-0.00662254812962034377504805,-0.00570767534906722710796867,4.56202229709829065740223,-0.981170844914106110579155,1.70040694487760712938496,1136.21900050185081454401,1138.0786734319460720144,1149.95107610032800948829,1145.87844016323606410879,107.196838411609590480111,-254.30986096035388754899,346.272093814154914070969,610.367933764979738953116,154.074369124534740649324
34.0975000000000036948222,-1.86898820232505369354215,0.215243757953848924291407,0.0357248053865073314505629,-0.0742200569314399594134102,-0.147812648189268175391575,-0.0505151015716971685254322,0.0248594862453509896083048,-0.00133637398430273509654376,0.232314205065723394794119,0.972321916709852906990363,0.0463385641153953725668302,0.000305002815567112506300873,9.85351572580155554703651,0.122078949531223626689957,-0.00766408904526979031790468,-0.00558891658535948590569298,4.56230141573950920275138,-0.981054214952740588628899,1.70040125160423816197408,1136.56402229092850575398,1137.18760615845849315519,1150.8400622784101869911,1147.16535751053834246704,171.702236406875641705483,-486.113792800212252132042,380.875671584713700212887,413.948953015021402279672,154.073941470125362229737
34.1000000000000014210855,-1.7482326208093936781296,0.220599839737873448797245,0.130139351856785351335688,-0.0805893897234342959645659,-0.14728803710686066974489,-0.0505143499272075191530718,0.0248322137307004746353822,-0.00154414638604969669741229,0.232265491461065287648324,0.972333915666767967245221,0.0478441133036741766959565,0.000154175701005815346533723,9.8518731866917850226173,0.122052784957715779179388,-0.00869704776596969160451511,-0.00548292981299148846768832,4.56258198613967280721226,-0.980940837657223840828635,1.70039523510717072163345,1137.07751168388563201006,1135.64810446794376730395,1151.85545445825255228556,1147.94818492831223011308,192.63699515294558750611,-619.521060380856852134457,344.788708547589351383067,152.476770545310927218452,154.073392520952694439984
34.1024999999999991473487,-1.59300181997705792014131,0.273614142833957296740977,0.195533627647507479707656,-0.0851369964839473469808695,-0.147363944776672667336115,-0.0504121061763864453109107,0.0247980477091993521676638,-0.00175480288541790562829858,0.232221755072419988596977,0.97234483183947950646342,0.0493897675053073109685542,0.000321637549302838943177107,9.85011527046314938615978,0.122023599206801683370038,-0.00971976895107388126626713,-0.00539150491953741331507821,4.56286416197236821545857,-0.980829918617053597706956,1.70038867301772089746237,1137.52720726669235773443,1134.09000085655702605436,1152.5640058211465657223,1147.92774136326420375553,168.486880599225713694977,-649.778075736807750217849,233.138413970772376160312,-132.227192189453148785105,154.072900755332284461474
34.1050000000000039790393,-1.40672005218488904709773,0.398715015728383304072224,0.237994802852517256530618,-0.0884359652037071675145796,-0.14774242998535605519983,-0.0500822749368063438457632,0.0247647369283474673429257,-0.00197182590121917303976895,0.232178616449319807912843,0.972355509846724808120655,0.0510640247976045930089484,0.000919961668924718090067927,9.84828742048749994353329,0.121990110306966603737067,-0.0107302311401168866400457,-0.00531561958592233207987476,4.56314897968899124691688,-0.980719454498290676980332,1.70038137993692650695721,1137.91994608688219159376,1132.39921408925806645129,1153.02114652810701045382,1147.28704896736462615081,133.743696083661035345358,-675.541451749604675569572,129.228153907140324463398,-332.696471029715098666202,154.072368109236634836634
34.1075000000000017053026,-1.21603011609560085481974,0.588526955015066355336728,0.251478009229609611452361,-0.0908475199239500569303729,-0.148270073654016704134406,-0.0494330212793068698995391,0.0247397365513731572195244,-0.00219489157631298477738047,0.232131912576634402700648,0.972366758652281615304958,0.0528805419911280855105318,0.00206823321646271152118857,9.84643656847129378206773,0.121950792056922843742406,-0.0117272692698663257016012,-0.00525471965864613560492913,4.5634366590072419356261,-0.980608200978570931916067,1.70037376587215494083694,1138.19592574711100496643,1130.71229359780727463658,1153.2101465906825978891,1146.26425900811477731622,63.2120919134315144560787,-648.748993053367257743957,5.68391471402327042028446,-458.294370369602177106572,154.071797982181891484288
34.1099999999999994315658,-1.03808387456734174669748,0.840239013649984212150912,0.217071395179626758231706,-0.0925939914690997317725518,-0.148198879819909035138181,-0.0482609176168975473331102,0.0247242328435428489197268,-0.00242427112140842192233858,0.232082022204637000717398,0.972378462614224781113137,0.0548337997726543041610014,0.00375795303234549571413936,9.8446099268965756579064,0.121904103505650687755413,-0.012711399588135831664748,-0.00520769655125169657339246,4.56372666163911588910196,-0.980495927267729827647713,1.70036573624932496606732,1138.23600654644906171598,1129.15546912399418033601,1153.04956610167710095993,1144.99557711551869942923,-59.9691163099668926861341,-629.43970444182878054562,-143.87909058586399169144,-555.379216516717292506655,154.071178837699761743352
34.1124999999999971578291,-0.845806135284260407480872,1.16029254168264328583859,0.110988940061130136882639,-0.0945207021277246345336565,-0.145907806569207210145578,-0.046626764575866307127594,0.0247174365267135154322631,-0.00265522293495835514515191,0.232031796972607728957172,0.972389980707180967556269,0.0568120281526963560869703,0.00596221304351929326514892,9.84285431549801259620835,0.121848969674983043098848,-0.0136840089587797267278724,-0.00517184569869225552879444,4.56401828143018750694182,-0.980382870905420422680265,1.70035671699743939910832,1137.8960801655614432093,1127.56509507560099336843,1152.49075113775393219839,1143.48736292553371640679,-200.293841035033750586081,-526.581831100069166495814,-250.017171050293995904212,-509.501658240208939787408,154.07037491558133979197
34.1150000000000019895197,-0.696767990717329865901775,1.38768807205514188574114,-0.0269897305262807203629638,-0.0963387326746050903780727,-0.141841805429968770280169,-0.0458707486436974939958411,0.0247160222580925306723465,-0.00288136738246772428767573,0.231983694344232521666882,0.972400839948877493412738,0.0586600179837096918911143,0.00861056889654226997876663,9.84121452789199402388931,0.12178514790519322230633,-0.0146462909265393115970655,-0.00514385979854979982772711,4.5643106138381410730176,-0.980270595439017733419007,1.70034633335597074044188,1137.23453734127338066173,1126.52255996849248731451,1151.79948024642499149195,1142.4480688243163513107,-343.086233696937597414944,-359.446447685284340423095,-295.136519295632751891389,-329.685120705348310821137,154.069651540783638665744
34.1174999999999997157829,-0.545710853446630506091708,1.51437014890096710573175,-0.197537999807948227992682,-0.0982570651724171267860086,-0.136301198542874507646516,-0.0461736888919448279500202,0.0247165310806529425757816,-0.00309457261699859053488693,0.231941094738582848089337,0.972410360316005473180212,0.0601871326395801015118892,0.0116358765489792681524506,9.83973211265556457760795,0.121713358479244151966192,-0.0155993254656951116365882,-0.00512007800417458962261019,4.56460301159464254538989,-0.980160984098463750058272,1.70033550003917821591415,1136.18064899707587755984,1125.76786283717365222401,1151.01506854127501355833,1141.83893732200613158057,-533.552338817010877392022,-282.71192429354658770535,-330.224012302988057854236,-138.096200434291034753187,154.068870100082932594887
34.1199999999999974420462,-0.350444411574789838059729,1.51337144143438551147085,-0.4113319056753151903294,-0.099935113512123266432674,-0.129240986717458816723791,-0.0472848561217388482780244,0.0247072541139473668414528,-0.00328535595273762685841756,0.231907846684944907167392,0.972417958309316432519154,0.061137779548285017816589,0.014817386243939106860168,9.8384464869163146261144,0.121635260781842446942136,-0.0165437742070186771803364,-0.00509653922275815282616485,4.56489451834580073352754,-0.980055761628680688346549,1.70032479562544924789336,1134.56677564719075235189,1125.1090003470260398899,1150.1483601849115530058,1141.7575878221455241146,-622.306375470043349196203,-218.528128996492398528062,-281.919342945722235072026,85.0577724400883710131893,154.067862945874111346711
34.1225000000000022737368,-0.173055019267265047799853,1.38900032372263848579053,-0.577859522103776446222412,-0.100590045401213981635102,-0.124036617512447558397959,-0.0485156702662279740168039,0.0246873330312717825796298,-0.00345137894880589730234322,0.231878791519634641637992,0.972424885943725669790183,0.061443866727652771131396,0.0181089661918608091362159,9.83738803694157937229647,0.121553369254631546403367,-0.0174778167064753991999382,-0.00507166879462299380332269,4.56518385587856734275647,-0.979955537835373813315698,1.7003137156907943694506,1133.06911711972406919813,1124.67522219219063117635,1149.60547182654568132421,1142.26422618420679100382,-589.73031093789199985622,-168.700192606324975486132,-159.641855949539774428558,308.491401644802408554824,154.066964623213380036759
34.125,0.0202977964121369494621128,1.17472634261314068382376,-0.711674160852829640333539,-0.100663235515147400644942,-0.120246791398334204603593,-0.0500348169093164651943795,0.0246591713029370267207252,-0.00359562078387440971910527,0.231849442962523688560594,0.972432133334734882801342,0.0611521372718891592645818,0.0215009328090211560002842,9.83657968306197361130216,0.12147031219736287299682,-0.0183996428785228836877419,-0.00504554645291475142160342,4.56547038311950448274956,-0.97986044844359476702067,1.70030211709756295945795,1131.61812409249978372827,1124.26549938399398342881,1149.3501509051634457137,1143.30004483037032514403,-542.230414494490332799614,-167.185199865723177481414,-45.9995066184965253341943,477.411757546203659785533,154.066004412765352071801
34.1274999999999977262632,0.227845306468705904867633,0.930818035471888016729736,-0.803191004435086064461302,-0.100395105905098966370126,-0.11773618560300969093646,-0.0519305698559352699184011,0.0246291839760009075022129,-0.00372797381042721219512881,0.231815594443081307574062,0.97244049928689990647257,0.0604588241184535885031082,0.0250272376665937323902966,9.83603594009327331093573,0.121388186200824005345211,-0.0193075185071046734330835,-0.00502032623702300916102015,4.56575504988350466817337,-0.97976882708351842321548,1.70029122069409854844935,1130.35796504725408340164,1123.83929619286277556967,1149.37547429345340788132,1144.65128497193563816836,-429.478333692903504470451,-172.675782274066364152532,79.6607502630697013046301,574.747403154448647910613,154.064993138429969121717
34.1300000000000025579538,0.454235513593910900098649,0.710826192678671753277797,-0.825907539188151740283672,-0.0998074159446663972117264,-0.116806436131512494935869,-0.0544340564493453887839891,0.024601446785256036314804,-0.00385769015143069653184238,0.231771771040135188268749,0.972451149683267179746338,0.0595375923224807229727773,0.0286787140827500230955138,9.83576604325483394575258,0.121308155866607911277377,-0.0201993742474075449466753,-0.0049982251615304429046005,4.56603993191739299106757,-0.979679483136043693924933,1.70028169871741008378763,1129.47073242403416770685,1123.40212047262320993468,1149.74845465647899800388,1146.1737818461440383544,-285.150362902131405462569,-182.484745525559759471435,236.551779392963851478271,651.37897496764128391078,154.063921510361922173615
34.1325000000000002842171,0.747083469042868153486836,0.539770941653436753249196,-0.757525297892860605131204,-0.0986745668271176434860337,-0.117182993998115020373163,-0.0579834127869354523654444,0.0245745902399101510960033,-0.00399073934893239955917776,0.23171433167218929982667,0.972464963226771783588731,0.0584753419767996968081647,0.032355570213363715748045,9.83577515874950947249999,0.121230084849079572384412,-0.0210735327019912627166676,-0.0049806740696857433256528,4.56632665469579546169143,-0.979591787822205461999658,1.70027411677147743951366,1128.93221323274269707326,1122.92687246523450994573,1150.5582331904188322369,1147.90817984677551066852,-110.83293545781164368691,-153.564504460613136416214,344.301206651693348703702,583.519132459726733941352,154.06256852830176740099
34.1349999999999980104803,1.00302152545090539348394,0.502146896106391849023964,-0.620486655856994695490414,-0.0971243456184824466292937,-0.117919495094237450349972,-0.060782843519283001609832,0.0245517685570847132847661,-0.00413708133640211441622858,0.231645730869027455245401,0.972481233002995271164082,0.0574573776150011789054517,0.0360249507795164514156738,9.83605975519790654004737,0.121152250590404034213954,-0.0219298792130297008629025,-0.00497000912978650712104045,4.56661622590322036074895,-0.979504897614330904964675,1.70026857743395831690236,1128.91656774674561347638,1122.634297950320842574,1151.46996068973589899542,1149.09137750844001857331,65.8749742637273385525987,-81.2364878312148874783816,390.537434081243475247902,390.570314266169873462786,154.061388032941351866612
34.1375000000000028421709,1.25590734137136239567667,0.574055597843838194549448,-0.418343132664002637088885,-0.0947074626036817357466191,-0.118158104466442259727899,-0.0624608779166998806520184,0.0245345094501444038748161,-0.00430397481421504555371138,0.231574029710896356348826,0.972497968982815375049711,0.0566131465018781948606019,0.0396344058421400635694454,9.83661019671682268494806,0.1210716591163359667771,-0.022769625284829099476358,-0.00496743414124000727538633,4.56690916859533313498787,-0.979418966351818465199131,1.70026435327129865626716,1129.26158810406150223571,1122.52069002607822767459,1152.51092036082604863623,1149.86103141810735905892,199.079902822302784670683,3.54799938827273253494354,453.766377771166617094423,236.445852618150638591032,154.06015691482826923675
34.1400000000000005684342,1.52914597028788445953751,0.750409372701075327860565,-0.138022265429918356005601,-0.0908523113399157256075966,-0.117151473398823605109875,-0.0630424287619501533264099,0.0245232350504947724245675,-0.00449295818091838012470207,0.231507037004507004729348,0.972513296729421883313194,0.0559636484427650654494002,0.0431368630413341974660923,9.83741065028220695865002,0.120984706304675421195682,-0.0235938448777408826817492,-0.00497208355211946426838177,4.56720600366648188384033,-0.979334626546434772187411,1.70026076833102313123902,1129.91196726085763657466,1122.65203794726221531164,1153.73879257859289282351,1150.27360677153137658024,246.494246522840057878057,97.5000071010958890838083,420.646243677875304456393,77.1350612718625967545449,154.058627428734496334073
34.1424999999999982946974,1.70904103859413325494643,0.929674584751509769375843,0.097892517591017233491435,-0.0868501304591503542340547,-0.114947251993546453729955,-0.06278713455210381544358,0.0245180474573046432162915,-0.0047010037093120843679217,0.231451987130811664972185,0.972525510781314661556962,0.0554479415796435698426947,0.0465011403359900654663761,9.83843798123455215431932,0.120887631148367175049074,-0.0244034971848055351473228,-0.00498118058373054912318922,4.56750666798468962781499,-0.979252153841459027638905,1.70025621543924132517134,1130.49405933667458157288,1123.00819006158326374134,1154.61415157921351237746,1150.24670672446632124775,205.803879538629416856566,193.539266075359705610026,291.945212473124911412015,-64.6297252180044239366907,154.057314876848494122896
34.145000000000003126388,1.81256422676228945434218,1.08733844187392003632908,0.306041799579956697030525,-0.0820188883563068155124753,-0.111391176257948976147105,-0.0619806422720130395509486,0.0245152730358112608266552,-0.00491589324790105489104697,0.231411047226312033275875,0.972534249526464389390412,0.0548201446261446651009308,0.0496681036657736496575666,9.83966330393760735262276,0.120777248527658073729008,-0.0251984321755774863527133,-0.00498891948432063879470544,4.56780992071029956491657,-0.979172081775673275316763,1.70025048535968736906909,1130.940986658551310029,1123.61973427763950894587,1155.19851864095926430309,1149.95045814544118911726,137.531642970518646507117,282.027969771790026243252,170.021987562089975654089,-146.117720817317433557037,154.055969908681930746752
34.1475000000000008526513,1.83714947566034947357139,1.19381685662394931846109,0.472646936689455454683184,-0.0769495911172832780522413,-0.107238784470141582105818,-0.0604347738081813454225077,0.02450908413889771667038,-0.0051254178843723975297908,0.231381715788689629187402,0.972540318761634381417025,0.0538325279207653578650294,0.052540677773143529272204,9.84104934144092879932941,0.120651181691909553661546,-0.0259777506410774107481476,-0.00498891892184275421301409,4.56811408976926802694152,-0.979095129932059382582565,1.70024304215590982281014,1131.18171755152752666618,1124.41832991044293521554,1155.46426151702439710789,1149.51611812037936033448,39.2070352686361829341877,353.328417710602764145733,18.6391144187551986988183,-193.840849129986821708371,154.054603019976212863185
34.1499999999999985789145,1.75734147875955137863002,1.217836968960770205328,0.574225191000900858639966,-0.0724443237122533445493389,-0.103225958457623209763021,-0.0579342278017737702389134,0.0244986143622544678966069,-0.00532330916400576559244229,0.231361696009773076809779,0.972544320630620684475787,0.0523799671318451870449806,0.0550938680748501163897402,9.8425472668678235521611,0.120507646306291404947331,-0.0267413028685462399181016,-0.00497592786661268937642433,4.56841798336210747066843,-0.979020753200013027495174,1.70023353384152997591627,1131.13702183489431263297,1125.38637636619091608736,1155.29171421305295552884,1148.98125389979213650804,-73.1879722164729429323415,448.156549073608346134279,-179.730122409090569135515,-253.286632252236387330413,154.053215080738056030896
34.1525000000000034106051,1.53722701713068188311695,1.14945647155640395808973,0.620704524587906703025908,-0.0678922597215735057485375,-0.0990072133756341454802197,-0.0547796118913344426415435,0.0244770875869930043533529,-0.00550761131797953933098011,0.231347813742119073898706,0.972547189170578363359709,0.0504189354464149447343502,0.057175334607799319086574,9.84410101801400116983132,0.120345449237825113941724,-0.0274894315762052726670461,-0.00494567141623230514119181,4.56872068352611204744562,-0.978949109733514677422761,1.70022116625959207603103,1130.8157776904449747235,1126.65911265581212319375,1154.56561090497848454106,1148.24968495911753052496,-139.772341729232152829354,474.771207063106828627497,-345.711099397936379773455,-285.751753344892904351582,154.051531379972715285476
34.1550000000000011368684,1.24755127012890643101173,1.02284145211651833484723,0.613741321393728944677548,-0.0642660385420393970301589,-0.0959631486016412765804873,-0.052746183164042025059981,0.0244455021629351315626266,-0.00568045568559458115970306,0.231333319803485648602503,0.97255048736487037519538,0.0480253684328920821267062,0.0587699159529782300115386,9.84564453330496291982854,0.120163899929302875335679,-0.0282224761249520450512307,-0.00489525624836041877568915,4.56902251595658004390543,-0.978878784525184175713264,1.70020576560917624497904,1130.43816012624779432372,1127.76023240150766469014,1153.56315871606238943059,1147.55249513306694097992,-137.428605547154290889011,441.631285168242925465165,-464.651569719003077807429,-303.050602930764455322787,154.050117082661216727502
34.1574999999999988631316,0.844968943378076042804992,0.846702804196489466903586,0.594553045645327071788699,-0.0606167570598239863199908,-0.0934545508088736043283973,-0.0516075530244463342999239,0.0244059863926383013854604,-0.00584654152244510911390352,0.231315267555467968252358,0.972554832581255745971305,0.0453330180047391978481741,0.0598800018172456205434173,9.84710594108979186955821,0.119962234586018859361367,-0.028942458231635815463223,-0.00482313698967982117105091,4.56932488382302270935043,-0.978808321126316327465133,1.70018920919191840468443,1130.12863466270982826245,1128.86726908165132954309,1152.2423530563855820219,1146.73443194446508641704,-76.6682362468662859100732,485.055049463360035133519,-621.825025827274885159568,-393.050361452086633562431,154.04869517345179019685
34.1600000000000036948222,0.243665161283825565385897,0.612049582614150211590243,0.600779672965927824535015,-0.0570031168402536994599394,-0.0913231837626537479302158,-0.051083735382504893984823,0.0243616408826029355594311,-0.00600742026150169559223224,0.231291487249276977999912,0.972560654634587185007888,0.0424229705397653339415953,0.0605497582458956462581057,9.84841109550965576602266,0.119739820764101931316326,-0.0296521174131585650568521,-0.0047280593413907253189099,4.56962784618026596206164,-0.978737741690952622874988,1.70017245816036077776801,1130.05481894501326678437,1130.18550764882570547343,1150.45403358692442452593,1145.58724332580550253624,48.7316963318540601335371,478.110204918340116364561,-661.513288818175965388946,-448.846636920504806766985,154.046983924861223158587
34.1625000000000014210855,-0.326490377476867543737882,0.424089894846665760308468,0.652732282988343071039594,-0.055581091911539731720282,-0.0903128677932398954419924,-0.051016401293839691577503,0.0243172689834256633423237,-0.00616516064647533792997258,0.231261110448143458739878,0.972568030230564151139561,0.0393960782683861338027143,0.0608630636630294041822253,9.84948529711723352875197,0.119496209138788028747413,-0.0303548153079123278486051,-0.00461012038545395314709241,4.56993117093899225977793,-0.97866756641624830237447,1.70015590652442694086233,1130.37229314436922322784,1131.25782010624425311107,1148.93478661229300996638,1144.49019875986141414614,223.249246958606136104208,411.611605981271736709459,-580.892112905831595526251,-465.027078936977886769455,154.045556021792975798235
34.1649999999999991473487,-0.906737409594756016417705,0.274264079580035735617116,0.759345943042317061966173,-0.0571184084131083555369024,-0.0899355932108311245665178,-0.0507780337397834291568444,0.0242734220335475946173087,-0.00632150346804121431032453,0.231226357247300756680986,0.972576409666539909437688,0.0363282131300355221048548,0.0608334746995885522480307,9.85025822815801710419237,0.119231170259375740538843,-0.031054688098658453365708,-0.00447061940635759547113537,4.57023464548021252085164,-0.97859811602291002508025,1.70014047666334922048748,1131.17106517980528224143,1132.24356567873019230319,1147.54957302239790806198,1143.26210793112272767758,398.65356471762038381712,363.435552055666960313829,-511.638990452103996631195,-507.732463546757912808971,154.04412839788980704725
34.1675000000000039790393,-1.43909270035868241954802,0.174454384759669706150831,0.897551039005687667504674,-0.0615133725381407647780918,-0.0899124203799497312417088,-0.0498825306337750337681847,0.0242340016797736937381735,-0.00647540454727189938172183,0.231188726926464555022633,0.972585347634052355125789,0.0332574203411285934661734,0.0605611310171533245849673,9.85066499339145806857232,0.118945020598483872098505,-0.0317555701164863105057101,-0.00431141320150477038580794,4.57053773284722453240647,-0.97852941623062061893279,1.70012642687713144695749,1132.36556096795834491786,1133.07499786652351758676,1146.3765916600311811635,1141.95153644212632570998,553.662634764021845512616,269.507230501720528081933,-402.508184540623517477798,-533.042876908393850499124,154.042702449254505836507
34.1700000000000017053026,-1.85832727809560482867823,0.149859445289725390360047,1.03802822084458856721767,-0.0680781678613299467972553,-0.0901109517459073167122696,-0.0476193805633439298796716,0.0241989411445332550099074,-0.00662297567841811478384084,0.231150207479051933434633,0.972594400154997651419819,0.0301480902945538975501449,0.0600920849310097315854051,9.85065113662905567082362,0.118638586789032760004936,-0.032461033509885467429612,-0.00413480706863673507650558,4.57083946917058359105113,-0.978462179491446204515626,1.70011421614123681145259,1133.93937835362680743856,1133.59110183123948445427,1145.53703209969376075605,1140.59689354657939475146,733.928212843496908135421,123.863945601873510327096,-285.829842970166112081642,-584.516363616043690853985,154.041280087954902455749
34.1724999999999994315658,-2.20186030740294835794657,0.215699662401536929046131,1.15311400037600786383507,-0.0761683187355233215498629,-0.0903473844322418562224897,-0.0433247441679936937108941,0.0241670454895410204143591,-0.00676265940158187525005351,0.23111184440385057481393,0.972603360620967194449804,0.0270023913130992554432197,0.0594481919563844829479393,9.8501733880741948468085,0.118313154755583765931348,-0.0331738974189056193275782,-0.00394465283439492282735461,4.57113942176882925849668,-0.978396979906973940366299,1.70010444639774682684674,1136.03520203217249218142,1133.69431759453232189117,1144.94744244518165032787,1139.02895462404876525397,759.489269520847983585554,-59.90016674005919838919,-150.958767340821481184321,-544.745877367171146943292,154.039579207754172784917
34.1750000000000042632564,-2.36564468803257721418731,0.347684508597338293167667,1.16986165718942580760142,-0.0824345140510912982589886,-0.0903404241943523839131203,-0.0390181028224134418547209,0.0241346237381116213160936,-0.00689739434529153608299801,0.231072093475044898491788,0.97261266920240063704739,0.0238950297924160753870737,0.0585896859493112986960739,9.84920191393970156923388,0.117970372285281260849032,-0.0338956789293773513849217,-0.00374666747806331112621847,4.5714375448052795292142,-0.978334474554435340465375,1.70009595932667822992812,1137.73682470123299026454,1133.29160099753903523379,1144.78223826298926724121,1137.87316415974214578455,618.122167242474688464426,-256.00904721287042775657,-11.1405900753140798542518,-404.847225093519455185742,154.038167934096719591253
34.1775000000000019895197,-2.43735110900536522393622,0.546292018280505109473211,1.084211387145532556886,-0.0881645708925450910520283,-0.0898388690029815056847795,-0.0350829360486536040442118,0.0240987279079255579949947,-0.00702842896195641619189187,0.231029220212484565077915,0.972622803853073869539969,0.0208683353392546538929153,0.0575039504284391989052949,9.84772198971010936929815,0.117611887703103878966004,-0.0346270911631285441267813,-0.0035466545177449222345234,4.57173466872169509400692,-0.978274572790240326547462,1.70008917907174805783654,1139.12581286838644700765,1132.4142723584673149162,1144.89173949480505143583,1137.00471849858013229095,490.709292689362598594016,-459.532976332420332710171,93.5203515580665367679103,-291.606557350034222508839,154.036764235998816729989
34.1799999999999997157829,-2.46597293731959332774295,0.833082517087225582486099,0.86886545214094723643683,-0.0943550035451352631099553,-0.0882974259792951993164323,-0.0315940864838852239482314,0.0240596158343230302756321,-0.00716049451799659168738099,0.230984400007670759302769,0.972633444455827111951862,0.018041550735820491291328,0.0562276473004294369273381,9.84573348048793128839407,0.117238859556326305288998,-0.0353687921027979468302505,-0.00335152390104109061327864,4.57203214389515544269216,-0.978216465027752613003997,1.70008467321857481557856,1140.19037116467757186911,1130.99393611587902341853,1145.24984002077917466522,1136.41513137299330082897,272.332347720268728608062,-541.036481847359937091824,157.29981482255180935681,-132.747559767615484815906,154.035089755949883283392
34.1824999999999974420462,-2.47235841646136611515772,1.08496388662663401092345,0.612550029076195046151554,-0.099035989288404804864463,-0.0860011891981744130974974,-0.0297672325783171799751248,0.0240134379658673777213629,-0.00729504087194449233472193,0.230938009165261970423444,0.972644585481523660241976,0.015448235758619699442562,0.0547355915285340222098398,9.84325431649214621643296,0.116852226121991739637984,-0.036120389569748043157027,-0.0031675152725859100945327,4.57233078359153832792572,-0.978160548536290419541217,1.70008260305515745969274,1140.48747460698655231681,1129.70908994923297541391,1145.67823856891709510819,1136.34098069974265854398,0.161666047415482405646969,-480.343303320459938277054,189.228638053640281668777,52.0932208997425689744887,154.033703405020304444406
34.1850000000000022737368,-2.48026219631556044120657,1.31477702547411912092912,0.301389396493792427467184,-0.103794013246755245649666,-0.0826147335541430188898815,-0.0288611262622615570572204,0.0239556834553472514093286,-0.00743177279237697968605758,0.230890981058367167344514,0.972656119068461610943643,0.013080977659467515894498,0.0529982430128339149222327,9.84031876454628040562511,0.116452687478993219261092,-0.0368808356791574670774381,-0.00300025841822782260437386,4.57263112446901853758163,-0.978107574451776096147171,1.70008260061478133629009,1140.19117949491464969469,1128.59221959927549505665,1146.19598321104786009528,1136.67559747749214693613,-197.95811400371226795869,-383.492913572203462990728,219.610028732246490790203,188.273038874689603972001,154.03232734255647073951
34.1875,-2.48877289719320105021438,1.50283550584609670863756,-0.0374136428021277361866126,-0.109007752600325677483362,-0.0785431706200925144889524,-0.0285640897388753506325187,0.0238835395252044724312412,-0.00757130691856365469621926,0.230847722497274088215846,0.972667063593575242919087,0.0109523079620925944954735,0.0510135443038305241847397,9.83697529183600494206985,0.116040629881523832400703,-0.0376492900467012489573726,-0.00285508889201163728113753,4.57293394002409758769545,-0.978058028430965120669782,1.70008399796008813353865,1139.49768403696748464426,1127.79162538137097726576,1146.77628871257888931723,1137.28234589411658816971,-339.576432907587843601505,-218.897168535994666171973,247.709633548218079113212,285.103131799619518460531,154.03096063882082944474
34.1899999999999977262632,-2.48262725885545387782827,1.62140639814917530969751,-0.389628169787724687456176,-0.114721323413030359961162,-0.0741054059022157596281488,-0.0289455405725567785357732,0.0237956254403660916185714,-0.00770837437883585465531189,0.230809932134091150279787,0.97267708772099892300389,0.00896440182963541276617292,0.048831108706287054688211,9.83328585034734636849407,0.115616861113569488472841,-0.0384238714526028771190092,-0.002735199638015784091849,4.57323904601847441853124,-0.978012710636373294725843,1.70008721786517114082926,1138.49329733037825462816,1127.49773375659651719616,1147.43453137878782399639,1138.10111313648894793005,-471.104481358802331669722,-10.2369916397894868964613,305.958830966144773810811,378.322815312992304370709,154.029606480349400499108
34.1925000000000025579538,-2.42965291167041019804174,1.67242514521297569451974,-0.8008050234258390354114,-0.122105195439924707478951,-0.0688652251547541838228028,-0.0303244805429455019374352,0.0236889334589296222943755,-0.00784045182529946420302291,0.230778695758444507557527,0.97268602415707017261326,0.00706001150324586657092141,0.046453497004071447884499,9.82932323613936986816952,0.115182614054255560986917,-0.0392025600186446179784561,-0.00264357702196958916154856,4.57354534101522158806574,-0.977971890725490955453836,1.70009190792437614447863,1137.14216163017226790544,1127.74044042317200364778,1148.30608286741039592016,1139.17395997068251745077,-497.250563006510049035569,168.362247990130782682172,326.389211273150408487709,389.614973587259385112702,154.027997960401762611582
34.1950000000000002842171,-2.32680534214382328528359,1.63864626991660977672893,-1.11103250110218398916118,-0.128612748497068801745158,-0.0646509778775023608021755,-0.0324437201082435969223816,0.023563840822405951458407,-0.00796648739892881832536098,0.230755218107308840425063,0.972693584475094019659025,0.00522062177643568825491371,0.043937328371316655695189,9.82516718985530879137968,0.114739599763702043722091,-0.0399837754473410036948344,-0.00258234812205404475754511,4.57385089851250370429625,-0.977934806290053693089703,1.70009815473963987741968,1136.00704451534443251148,1128.33954499654760184058,1149.06647743515441106865,1140.04918800442624160496,-445.076472844307374998607,281.468787186833196756197,296.366087143902745992818,331.347641407165951932257,154.026672936095337718143
34.1974999999999980104803,-2.14748571598690896067296,1.530826007405750921464,-1.35687032072458313436414,-0.134982787567047235466333,-0.0607485503272490942605621,-0.0357596022339884966889656,0.0234278076278157908196587,-0.00809033873901197214673076,0.230736627469455224392902,0.972700234840673139125045,0.00354978760278858163079718,0.0414475182202551223342724,9.82090004291626961219208,0.114290251711371970699815,-0.0407656809669455846845132,-0.00255330148128018801986783,4.57415405399792529550496,-0.977900857246012167323101,1.70010443942072031475732,1134.91677926595275494037,1129.14778435910488951777,1149.78791330312856189266,1140.8306981777168402914,-475.545282889318059460493,352.58513257217754244266,289.876967813403950913198,316.403662633021667716093,154.025366216419115517056
34.2000000000000028421709,-1.84541889918219181865311,1.32560527053182419798816,-1.54396404567310652211631,-0.141802196850947664907849,-0.0565815532879105909103146,-0.0408811131239056255171072,0.0232915605964049213238987,-0.00821446556896358870414332,0.230716613421797556160442,0.972707189984433950868947,0.00213527809291852443962512,0.0392124007831537446655545,9.81660540121561275839213,0.113837493097048034207397,-0.0415463678443897116432382,-0.0025563000297888567764748,4.57445456907413117164651,-0.977868830520083442969792,1.7001096577813268329038,1133.62931810089662576502,1130.10247065940939137363,1150.51586227422217234562,1141.63120631759215939383,-480.287080865564178111526,318.321635844741592791252,236.254686257068073018672,275.193441424785476101533,154.023822382994211466212
34.2025000000000005684342,-1.53617048862233218642359,1.09953124138943270082791,-1.59348031305560589032666,-0.146240235176871541389332,-0.0533599055463375437913243,-0.0454692294727416582156287,0.0231609950010099735484559,-0.00834185120469665974951567,0.230692426992868487856114,0.972714933214593124866099,0.00104827188709044616388155,0.0373605921116835354434116,9.81236663650813767389991,0.113383834069376090991632,-0.0423253603723209373410619,-0.00258997939553320217706545,4.57475372903794408330214,-0.977837146490961761635674,1.70011412061413902385709,1132.51534386162370537932,1130.7393925383294117637,1150.96918673441450664541,1142.20666538484147167765,-467.474922473882088524988,204.361221031244326695742,151.924278180515045733046,228.116060703885636939958,154.022558542536472714346
34.2049999999999982946974,-1.19546176984649732411015,0.82873507088450792945622,-1.52663153575981125342764,-0.148914281444547463850725,-0.050440374215774325117323,-0.0497993800667323877062742,0.0230384523255768580707326,-0.00847682928726193121726773,0.230662090879368564255714,0.972723842034945329615425,0.000366336749497861435820312,0.035941440856353909505394,9.80826322724883858938938,0.112931402672319630697828,-0.0431026965348402305022724,-0.00265209908691272852609977,4.5750521958744494455118,-0.977805282553320997962487,1.70011734269421488363605,1131.29194348852934126626,1131.12427676456468361721,1151.27548366512405664253,1142.77178662111055018613,-511.124933229450562066631,112.160165645934199574185,107.264541640951989620589,244.394972768225244408313,154.021321373929083620169
34.207500000000003126388,-0.849101861302917537699386,0.535778320506260063993409,-1.36798983571261278946452,-0.150537916079311662187479,-0.0482035710231018543758807,-0.0538699843530998645491081,0.022924974189676736863186,-0.00862044227148300000462822,0.230622878664964781059155,0.972734534267186590206222,9.64476529822372308231593e-05,0.0349887005468496742333073,9.80436796231760077091621,0.112482096467868164513249,-0.0438782214872957335161097,-0.0027385604293308674246632,4.57534949398400581088708,-0.977774032807229742658706,1.70011861485917536995771,1129.95971919547514517035,1131.30019336655936967873,1151.50550944261954100512,1143.42864024868322303519,-551.500583433689598678029,31.5240754331464536619478,86.9716347299809768855994,311.881341804359692559956,154.020108451504540880705
34.2100000000000008526513,-0.510041357788245885984679,0.243135135839025295911853,-1.1135244552390672900799,-0.151712756136621051972213,-0.0473439318963688737795792,-0.0576036075267101904673339,0.0228186846306297798359086,-0.00877086663675591231281725,0.230575955386476544317631,0.972746800798546473743045,0.000176278328978637932600293,0.0344876646741296977172198,9.80074504208220531609186,0.112037168605807327392831,-0.0446523373536128267979883,-0.00284379941468802365650559,4.5756452306419372888513,-0.97774449452277489847063,1.70011692735062469594709,1128.53444057135948241921,1131.28189714173049651436,1151.71034183877418399788,1144.33119333013314644631,-625.036114166891820786987,-31.3597157560992485514362,95.954644407716799037189,479.028220193257766368333,154.01892687412097870947
34.2124999999999985789145,-0.117632011430543678698335,-0.0683325679582436618098029,-0.730171639892052026787894,-0.152512693864099768692455,-0.0479791586194242558605083,-0.061223387116540545216381,0.0227223141646683939043339,-0.00892194452167353359295365,0.230525785327360149823406,0.972759576750727994465251,0.000481933314172969251565348,0.0345246180059065044254396,9.79744692257836113924441,0.111597155884270729520047,-0.0454256553003018620495723,-0.00296055485962382590459097,4.57593895349778012615616,-0.977717381606015956130307,1.70011114067458168896962,1126.83453862464352823736,1131.1433947877790160419,1151.98528266465768865601,1145.82378134964733362722,-599.182305277748127991799,-55.8761816556112265175216,107.469581551949474373941,617.690597771618286060402,154.017547335310297285105
34.2150000000000034106051,0.19640167493670812604023,-0.27172293157567128929486,-0.380925302222436201748934,-0.152320657434804301866293,-0.0493665922274216864562568,-0.0630936191121674871951086,0.0226290323316154541599676,-0.00907019582745105523713391,0.230476988164512175405463,0.972771954524178195100603,0.000899854254632029282312544,0.03498371309714437549232,9.79451602936400966825659,0.11116189106288887344931,-0.0461980999513714671311782,-0.00308256737173956581188339,4.57623092755563298794641,-0.977693234996970583772224,1.70010110389178303869073,1125.53852904496920928068,1131.0025162334522974561,1152.24768974653420627874,1147.41964631899281812366,-468.26595746605255499162,-53.7653738389233311067983,106.870131552241119266,688.142034335544735768053,154.016430793231506868324
34.2175000000000011368684,0.497545200196831460814906,-0.404063680019498994155924,-0.0535807926438904985610989,-0.15140984573218940756334,-0.0510547709966785584478899,-0.0631976691740192275670296,0.0225347824302120774975222,-0.00921770989714861509189969,0.230431752363992992105324,0.972783486689318799278681,0.00143969261311728546903765,0.0357681861602933692800832,9.79198140820859563859813,0.110730447406338181060015,-0.0469683429489557296987456,-0.00320542370999716890941911,4.57652267790729538887717,-0.977671278531228371555528,1.7000881580314139984722,1124.49320883731206777156,1130.87456791858426186081,1152.51963332241916759813,1149.26449152132681774674,-382.507435165309743752005,-60.1804093452394042174092,111.314247944448027283215,812.361358625605475936027,154.015349399380795603065
34.2199999999999988631316,0.846458628488616970919622,-0.485651526128139998661482,0.25172528191770993100107,-0.149704403973496352753259,-0.0528529180485628954921928,-0.0610971635112312130844181,0.0224356300415022441585577,-0.00936393430894541002607045,0.230388641320462494999077,0.972794609831597711924189,0.00206733344614597192023808,0.0367859011741039354514982,9.78986097004277944222395,0.110301204128837135320929,-0.0477335058611953327867283,-0.00332517192339639323234168,4.57681631188734616699776,-0.977651534432893543069554,1.70007424839999687904424,1123.62599186914439997054,1130.70161418672637410054,1152.80426098625594022451,1151.48145311211715124955,-248.347524804658235098032,-79.5687804443834920675727,89.1561834367165317871695,761.011330147104558818683,154.01409267699114025163
34.2225000000000036948222,1.12755917600979405079897,-0.502027233917654469586012,0.401347003788124656598058,-0.14779259104566302984729,-0.053879485595483188331567,-0.0581339640981438851574659,0.0223309315155750948145297,-0.00950481504790989459308115,0.230340235719853791973577,0.9728071354660385861024,0.00270438018126270551810819,0.038012707506076853780641,9.78816197484115768645552,0.109872230673439930104252,-0.0484887320513320910220223,-0.003438243588740884284366,4.57711283994860540502714,-0.977633523078587862720212,1.70006121559699963086132,1123.25147121328814137087,1130.47672401636214090104,1152.96541423960297834128,1153.06954817206428742793,-83.1343313244390031968578,-121.904190889364528516126,38.5143068694363464032904,522.467495031793191628822,154.013079351212780920832
34.2250000000000014210855,1.3942211824812860143652,-0.482301349669634393801942,0.435506610028031759807021,-0.145419800142692262623356,-0.0547992322629336781059095,-0.0553041596115378744635827,0.022222697421614968221748,-0.00963943950820880454677386,0.230283484299684010343512,0.972821749356545750764269,0.00335066475651549233738535,0.0394511171954225747793288,9.78688182290243702254884,0.109440571612127127143488,-0.0492296993542593180892553,-0.00354293969052810187037039,4.5774127606852896832379,-0.977617394722288923780695,1.70005020340278312218629,1123.21032021252199228911,1130.09209323227923960076,1152.99683252060322047328,1154.09379058727745359647,26.2143111040370193620674,-183.895981383315216817209,-17.9960863694013788460779,286.109561147701356276229,154.012100645077538274563
34.2274999999999991473487,1.63882969176250781195847,-0.443088746784844611514842,0.394604499062335023484849,-0.14264384437999474974923,-0.0560141028710495758602406,-0.0533457660829371529964682,0.0221120548015563307686637,-0.00976688560084747713074815,0.230218187033468635327438,0.972838482839467832974378,0.00400884365653715601940377,0.041077135958950489191821,9.78601093148044576253142,0.109002855415266233785054,-0.0499524040088214146826395,-0.00363859305036444294692566,4.57771555797131846077264,-0.977604348912240350699676,1.70004119734859182599962,1123.38254276880820725637,1129.55724410944640112575,1152.87543380775605328381,1154.50009597780149306345,96.6156488647317530649161,-239.900009137331892361544,-99.2597764509757070072737,3.81280536671316028218826,154.011150058397106477059
34.2300000000000039790393,1.83316859903297557643498,-0.391919536705571558421468,0.309321207852507384927776,-0.138832791716551801064483,-0.0574780861079631916199517,-0.0527098284641841080544467,0.0220060409851563047733958,-0.00989260869871755495197352,0.230144642075631733479923,0.972857047914281070077891,0.00483685611531164960652518,0.0429413578587533595332104,9.7855318331235157103265,0.108555865447555854874651,-0.0506529455619455157289188,-0.0037264381238709324943581,4.57802012687782156064031,-0.97759516369706556115915,1.70003258530651257807165,1123.6933984568458981812,1128.89259318659196651424,1152.50053363834808806132,1154.11285461411102915008,132.491337609758801363569,-295.555298038319733677781,-242.920942132116891798432,-329.507455903708091682347,154.010232616471682831616
34.2325000000000017053026,1.9666548190622685776674,-0.337488991376805547162121,0.221024248535794165526625,-0.132249794570901857415635,-0.058657420272855642640053,-0.0532636912206732662800057,0.0219067250389908090013602,-0.0100208947276814053922722,0.230066867401113456237383,0.972876400435774502106767,0.00595379792118473638584675,0.0449973203812979172244724,9.78542430985933897602536,0.108096547798092912362478,-0.0513284814918443937914461,-0.00380808196479748024138035,4.57832603217092692915458,-0.977589611055033946840354,1.70002396654811205323199,1124.04499945685734019207,1128.07946761925404643989,1151.66082909709484738414,1152.85255869828210961714,99.9611757780257619288022,-279.336465375517320808285,-384.090344800582954576385,-554.438890579926464852178,154.00916896563046520896
34.2349999999999994315658,1.96843945030920219885218,-0.317284180166991947036337,0.197518748097927021589726,-0.125511958765911535440551,-0.0587825789085386421484181,-0.0543352077155313181733298,0.0218123180089186304020377,-0.0101495761282921152096614,0.229988117835202232619451,0.972895830340258616075744,0.00734377032232373661013725,0.0471477135004123582007196,9.78566713631014195584612,0.107622661939969499478309,-0.0519765476247068258786044,-0.0038841799290298094360363,4.57863267412630836616927,-0.97758783050039610440507,1.70001585694365897616365,1124.1932043357355723856,1127.4959108597156500764,1150.58008191434691980248,1151.34066016121391839988,7.72702393801014597585208,-196.288116823952435652245,-514.915885680248152311833,-637.652856812466211522406,154.008312863836039241505
34.2375000000000042632564,1.85008444598283428028651,-0.341755286311025030521193,0.249065186930960663636014,-0.11930953995167162262625,-0.0586764357719432097515444,-0.055088004149668669262585,0.0217212359400529922415224,-0.0102756721536348891166135,0.229912234322153907761788,0.972914495380165833537944,0.00897962322227928433360233,0.0492987287536253704356426,9.78623736886713757598955,0.107132653182693604598796,-0.052595725690652017636495,-0.0039554725127732550879478,4.57893968980030408033599,-0.977590091621239665187204,1.70000932625369061135245,1124.08363457654741068836,1127.09802703513378219213,1149.08624966869228956057,1149.66429441421814772184,-113.989444505555979958444,-128.237512391913583087444,-737.299060614837117100251,-704.172816867188771539077,154.00748720376827805012
34.2400000000000019895197,1.60006265641367484420243,-0.428011840403395293908062,0.394033598986183175583164,-0.113918116785455353356937,-0.0591174969457909441072907,-0.0549417781024468532269367,0.0216348470241981213901816,-0.0103966667480707795206962,0.229842716520974182925485,0.972931564852892449835053,0.0108576446086372929711317,0.0514091910646586464084251,9.78711009891306282781898,0.106625749346097836722791,-0.0531857666176609594765878,-0.00402273290650336564494571,4.5792472072437702124148,-0.977595324479625715774489,1.70000506702114106971635,1123.62325711320750087907,1126.85472329775575417443,1146.89358661127084815234,1147.81979607687617317424,-213.334112406858679378274,-58.1882475278763990900188,-844.235785158338558176183,-610.496438760365435882704,154.006530425133007611294
34.2424999999999997157829,1.33828387004421966999246,-0.54099242040485429061647,0.567863923222681088454067,-0.11123333831652805481216,-0.0600320697135960854029513,-0.0541808117039121184266293,0.021554699453186026980589,-0.0105126956901666467752987,0.229779222983203496033511,0.972947084870407929990677,0.0130247777873970099760115,0.0534304900622769862739148,9.78825918550247919824869,0.106102355234974646269741,-0.0537470592565275559482352,-0.00408711261814130588643224,4.57955453238930054737921,-0.977602341608510561066225,1.70000238036988182699361,1123.01696401451408746652,1126.8070857974946648028,1144.8650707429044359742,1146.611812220419096775,-260.445772477406023881485,-5.25122821696209118869092,-807.022850307254884683061,-395.542247336739421825769,154.005760565582988874667
34.2449999999999974420462,1.06005307467239395791125,-0.682480499662811324057543,0.769059300152207914180735,-0.109934992929515876203261,-0.0611053877881318346920736,-0.0528756256428796686530625,0.021481196461180171453087,-0.0106236914689936314676322,0.229719377106584243808385,0.972961611123010494672769,0.0155154317113703199559893,0.055297437391288867258865,9.78965800529126894957699,0.105563955087611308081286,-0.0542811072336308458874399,-0.0041492306724102223994266,4.57986031141119909193549,-0.977609798460145618115291,1.70000041927501333027806,1122.3210282508216550923,1126.82846715667096759717,1142.85847235973824354005,1145.8420848401942748751,-263.914049851202037189069,3.60015149094394937279162,-759.924419147521348349983,-240.02217872799974429654,154.005018018694102011068
34.2475000000000022737368,0.782494777222484949597003,-0.83314287177258228300758,0.967902577294033061861001,-0.109179081848670631038623,-0.0621487643873462961008336,-0.0508878006882136010857742,0.0214094106981994949934212,-0.01073342520847238128201,0.229661160749752873977414,0.972975691077424098551774,0.0184068494478932809244043,0.0568334742318189478638146,9.79127986620187584776431,0.105012835921823227680605,-0.0547909027858324640392063,-0.00421014716219640476591035,4.58016422215331520106929,-0.977616265083681268421856,1.69999802171785052706809,1121.69739376525740226498,1126.82508655494939375785,1141.06544864716488518752,1145.4117013267784841446,-194.438509930697023264656,-24.5978299643740356827948,-624.092312210222189605702,-112.107124498504106213659,154.004296983977496893203
34.25,0.4999861302366846449452,-0.968594269624674097940442,1.13087409725644882918516,-0.108337938056584787149816,-0.0638558315236720797081205,-0.0479654387244377866661438,0.0213354590307352001699037,-0.0108460107518165167067581,0.229603917961118675350463,0.972989525587844461540499,0.0217787354631485130518342,0.0578905697960866300055827,9.79309628860456626853193,0.104452002763913059935064,-0.0552808172391020188896071,-0.00427016663856097204721163,4.58046618431920915526234,-0.977621273257751832730378,1.69999379062328093148437,1121.34883570116767259606,1126.70547800684903450019,1139.73801079868553642882,1145.28154921770146756899,-50.0006312462573987431824,-91.2718804899589173373897,-442.970643947585813293699,-22.7750172258518190915311,154.003600114045298141718
34.2524999999999977262632,0.127654444238434056080322,-1.06814736787204145329611,1.24620510163344322407397,-0.106902093281076596142931,-0.0675301385415881250118275,-0.0435441851136976476599472,0.0212544354766798573863618,-0.0109608071871056585860904,0.229550088849120259570924,0.973002661241932131908072,0.0256044434784709756813825,0.0583350010037150534802919,9.79507793864421572038736,0.103885045885365234763498,-0.0557564612263513545431515,-0.00432794650966785137552462,4.58076565351828790539912,-0.977626003576730129296379,1.69998706739952298860885,1121.44739060902634264494,1126.36872715250001419918,1138.85059542742897065182,1145.29782624064932861074,138.469356920151881240599,-153.099706220576877058193,-203.362619755976623991955,12.4736642623638402938013,154.002789000171759425939
34.2550000000000025579538,-0.232149444872847360299417,-1.06671857117807999948411,1.25588088324910818194269,-0.105700071578273366301737,-0.0715748593449885561756929,-0.0394895899932779792518289,0.0211652800459825318757368,-0.0110784487941675644645523,0.229502910438237006651718,0.973014359981997367654571,0.0298862792376974051311578,0.0581143781681640325675886,9.79719199667018258992357,0.103316268240436145986472,-0.0562237907857480317952437,-0.00438190783948736416186787,4.58106226797767490666047,-0.977631800263614958446112,1.69997823893609600887089,1122.04118248576878613676,1125.93997947574575846375,1138.72119769990513304947,1145.34391753901331867382,343.261650293886248164199,-185.35454057227593693824,55.650197433050102802099,8.92910159045184315118604,154.002131599953372642631
34.2575000000000002842171,-0.654660583560261466473662,-0.957561597823387788963601,1.16848162433148039518471,-0.105398663901096867334672,-0.0756128654970367186649582,-0.035769502910506026371884,0.0210742244702235119457878,-0.011199632253473380469333,0.229463437989803037408976,0.973024234978873248103071,0.0346468707266916059461792,0.0573296288895987632416862,9.79940112158871556857775,0.102750848586633830583636,-0.0566881890276288435970287,-0.00443005743395665126105332,4.58135559848746876099312,-0.977639926105870027406297,1.69996790837589073497327,1123.16369886049665183236,1125.44195444963816044037,1139.12884641459436352307,1145.34247174860161067045,591.442697984613459993852,-204.088303408529185389853,257.833447483888278384256,-15.8082994196918740215096,154.001490120819227058746
34.2599999999999980104803,-1.21863166786022558696345,-0.711630128938459227683211,0.962699069973337318018025,-0.106556508482403666793203,-0.079480612726674310097863,-0.0322802311594685142903671,0.0209824210846895967130799,-0.0113214327123636760569214,0.229433222908145384444367,0.973031929345470558700981,0.03980218082083890329681,0.0560162098378088058048263,9.80166792909149187096318,0.102194267759000673168046,-0.0571547816533331046184863,-0.00447014550766395082903593,4.58164536117054055353037,-0.977651126049119412186883,1.69995704620913801186077,1124.99839597568916360615,1124.91953795870404064772,1140.01036493732340204588,1145.26487604191493119288,724.111985408255918628129,-155.391923430454511390053,349.224866393891318239184,-36.434300706723213636451,154.000734371591477156471
34.2625000000000028421709,-1.70569785575656962528512,-0.438009808463522887223007,0.723632465886724585146794,-0.109013157088303072606017,-0.0814854088382044178251462,-0.0303304648383126186639291,0.0208983883088563020258288,-0.0114415527934653253605557,0.229412050089599556246256,0.973037331254152926263146,0.0452987589232437953823407,0.0543620998819368816956654,9.80395100897162485864555,0.101652080296306443485399,-0.057628003503680226560224,-0.00449997835039874730794773,4.58193190203560352102841,-0.977664548266751864957769,1.69994715212762192990681,1126.78425878753978395252,1124.66499483248549040582,1140.87497074656471340859,1145.16030024506790141459,725.008289404824722623744,-42.7313774792091507492842,332.225342577078777139832,-40.3377392013019857586187,154.000112719355371382335
34.2650000000000005684342,-2.15526712567297984435299,-0.140465122510055634430515,0.436029927129575667343886,-0.113613902821309689650242,-0.0816220636729665383057863,-0.0292298025964499233464444,0.0208223679375770277799607,-0.0115601098015773815635976,0.229394572536524760097976,0.973041688413385230660424,0.0510785530876048804449496,0.052400430354706442614976,9.80620971706617261531846,0.10112989548465961542334,-0.0581107296617967561402907,-0.00451878120750364396795984,4.58221533676963677095273,-0.977679475194737412913071,1.69993838312780676247371,1128.62343742271514202002,1124.70588107130788557697,1141.67149165020964574069,1145.06318734590831809328,712.664504194174355689029,72.938458961537378399953,289.686358494772946414741,-31.2724768614600847627116,153.999495055840668555902
34.2674999999999982946974,-2.52507215138216922767356,0.140329142045626187318419,0.122098741579117639477481,-0.120164713216358257086291,-0.0801970130893056160070742,-0.0286621226634389582310636,0.0207486880576684649957198,-0.0116793447988973002338309,0.229374965325101376478756,0.973046466352800121235589,0.0570849602852258747320846,0.0500549169220228795662564,9.80840403036164154570997,0.100632486970490833688707,-0.0586051339883470537306387,-0.00452683384322237133967626,4.58249629241259981426992,-0.977695508803241630779723,1.69992977770633935108435,1130.34758130850741508766,1125.02968712729284561647,1142.32340253903726079443,1145.0039378607607432059,630.588751044747596097295,195.213675599179794062366,224.475673406935783305016,-12.8820379400556284110735,153.998877778857604425866
34.270000000000003126388,-2.74693253345640364670999,0.371878603509472327459662,-0.209755831046923191252063,-0.12833541272384976772436,-0.0778274965922121086947527,-0.0286163855197404774777237,0.0206714083700878792360101,-0.0118038865651894919750475,0.2293543400453765257474,0.97305147370597222522548,0.0632944850907645600868179,0.0472449618387173059241846,9.81049340532082680965686,0.100162626262886467198854,-0.0591140691460794176492755,-0.00452502521577551487103053,4.58277645759556762072862,-0.977712557284874717034029,1.6999206162343301063089,1131.77638117794049321674,1125.68194944930428391672,1142.79387001724489891785,1144.9987771562080069998,536.388889698035427500145,346.126148220996867621579,184.458190152869292433024,2.42832160902129023938301,153.998258546409715563641
34.2725000000000008526513,-2.80412285713646181051217,0.587067185588971085508092,-0.610008083163077641231098,-0.138581503656012183789414,-0.075365505801629720239454,-0.0292116397764277530013644,0.0205789301655735050455842,-0.0119321150521075371175872,0.2293375301075077921098,0.973055835484588738104605,0.0695302331675052148751703,0.04381924827537547750822,9.81244117542036775603265,0.0997214416218265564673118,-0.0596401723024488350510808,-0.00451335099879171964404323,4.58305738858281408454332,-0.977731522156210064444792,1.69991071520573266973031,1133.02952575699896442529,1126.76031786839871529082,1143.24569348980207905697,1145.01607946880585586769,378.613949591798359506356,423.902276025340938758745,168.957646434518181877138,-0.166639992903734879270417,153.997511588100678636692
34.2749999999999985789145,-2.67613106655715560222575,0.728665674922962303128315,-0.926812991178171063921809,-0.146776408160923743650983,-0.0740907451282675072468109,-0.0304324999428090513242662,0.0204678338317789837441651,-0.0120604929911858269053759,0.229326575997919890337329,0.973059181752927049302571,0.0756103490517979065499432,0.039798310826094529524255,9.81421071956190083085403,0.099309184663876587384479,-0.0601846401002609568409163,-0.00449106725636968639320257,4.58333892060437708693144,-0.977752985038873756451494,1.69989989991057854901157,1133.66945092589776322711,1127.80146082942906105018,1143.63865824941672144632,1144.99794395624348908314,180.910110007697085166001,412.990636499141771764698,184.687006428290374060452,-24.8848898933702038505089,153.996885797855867394901
34.2775000000000034106051,-2.39349326766340553263035,0.853480374242261641271057,-1.19518297069841761270936,-0.153940439173772813941099,-0.0734015901589335773014255,-0.0327236702379785776573229,0.0203369455312088359688616,-0.0121876248580505119195605,0.229323787831487047039758,0.97306100554693697457509,0.081401425887894160449143,0.0352409599993872973966447,9.81576734217373036983645,0.0989249151292342643326805,-0.0607479645267517062712237,-0.00445807830446427137000009,4.58362065666068030367342,-0.977777076450452753419995,1.69988852917896227090466,1133.93407630703791255655,1128.82527105089548058459,1144.16912852194400329608,1144.89165501933894120157,50.0695430993999579527554,402.324343165558900636825,278.714023517698706200463,-69.5241492883368579214221,153.996257740590209550646
34.2800000000000011368684,-1.9365050674591999246843,0.993841910478635348624721,-1.41610434589119549286806,-0.160250289469993784097213,-0.0722633530532623968856143,-0.0369624351558669184125705,0.0201882725291097978037591,-0.0123103957513475380236567,0.229322382347490499876486,0.973062895714953079995269,0.086753209195977912249198,0.0302776295880101409263574,9.81708022060448293188983,0.0985677592758428672281568,-0.0613281989590815992952066,-0.00441416110777148682636772,4.58390244305499106047819,-0.977803629680103592036744,1.69987694229913555155065,1133.9197986413948910922,1129.81308254525788470346,1145.0322283670059277938,1144.65032320980162694468,-44.5049305050765795499501,290.872411818546311224054,351.773018325867951716646,-100.023088939360619065155,153.995504462495176767334
34.2824999999999988631316,-1.51028504173144173527987,1.09240296355303012632021,-1.48374247602250552979797,-0.163277848874072678553304,-0.0700952635376611704609573,-0.0415634400562822706182153,0.0200285552230611008095451,-0.0124310413632772089748135,0.229312453758830303574001,0.973067012243230222701129,0.0916430084082304613479764,0.025106409273362217948744,9.81812130163598872911734,0.0982361288907283719540331,-0.0619223628034753920124089,-0.00436043371400950119376461,4.58418486514241507734368,-0.97783180148011239474215,1.69986426518076361169562,1133.7115516545127320569,1130.27963310998688939435,1145.92799361357174348086,1144.39153957464259292465,-109.012537026763936864882,83.8168524911023808954269,380.603875319989981562685,-96.7667400795067464969179,153.994880336639880624716
34.2850000000000036948222,-1.09052695447460856748023,1.14567344947843108293739,-1.40492794376883556317637,-0.164724408389416543396777,-0.0664146071528419063012549,-0.0464721203341466188030395,0.0198670562503195091696995,-0.0125520213813935539032274,0.229285878555298416880959,0.973075044754471263352968,0.0960697439535332237126042,0.0199718534968235106319412,9.81886858510480919903785,0.0979272460945224687556276,-0.0625274812039558480769585,-0.00429844183695461158623008,4.5844694426416792154555,-0.977860108970406427530975,1.69985157667121455915549,1133.37473595626079259091,1130.23216680771361097868,1146.93524774360685114516,1144.16648950940384565911,-149.628547987745918135261,-114.357359743813205454899,407.000756550970493208297,-65.6177812202377879202686,153.994264941791414003092
34.2875000000000014210855,-0.698869548948842567170914,1.14512812079013426291851,-1.20161228051102342284651,-0.165782927533302565370477,-0.0623526272013637875013536,-0.0510839099095519375004493,0.0197131494610749136153771,-0.0126737809622400436626588,0.229235534551305158990075,0.973088474098353750640911,0.100002510677167630315232,0.0151270920140368358985938,9.81930867290107656231157,0.0976375232369621898209644,-0.0631403841812841482017404,-0.00422993460448922026229113,4.58475669362389126604285,-0.977887932353236899452043,1.69984008620297166736179,1132.96340891457361976791,1129.70784631126753083663,1147.96299739632763703412,1144.06345066854123615485,-179.733888554282856375721,-318.538059632709121160588,400.936065653196180846862,11.7909312644876909104141,153.993660728942103332884
34.2899999999999991473487,-0.347820721367986918082238,1.07729669178749021263286,-0.866829983804142556458316,-0.166956466556427124414697,-0.0588832763003300507786975,-0.0550218995685813477836135,0.0195703821388557193394764,-0.0127946049396082395244179,0.229162081720518995275881,0.973107094228924496270849,0.103351523182915502885315,0.0107189367060830376132685,9.81943925649281723622153,0.0973621178898644024091169,-0.0637589415027379063927171,-0.00415722117094343476123575,4.58504664966308528306627,-0.97791631268143686117611,1.69983078354437555645973,1132.47606651349019557529,1128.63947650955151402741,1148.93992807187100879673,1144.22544416572623049433,-231.055788086059720853882,-562.856387745872211780807,405.538392075297338124074,156.757417857317534526373,153.993074447252695335919
34.2925000000000039790393,0.027862381012775390420888,0.935484057980927485864697,-0.366243376414435939381065,-0.168279324039031424886659,-0.0556783260845455582610519,-0.0583602900822384196288795,0.019439645320104066705813,-0.0129147706759245237129186,0.229071800176432749385214,0.973129405181714202122123,0.106063116295852119530529,0.00682834746784941049035922,9.81926740144385945541217,0.0970955963138904337705881,-0.0643816051670844102794433,-0.00408366780104626580366611,4.58533927934229534884025,-0.977946645288405913554186,1.69982403955839722620169,1131.80812997414273013419,1126.89356437253672993393,1149.99068935670516111713,1144.8472377578282248578,-257.252544307498567377479,-677.220815677100404172961,359.185045714773821146082,307.915886113575481886073,153.99239689993137858437
34.2950000000000017053026,0.29895927935240534933925,0.787244877537035425696388,0.0746064906213976669624444,-0.168666896080471723218253,-0.0538824013854922803656855,-0.0591129474215161473948932,0.0193159575630847228644438,-0.0130312275053334619689949,0.228973563777186139844844,0.973153460121913838065666,0.108004711973303149652459,0.00343204416613113183487371,9.8188121278144553372158,0.0968327513194162520226982,-0.0650068719134560546457635,-0.00401252376289136774428767,4.58563346722439035829666,-0.977980957032052677924128,1.69981921103115118931726,1131.18980379195204477583,1125.25337243116427998757,1150.73585330044579677633,1145.76502359629489546933,-255.14258453522884906306,-633.669520264842162760033,262.668068187133656010701,446.019465370496618561447,153.991857427103241207078
34.2974999999999994315658,0.509137949989748372914278,0.631661360196365651020756,0.456292434078961972598876,-0.167334176318442384712171,-0.0529641703222765297676133,-0.056982748767777591236694,0.0191944411337863288236072,-0.0131387846574775382646472,0.228876061237648503743358,0.97317738448317236965579,0.109015316475336923596196,0.000511088139545368136396064,9.81810234258109204574794,0.0965691309609372217082068,-0.0656330572867490635857735,-0.00394642784333803196827883,4.58592758235230935071058,-0.978020270182763384880786,1.69981601004038473945457,1130.53241705146774620516,1123.72521677121540051303,1151.30402969763963483274,1147.07733508467867977743,-288.636181539129779594077,-572.876175400577039908967,192.832681780820649919406,645.121782467446905684483,153.991347815784251906734
34.3000000000000042632564,0.666584606578145777433519,0.452960611133371326975094,0.760911091706105047194342,-0.164000440415347448208649,-0.0522496971852023164850642,-0.0518779112305304129781902,0.0190746662175624477619795,-0.0132382088938563947239091,0.228787710628521462341567,0.973199198523788444603611,0.109079999817091363722987,-0.0019024924005355270395512,9.81717238721341445284452,0.0963008844850972295370539,-0.0662587141512377131302713,-0.00388854180233734383204114,4.58622039420037364010341,-0.978064111636028021834477,1.69981399024973889311241,1129.74662288425565748184,1122.38899155415992936469,1151.70001670935039328469,1148.9906325086337801622,-279.952070005258519813651,-362.034676363051744374388,81.8707920911983393352784,730.206819418244094777037,153.990774650650166677224
34.3025000000000019895197,0.713288806171695655145015,0.312206607946453384982988,0.8552196062161264711321,-0.161066772116250284119232,-0.0514732166232150581408611,-0.0471752600338749550346051,0.0189571660629317649549019,-0.0133296944690153296164681,0.228709369866882838984168,0.973218688220733207927537,0.108190605684650512086087,-0.00376223930758440294752631,9.81606401031720032790417,0.0960255518290583504059654,-0.0668815001841893824741092,-0.00384123287539386588235191,4.58651142905160114082719,-0.978111737636556011210587,1.69981197336450717827461,1129.13265670144073737902,1121.91504338939921581186,1151.71338365809583592636,1150.72836918177176812605,-230.809425567559458158939,-25.800892084794941894188,-78.2397477306205786362625,682.785971130790812821942,153.990331455209371824822
34.3049999999999997157829,0.688176020510935515517303,0.174335717058164613169069,0.793278860060243173890626,-0.159038077125858101634748,-0.0505886067764800551049831,-0.0438099916523529003820059,0.0188408663019054463394486,-0.0134164046597173274716353,0.228640079351447450539681,0.973236058801243419935645,0.106400693847652674794979,-0.00507217364487114186211159,9.81482434365636002837618,0.0957409120794349560723546,-0.0674995404041620339352647,-0.00380694918364920305980936,4.58680082057477278567603,-0.978161807435813157596272,1.69980912689671992410467,1128.59257575641890980478,1122.25998709373607198359,1151.30881797069764616026,1152.40456236428462943877,-203.457322234274641914453,273.671496937389463255386,-238.648718599359796144199,625.393743563859402456728,153.989926557314277033583
34.3074999999999974420462,0.626317870929383402334167,0.0353454007722357535503654,0.636077871890098900387045,-0.157806282880511572486171,-0.050015164823361990542594,-0.0419786226366642145624297,0.0187285521936545566734633,-0.0135070139210506715010673,0.228580026416911691322653,0.973251093574099002125877,0.103897827350904012333466,-0.0057932496925725135428209,9.81350234568277457469776,0.0954442390769364296110311,-0.0681121182929230739588888,-0.00378832489438535877437908,4.5870901805608781387491,-0.978212366843922098702535,1.6998059744657545433455,1128.11537009027028943819,1123.28340087408491854148,1150.52014006510012222861,1153.85533789958822126209,-181.509500366562775752755,542.283108022861597419251,-404.057682838104199163354,485.102019467628565507766,153.989555025012009537022
34.3100000000000022737368,0.547729015435159283242683,-0.104621388562612549488762,0.416945841298877573066761,-0.1572853393928232146326,-0.0500354525459327792447084,-0.0415893026320341974155781,0.0186203899667052932831446,-0.0136057739498261550531444,0.228527104216515092316442,0.973264224818097933855654,0.100784847935321983380952,-0.00592187353581494213550229,9.81215194663215406478685,0.0951327865608267847497004,-0.0687188430174360542768142,-0.0037866885787648314927456,4.58738024609161332278973,-0.978262015841231846735582,1.69980248694613123028319,1127.68502825458563165739,1124.9714026338517669501,1149.28852955650609146687,1154.83007246162401315814,-190.369393583926381552374,825.933504343115941992437,-618.214891428171767984168,276.086789550795117520465,153.989225314191259030849
34.3125,0.456776951028952105104963,-0.269554785806606023168541,0.141922082439726010560932,-0.156997782827016013618149,-0.0503666060005781845987372,-0.0417544556911101996665714,0.0185130594900066516861337,-0.0137154532089762849073056,0.228481871749313308894713,0.973275346274525499090657,0.0971308421684564243792082,-0.00551946861369440044953194,9.81082934850751620103892,0.0948032244942659946262964,-0.0693203836790821092961323,-0.00380285024366280909394189,4.58767147134062547308986,-0.978309815362368273561344,1.69979881475912053545585,1127.16352312235017052444,1127.41306839580261112133,1147.42906560795768200478,1155.23577184734290312917,-199.152795013650717237397,901.818413432785632721789,-711.616061912638201647496,3.06230093492837340818369,153.988879607648726732805
34.3149999999999977262632,0.387075125854054846730179,-0.399632821050472319956981,-0.0658051505318946461375873,-0.156559708480664583341024,-0.0507264382854625342500476,-0.0421480713727988079431164,0.018407612735035033119102,-0.0138373347583923035630793,0.22844648735299219466377,0.97328391275175807351161,0.0930059776846431790486847,-0.00456201218525970064732178,9.80958952358885483135964,0.0944521031466863669745493,-0.0699179434891482876057722,-0.00383645801317713001574172,4.58796385124972783131625,-0.97835595251816198647532,1.6997954679775315600665,1126.68926427951828372898,1129.48049470101159386104,1145.73044924694613655447,1154.84538396629864109855,-198.511335622914288023821,761.078318360588923496834,-657.603103378442142457061,-307.961853608982664809446,153.988633981579340570534
34.3175000000000025579538,0.314463322758798624612098,-0.511221201500110966620127,-0.225076159706593059706137,-0.15566428805163995408023,-0.0514703217871310819697683,-0.0431870565162495376188012,0.0183037300631224003621966,-0.013969652188065187492505,0.228421474022710013773718,0.973289831901552715542891,0.088425617638730122371804,-0.0030428658155153831543771,9.80848597358580143179552,0.0940767154873129174408319,-0.0705122124245932541120041,-0.00388620619304575788677258,4.58825655759703376901371,-0.97840219660000893320273,1.69979227783937858475838,1126.17096644423509133048,1131.21845998760750262591,1144.14105009106378929573,1153.69596257929720195534,-225.874448057559618519008,624.991229208033928443911,-609.826351900853296683636,-651.782635073398864733463,153.988433050611604357982
34.3200000000000002842171,0.207720548010014938178358,-0.602918185122584993074213,-0.342746234692677731459298,-0.154274043873163013707028,-0.0531918328759334868571784,-0.0450833294477362284125022,0.018202916888876586459789,-0.0141108664432677676642269,0.228408726488031565970971,0.973292653290925180442628,0.0834257848100563442761413,-0.000926930188104788110869947,9.80756716232687431045179,0.0936749186472099759637189,-0.071103689716238538398585,-0.00395020697164014025076773,4.58854889891046813232833,-0.978449599594352847908851,1.69978947494294074793686,1125.55989203922990782303,1132.6054508470533619402,1142.68131748744031028764,1151.5864707909299795574,-206.32953757736353850305,368.15870086567718999504,-423.290314794461039582529,-855.755390833297269637114,153.988243841657151733671
34.3224999999999980104803,0.0948157681895259590865166,-0.627044720368523544884454,-0.378098093575127747190123,-0.153097221354151935557297,-0.0554075848548142083083157,-0.0467404390280043990912873,0.0181071555280642969287808,-0.0142580249490809000262326,0.228409521042226615339388,0.973292084342866958834861,0.0780250519629228506124363,0.00183023329347940799660677,9.80687557222612049656618,0.0932455460685883696925202,-0.0716921258503099151360161,-0.00402571684227727433214028,4.58884003753803693115287,-0.97849893666557485882862,1.69978695085831987832137,1125.13931875634921198071,1133.05925349193421425298,1142.0245985170934091002,1149.41718562513460710761,-128.429936281579784917994,37.4554540657563208583269,-126.246540878791151385485,-891.352745521634119540977,153.988129278193810023367
34.3250000000000028421709,-0.0406881400851251476269432,-0.583603316834219620901081,-0.36082286411676767201584,-0.152281678092885147668412,-0.0581023358237909431922574,-0.047951742545238817960751,0.0180134265570218200791519,-0.0144075697484364276951263,0.228417863032334106376808,0.973289639318726584882313,0.0722152651457122624067964,0.00517289489687698667008675,9.80644702493944997456765,0.0927893319750373452015069,-0.0722751548534392440625851,-0.00410982561397217182469488,4.58912907396049085662071,-0.978551429919311099858703,1.69978387819304210815119,1124.91774235782168034348,1132.79272811738223936118,1142.05008478304603158904,1147.12970706331952897017,-43.1140231337628847541055,-204.427036673027942015324,115.944126778535775201817,-883.675301872929480850871,153.988058935177321018273
34.3275000000000005684342,-0.183247130526642459935616,-0.486428265742564203133469,-0.316622773926124201349097,-0.152124761781571055108131,-0.0604506063423085882035934,-0.0486450263889613987444704,0.0179173455889666127793802,-0.0145601592330977611805531,0.228425338235722891200297,0.973287364447364633512905,0.06606796934647905794602,0.00899170147103803274468703,9.80630744810564713986878,0.0923079376456539812956237,-0.0728492936449839784129878,-0.00420013028378383394129125,4.58941548120067643878883,-0.978607858085886017640576,1.69977920454792430504654,1124.9237486406802872807,1132.03711830856855158345,1142.60431915098638455675,1144.99880911576769904059,61.7152153655403878929064,-377.776094180969948865823,315.985945539810927584767,-756.799593292686722634244,153.988024722106246144904
34.3299999999999982946974,-0.31131606036169201523478,-0.344434445943542111301383,-0.261654706114767265923149,-0.153008112865850642858589,-0.0613555290598535654766899,-0.0488017774184052732788786,0.0178192440036668356406757,-0.0147136268958599110423524,0.228422614917850375082509,0.97328747698096707008375,0.0596260510598135146098642,0.0132701853633317157221683,9.80647270066093490470394,0.0918034337812895367969546,-0.0734103623897384288676804,-0.00429272100540590510059369,4.58969974440011085903279,-0.978667859977150556005654,1.69977323928603762936973,1125.22631843464910161856,1130.90384764647910742497,1143.63001451074364922533,1143.34570909685953665758,189.684283517811593355873,-526.124297468144504819065,499.039109054519315122889,-559.682677454143345130433,153.988033434091050821735
34.332500000000003126388,-0.418003660712999436377402,-0.156057918184918043014164,-0.204190691684639491487729,-0.154707090181639972392702,-0.0605740279456257052492774,-0.0487115853628440342859562,0.0177235369700893263811281,-0.0148667099703431448975977,0.228401030529456594564408,0.973291947959635028730929,0.0529712591743720789816408,0.0180550854980973118912857,9.80694701910251076526492,0.0912776370274404752480635,-0.0739539233230496195758974,-0.00438317517222786348640717,4.58998278910618306980496,-0.978729971932772779830145,1.69976537429058915940061,1125.87217005826983040606,1129.40649682122648300719,1145.09951469626025755133,1142.20039572849555042922,263.904696943565397759812,-534.965896654875109561544,530.996676422365794678626,-258.357432538427644885815,153.988092744779095255581
34.3350000000000008526513,-0.451501890692560969853275,0.000902977923213699185112091,-0.170312018386592184393535,-0.156167754812280068499319,-0.0591835999391826170223929,-0.0487485341073184419435904,0.0176275778958405737739668,-0.015014724896864379763417,0.228358550526902820410058,0.973301370347782524028446,0.0460907100337199920891962,0.0232628237349561672875353,9.80772642484737566803688,0.0907309977521763844077185,-0.0744763865992133095028649,-0.00446694820001674718773499,4.59026499450745184560674,-0.978794341485889951570698,1.69975560710999196167847,1126.54584191936760362296,1128.22901816320336365607,1146.284997892856836188,1142.0539219341667376284,267.242187865001369573292,-428.900750135634439175192,418.270759665500236224034,106.003538952842063736171,153.988182367492441926515
34.3374999999999985789145,-0.41629248814673297518496,0.164232396616772635677961,-0.15025496745214772520427,-0.157609572483145665700022,-0.0583846207767109923181259,-0.0490221742282243161392685,0.0175301026949620346317982,-0.0151565425672052517952482,0.228298615968334811521245,0.973314973257153437380396,0.0390482206603930542820891,0.0288095375560842997808564,9.80879560126642147110942,0.0901625388665105720331638,-0.0749748760053478846554498,-0.00454026121317237588148608,4.59054694019528408688302,-0.978861430478111471664704,1.69974458067511147163486,1127.20838099759362194163,1127.26199307055026110902,1147.19086849458585675166,1142.7304134232592787157,257.171324515689150302933,-368.791477756387905628799,301.87052271719966256569,448.456972083611390189617,153.988313150509696924928
34.3400000000000034106051,-0.290491105346548816878993,0.397896643107751135648442,-0.135682416758138413293011,-0.159255514303384360097482,-0.0586444703030045560998573,-0.0494106712535742273462169,0.0174320037157872503863487,-0.0152949911049688521552659,0.228224360019206845562323,0.973331960727630729479642,0.0319960626767067796150101,0.0346237566663359364049768,9.81012870845541584685634,0.0895706777619643956800388,-0.075446248828946668729678,-0.00460032743020157616070653,4.59082961533737687886969,-0.97893121971692209637439,1.6997319469019946946986,1127.83169854194670733705,1126.38506077442048081139,1147.79435050644360671868,1144.29620679458594167954,185.098682496432843436196,-282.886266405322089667607,137.289959662050733868455,653.756503214465055862092,153.988517088191372295114
34.3425000000000011368684,-0.119530872409352104113189,0.643946103031019956297598,-0.125804459996916556674407,-0.160308784127849407452615,-0.0594384718530932207314343,-0.0496937544869290662163941,0.017334442039866823637162,-0.0154264723643984854456468,0.228138298332155237124752,0.973351778032539916019061,0.0249678586784451844726718,0.0406572423370806096398766,9.81169313724612379701284,0.0889534675568931232358949,-0.0758871987626810323712689,-0.00464356348727021014943794,4.59111349315200989451569,-0.979003072156324871677668,1.69971811777690895439719,1128.13387441007625966449,1125.84756173852292704396,1147.87731829289646157122,1145.9991959393332763284,70.5458621731582269376304,-198.760041360172863278422,-35.5482236018229258434076,701.806349367463326416328,153.988725816143102065325
34.3449999999999988631316,0.107097459104370296145703,0.942402078724841274492974,-0.111159216437915694952743,-0.160575116599534939432203,-0.0596931178248986948897681,-0.0499115562529181683304458,0.0172388455501094432775755,-0.0155493782000992123576433,0.228044965097894430927639,0.973373363871445129724691,0.0180386731222944712849099,0.0468485848998910076046442,9.81344934038056315728227,0.0883082801759264984786668,-0.0762949493217029844904786,-0.00466753464436658709046934,4.59139868213274127128898,-0.979075806989435193372628,1.69970362087479243129451,1128.18442785281217766169,1125.39126056762052030535,1147.61660938843465373793,1147.80523854142006712209,-17.0125967253992982364252,-193.179543220040926598813,-136.476226164380221916872,697.443176845634070559754,153.988974360239467387146
34.3475000000000036948222,0.364947103468231226486296,1.25717381346713841239193,-0.0866637544616521288132205,-0.159980148849136444288987,-0.0581777959603390140697066,-0.0500929387811176393685564,0.0171435581437238346302898,-0.015663518596330923415838,0.227946860517643956622891,0.97339617044037918258681,0.0112984760969416925258102,0.053062559694044747482522,9.81535391630522546790871,0.0876327469614942844433614,-0.0766666099948503099170694,-0.00467135515076992462180083,4.59168526661320886006479,-0.979149747746549836691088,1.69968877937461093630134,1128.04881142644921965257,1124.88166402242222829955,1147.19493716207421130093,1149.48641182356323042768,-86.5103785352870033875661,-245.554289266521550416655,-175.726912948631394328913,605.189078664634166671021,153.989255491512636808693
34.3500000000000014210855,0.640831074676948331259041,1.53434135852022168755582,-0.0422272184914282075474112,-0.158514719776078200075276,-0.0537114336552259458157366,-0.0502636240732773700856661,0.0170405466064971061745936,-0.0157681643483842601205502,0.227846760770456041589327,0.973419708251938353704702,0.00479860127166822914013267,0.0590380891337835556065272,9.81736312303344327290233,0.0869247799209733051917226,-0.0769996717023068572016697,-0.00465573511118431461464073,4.59197286089697520594655,-0.979225816681149718867516,1.69967368442412047890855,1127.75187596013552138174,1124.16348912128728443349,1146.73797482369104727695,1150.83118393474478580174,-146.412015454140060910504,-388.507684224976856057765,-180.003474478717180318199,486.799515340759910486668,153.989575085864771608613
34.3524999999999991473487,0.970598247522768686756933,1.75240889620259787662349,0.0448534122792789424760684,-0.156167668716538476925138,-0.0460862691486933206963528,-0.0504821206547850717671899,0.0169303579883576041376081,-0.0158637628562171666135594,0.227751266068165758582609,0.973442419332278152666049,-0.00135010214827031849171846,0.06466968903363148890584,9.81943060185262517336469,0.086182298489961950416216,-0.0772929042817706440926528,-0.00462172329593641805639548,4.59226118022880758218207,-0.979304440169243339830984,1.69965934413381369871843,1127.31675134917918512656,1122.93912560129911071272,1146.29491978968144394457,1151.92040940026481621317,-155.009720836790449993714,-510.363062377166841088183,-137.270649322156515381721,306.156731155149657297443,153.990001548548690379903
34.3550000000000039790393,1.23004416352847267823734,1.8119652378835870987217,0.151963602621007248805185,-0.153791798202424417896239,-0.0394878747267711008306357,-0.0506624934608301061289559,0.0168154708810325098644611,-0.0159479344706027967304429,0.227665458771535128557062,0.973463113335459873098898,-0.00708559647139883619360035,0.0699002646692900020397587,9.82151147590336215387197,0.0854043619318069352486233,-0.0775455799572527249008402,-0.00457058544978933625757556,4.59254947585170825163914,-0.979386689763047435519638,1.69964650603555300634184,1126.97682735595117264893,1121.61167380940014481894,1146.05162157707991354982,1152.36196759052131710632,-109.260268845162997308762,-571.834238472982519851939,-77.2290936528921179160534,85.8769733845762743840169,153.990391299411015779697
34.3575000000000017053026,1.45480458031249115791184,1.75330946644216290053464,0.29764074752993607830831,-0.150896016513712122320001,-0.0339521370507361794355283,-0.0507608942671213952957388,0.0167041296657946224113456,-0.0160223950788884426932324,0.227588964143548622143243,0.973481708921493882336051,-0.0122477730217641772592074,0.074765748140194820958726,9.82356212210320300926014,0.0845918626112525801064024,-0.0777571470627314992318802,-0.00450462500371971892587641,4.59283720226829217381237,-0.979472052165710538318422,1.69963614353253134048316,1126.77045000495309068356,1120.07995440893273553229,1145.90877432141678582411,1152.3497942671879172849,-35.5190274323245063214927,-668.42013221454942595301,-56.39849405666281967342,-92.8779600509122928997385,153.990814639828727194981
34.3599999999999994315658,1.65651798553857765305963,1.59454648745626603734138,0.508912933750572893387698,-0.146892980659198646442576,-0.0290357951865674590585797,-0.0505789836291050537431246,0.0165966786486557021929045,-0.0160911567048791503964367,0.227521542348972732883183,0.97349819275616666924833,-0.0166766232508013256818913,0.0791463671597785745071008,9.82554605412809145548181,0.083746735754972309595523,-0.0779284432270375554407948,-0.00442800114790425306671162,4.59312357958812622626965,-0.979558866402134409412383,1.69962900725223642339756,1126.79923221878971162369,1118.26957314833043710678,1145.76962910679685592186,1151.89757779026717798843,71.1171624407234048703685,-611.329750823875770038285,-56.7741303270104822331632,-223.089441572278246894712,153.991358585745814480106
34.3625000000000042632564,1.7422850781056125057944,1.4334089032706600619349,0.699010587931042093323697,-0.143143455049997037065168,-0.0260940075992605047261463,-0.0499442582272025328848919,0.0164865136377160860503555,-0.0161578661344456281367954,0.22745977058637265044716,0.973513421896253783316411,-0.0202617084298021277177781,0.0827994648939144317623118,9.82743505477756684740598,0.0828725648822821875372213,-0.0780612809235906868199351,-0.00434572327344667688059365,4.59340747301395690982417,-0.979646164616194026208973,1.69962433746427987735217,1127.12603581715688960685,1117.02330565481179291965,1145.62490366978158817801,1151.2343470593259553425,202.794349036945220632333,-388.67598346471947934333,-68.8508738976554610644598,-305.321782104900421472848,153.991839389469021170953
34.3650000000000019895197,1.70603261084281720982858,1.29028318526158747303612,0.870649242505250775536751,-0.138496140798259448345675,-0.0238164018139160015008482,-0.0484584788062592808355333,0.016372723236073138952662,-0.0162262725495389455165895,0.227403627697768007109858,0.973527357528537806707902,-0.0228789604540610425065239,0.0856046268517448583068585,9.82920547398750343859319,0.0819735331286578911003105,-0.0781596193842197806134209,-0.00426187684626911332530508,4.59368869858713324560995,-0.979734308818653865102988,1.69962161124591060179512,1127.81320396397495642304,1116.32619323100584551867,1145.42537473730840247299,1150.37096887974189485249,332.827532441372397897794,-156.427638457813770855864,-83.712470491931270544228,-363.431102475318255073944,153.992345501094348492188
34.3674999999999997157829,1.54187134223208466288213,1.18754358237059709502148,0.994371893218157443250504,-0.133148387846356158759065,-0.0219238827907988174936715,-0.0460209196441348430961504,0.0162500808724954821926634,-0.0162965936434992762771312,0.227354375994578417063963,0.973539789242033881677685,-0.0245074072865407999177734,0.0873914154086172789703824,9.83084137991779272169879,0.0810547558040159293879512,-0.0782289706372749360507868,-0.00417974309611968738303878,4.59396663124367865549402,-0.979822937310406261168794,1.69962067631048463489662,1128.79017347936223814031,1116.24116746252343546075,1145.20634131732231253409,1149.41719154695101678954,446.383471604118653885962,131.163751218474459392382,-74.8315376190701755376722,-383.556904358405120092357,153.992870034285346036995
34.3699999999999974420462,1.20610454456417182100836,1.14845396088107265519795,1.01957977192937021548858,-0.127788644029118880762752,-0.020291225015917929708209,-0.0423522542411691460539913,0.0161247069924995815870528,-0.0163671958011793808318579,0.227308843768619567304867,0.973551375918098260697775,-0.0251294153262780622926087,0.0882332524198792822467396,9.83232873479959401663564,0.0801230697040980210932304,-0.0782753655438824108570017,-0.00410011572349282260585568,4.59423985197273321290368,-0.979911565181314725414552,1.69962084103177502036885,1130.04512132199351981399,1116.98201198709762138606,1145.05121704921339187422,1148.45318435795161349233,584.360300374438565995661,509.829612495753508483176,-21.4191083472887413563512,-401.234131025989256613684,153.993413688139980877168
34.3725000000000022737368,0.618015464528780089636939,1.17232752803850437395283,0.899158451980619721766175,-0.122412253768996670544311,-0.0181258312486244216321651,-0.0371224769455418754371401,0.0160037585591845492316576,-0.0164358706439504918817018,0.227264748759481799433857,0.973562562052957658487173,-0.0247535007752931052182888,0.0882482520415183158135619,9.83365786075323278225824,0.0791859533328852366329542,-0.0783059247821143444845404,-0.00402251708962105339328907,4.59450762590681716091012,-0.980000472938373889952857,1.69962110618276240892044,1131.71197498123592595221,1118.7903155250035069912,1145.09924577558581404446,1147.41102089182004419854,608.224793167262646420568,791.330851584057086256507,80.3601240145824675664699,-347.698162166720464938408,153.994084229404023744792
34.375,0.0144083311110439673402572,1.23407831194570705157787,0.669952949922860141462877,-0.119797698847508307662402,-0.0157625698538485202460091,-0.033185688544241496999998,0.0158907057766405623855377,-0.0165014837292400302903861,0.227223739729141976928517,0.973572919673420855701806,-0.0234043681268883418944426,0.0875039476187069731327739,9.83482411020338354035175,0.0782506787428476346946127,-0.0783289711441127328717116,-0.0039459853376986129408488,4.59476972981226250425379,-0.980089514110066506447083,1.69962037848638147785607,1133.08624528783138885046,1120.93866624501993101148,1145.45301766928650977206,1146.71469354711712185235,509.902196594712108890235,946.435238196905970653461,224.990498472539002250414,-231.039858590776049140914,153.994655296076444983555
34.3774999999999977262632,-0.624222099490768012053366,1.30650995930284419266343,0.337523357460977835309279,-0.120370649260509776645733,-0.0125608406620061514857856,-0.0310852470361039009971726,0.0157831953373124035666653,-0.0165636175662339027447878,0.22718547124347768240149,0.973582571399210561224891,-0.0211398059598411208748203,0.0859771506482801539661409,9.83582779355466385595719,0.0773248474533071716852106,-0.0783526692677213726367924,-0.00386938599345260092476906,4.59502590689501122511729,-0.980178445512212781487449,1.69961701935862352641493,1134.2614859642071678536,1123.52249171598373322922,1146.22419826794748587417,1146.25582159886721456132,435.78119267477165976743,1176.80141972144883766305,433.872379867585493684601,-142.348465468485244400654,153.995235749369470568126
34.3800000000000025579538,-1.31417754475291870264186,1.36429894761668268898802,-0.114303735493123476141264,-0.125248938550017036019923,-0.00766777293036036838858038,-0.0313826016029002327623054,0.0156737821442356449475053,-0.0166233130647435757565322,0.227147239475243900574952,0.973592249371141527092277,-0.0180325181178492138789338,0.0835644875341526593981456,9.83667313797330855607015,0.0764159951231580258923515,-0.0783845977009716005090567,-0.00379176799646371506802289,4.59527684694378457663788,-0.980267135237452791329815,1.69961013207815669900924,1135.26515125120636184874,1126.82267334363018562726,1147.62237956862554710824,1146.00295121977433154825,284.364637404351071836572,1203.09740482486927248829,571.395690368379860046844,-45.065752057575672040457,153.995939287232488368318
34.3825000000000002842171,-1.7511487885114551676935,1.3653599420323121460541,-0.483742666666945542175426,-0.132010031537792921207952,-0.00314795899934939811884438,-0.0336311291908564929942216,0.0155565303898189798842422,-0.0166845919692814419199589,0.227108266942654873910001,0.973602161788646891515953,-0.0141095853291105799431904,0.0802022819922099949874195,9.83736545096249770381291,0.075530486882747244203884,-0.0784320762158537826413962,-0.00371231893751065552058965,4.5955242144577237439762,-0.98035542552398391435986,1.69959947549188061799441,1135.68330915122965052433,1129.53797874011115709436,1149.08117671979084661871,1146.03049283857922091556,76.1100823544676217125016,1043.57325385057583844173,600.446145291880839067744,53.3368336422002684571453,153.996528608246620706268
34.3849999999999980104803,-1.99771840151873925073289,1.30830845130042172641538,-0.802743332202014214793451,-0.1396396352194176904149,0.000496420063244771420096768,-0.0367240665723812809151383,0.0154279563677145546002345,-0.0167492342213268613493327,0.227068105774681228137268,0.973612440084488883762504,-0.00944631140751055198290231,0.0759057319147652398427795,9.83791103244957199081,0.0746735701430806114720085,-0.078501559226261771740063,-0.00362986414622953282999029,4.59576909766823948899628,-0.980443963267748186396489,1.69958547064294407391571,1135.64570166297835385194,1132.04053961287831953086,1150.62461029508222054574,1146.26963538798509034677,-83.8107850032455274913445,951.201909069700377585832,588.916548038349674243364,123.392088331075314044938,153.997117774690394753634
34.3875000000000028421709,-2.09076273405352752732256,1.20753002776930729034177,-1.06743668029823779441756,-0.146616951377093407415941,0.00310557185496639423516463,-0.0396133694594708804515015,0.0152869759055542942666195,-0.0168169423560488411062419,0.227029337909771589121277,0.973622507203505627160212,-0.00416044712402439953446986,0.0707652175020388463089205,9.83831762704027923405192,0.0738488234767060575114428,-0.0785988144339697658580235,-0.00354345791891500470904841,4.59601188227372148276118,-0.980533506754498795920938,1.69957015729868388120849,1135.26425522621320851613,1134.29398828546209188062,1152.02575945998410134052,1146.64745328023491310887,-219.327628470252079750935,836.785847721948130129022,474.745216507092607116647,175.224583853561341584282,153.997704268480418932086
34.3900000000000005684342,-2.04340692311330274222314,1.05983962182621116454584,-1.2681236333451768594216,-0.151731007072311019356903,0.00528853379556919796916636,-0.0418908550662251480400933,0.0151377314173456734014422,-0.0168881488524147901908457,0.22699817857035861634607,0.97363084210665096218662,0.00165730365083747999133124,0.0649846796404031090688136,9.83859412196142457673886,0.0730579816260485542800396,-0.0787289015368692335350431,-0.00345291754182713460027965,4.59625303295041565121437,-0.980624306638841369831994,1.69955602881751133281796,1134.54906352062653240864,1136.22446885149020090466,1152.99833637761889804096,1147.14575830725334526505,-367.421250151226047364617,779.086293294020947541867,279.7351376846379480412,236.44832871735746948616,153.998284162154163823288
34.3924999999999982946974,-1.90150915604061632180333,0.826577415405287951877256,-1.4366543960027478021857,-0.155708575428145035157712,0.00826940157470180785270752,-0.0446345518965545473566436,0.0149856932112397787243419,-0.0169604959865170996924366,0.226974879265046586285237,0.973637339412811275707327,0.00786122861135202244398101,0.0588166209753234192625371,9.83875311763676485554697,0.0723024986938660685353852,-0.0788946708376364186365848,-0.00335874175015369539482046,4.59649265752033020504541,-0.980716426904288507415686,1.6995447297235823924666,1133.4271489754587491916,1138.18941975192865356803,1153.42443514840601892502,1147.82969492382062526303,-438.273766711475673218956,666.512658445685815422621,18.7660607148604370308931,259.215047300862522661191,153.998967569970176327843
34.395000000000003126388,-1.75953597022246555070524,0.582076521524107270977311,-1.50716812808007460944282,-0.158070341494822935723974,0.0110467730140979946557023,-0.0480649118813979633890732,0.0148335398043302323783932,-0.0170354460255903797372135,0.226956704697116623536957,0.973642567563481331482933,0.0143628537780939036228034,0.0524504345219519163556754,9.83881211088868390390871,0.0715830115899880048413451,-0.0790972413351062053621376,-0.00326351530470715646067847,4.59673062684433286761987,-0.980809803862516926820092,1.69953640483715573417101,1132.35769468706803309033,1139.55703214372033471591,1153.09216668119324822328,1148.44183354375832095684,-438.87798007426965796185,491.23794248778148130441,-261.040330037124647333258,249.197852166125642270345,153.999522819653833494158
34.3975000000000008526513,-1.61950282121189381712156,0.292232983073674845719836,-1.48443331559833202604182,-0.160512830745249385211437,0.013244456444224601485149,-0.0531047719279677879478108,0.0146856759127261191077984,-0.0171161506548571304420214,0.226939779855648365858301,0.973647305731352052937666,0.0211140698396836273831312,0.0461047164889473032323153,9.83879258933274059018004,0.070899081434167912640909,-0.079336299369947529958047,-0.00317055309638251741830017,4.59696747507251846087684,-0.980903970419271686864704,1.69953159621576377347196,1131.23275907508627824427,1140.64560946436881749833,1152.1192334982197280624,1149.07568418465189097333,-494.285487554674830334989,402.7391969288171367225,-524.326582145180850602628,282.116896298868709891394,154.000058245902039288922
34.3999999999999985789145,-1.44579510192785076760913,-0.0766661555274615047483877,-1.33982545978361144989321,-0.16404031608668528940953,0.0141753819841113470195948,-0.059309943747303722760833,0.0145413656968601985586265,-0.0172032003373823703940015,0.226917452673027625342783,0.973653103416506016110077,0.0279984280796196915996887,0.0399100479116448192407063,9.83872246052132837235149,0.0702495453482401138733948,-0.0796097981666940013312228,-0.0030835362620071212966244,4.59720393457487297439457,-0.98099921276765678079812,1.69952997483940326794993,1129.88626724929690681165,1141.57072812836258890457,1150.47053377046972855169,1149.85241802525138155033,-487.497153670279487869266,259.245593022891796408658,-632.268626816307346416579,288.440053335023321778863,154.000671491038843896604
34.4025000000000034106051,-1.27394327128236484192314,-0.366771917777870715138278,-1.13767500479455097028847,-0.167394246592518891603163,0.0133624283886244199504034,-0.0633309259723788126050792,0.0144007713352990503880013,-0.0172991238250215575988911,0.226881947257125515804432,0.97366172595260180866461,0.0349476019625294814785477,0.0340007724641327030434823,9.83863311337309198734147,0.0696323432920433749160338,-0.0799142256182910626360894,-0.00300609662545049021245558,4.59744135352801741589701,-0.981095447463130820864308,1.69953076636095579132757,1128.79527330673363394453,1141.94183742948393955885,1148.95789036413657413505,1150.5178844513277454098,-427.684956435459241674835,41.8303017061830075817852,-567.807527127916387144069,272.891190070273751189234,154.001153162974418364684
34.4050000000000011368684,-1.04184774282762848685024,-0.59573967017044515692703,-0.893854090648461663271007,-0.170966595130710469208069,0.0110199778323716700983992,-0.0657146236552314799705954,0.0142605372949779225094646,-0.0174036254793017569619806,0.226831516905949354123706,0.973673637111480028138999,0.0418330102522274510645772,0.0284486305132824746078057,9.8385603316145946450888,0.0690436325129716726989315,-0.0802456464895184434782394,-0.00294111179221985194476296,4.59768080602157169778366,-0.981192723225935981012924,1.69953351159468679654196,1127.74784246711851665168,1141.77987963689361095021,1147.63149613482869426662,1151.21687397560344834346,-412.399661275696757911646,-167.167292978744768561228,-457.576690462117369406769,286.832785468038139242708,154.001598028062346656952
34.4074999999999988631316,-0.740901555116064702843914,-0.750447350717596717295521,-0.654852714127109436503815,-0.174502784757195966713894,0.00787366845171631919708677,-0.0667214960772389426013618,0.0141195242419229517738533,-0.0175120465295536542615906,0.226766578464620727206835,0.97368884468528227316142,0.0484638303463999636777615,0.0233748752149271626921134,9.83854193839320956271877,0.0684788002169133686036773,-0.0805992669209267820207288,-0.00288947433478145294244444,4.59792248003415338075683,-0.981292041202348253037258,1.69953722546662766568204,1126.73327500035702541936,1141.10600096459097585466,1146.67000691182806804136,1151.95204837866663183377,-399.189507330652702421503,-396.338656795957888334669,-265.238326291092391784332,301.303209026928470848361,154.002007534631530916158
34.4100000000000036948222,-0.350946205632994223666543,-0.807695856532822942241978,-0.462311838118303120026553,-0.177479404568140597397985,0.00481183603912215592662838,-0.0663496875479040737477732,0.0139807816634507382086428,-0.0176220335106393559410076,0.226688451619113801038807,0.973707045237979240681625,0.0547250911497937225780319,0.018954808670543860094071,9.83861440028484679487519,0.0679330179412877127598236,-0.0809694924691737871746966,-0.00285080035080348447376619,4.59816590229478094897786,-0.98139452769616075666903,1.69954081409866164520395,1125.75189493046423194755,1139.79818635291280770616,1146.30530450337255388149,1152.72339002073886149446,-422.988511854475348172855,-703.311423073186574583815,-14.4972823218193713756818,339.844013157252277324005,154.002368828352729224207
34.4125000000000014210855,0.197035314091223517918294,-0.779942380869467100090731,-0.31108728338218238906876,-0.179124559028219443312935,0.00205178305294094953312167,-0.0652258457169312966250629,0.0138394393771391049224873,-0.0177295110473362355074656,0.226604471602740498159534,0.973726673968886902166275,0.0604472370478770920643186,0.0152016083311424798907296,9.83881452118445487542431,0.0674007246909249790878249,-0.0813509320488808446159013,-0.0028242011731761905435345,4.59841028775811810902496,-0.981500546723849232044756,1.69954357389866395067202,1124.61833244108356666402,1137.58944384922324388754,1146.59752050021893410303,1153.65126844445376264048,-404.080522141115636713948,-887.586564266246227816737,211.13728999090301385877,331.677340482685110600869,154.00273994805971256028
34.4149999999999991473487,0.683051326213375609164302,-0.699372502736644086063222,-0.245310434766542323492544,-0.178007257093914322831907,0.000586848848252102296696453,-0.0647243351637403208087562,0.0136950582876012375010966,-0.0178313695707605530949014,0.226519774858310929399607,0.973746592052245008019895,0.0655133362715566297529435,0.0121880956534694689930021,9.83917390599121688410378,0.0668771526369630886499351,-0.081737682130141472991447,-0.00280731386686150323483968,4.59865501683418820277893,-0.981609376846105607938853,1.699544699512642420558,1123.7314923197604912275,1135.36025353158561301825,1147.36099095332610886544,1154.38177672315077870735,-334.601025766698342067684,-926.230774495233163179364,371.017279887784127367922,272.18353599077715898602,154.002992669872725173263
34.4175000000000039790393,1.1460085440767715514454,-0.586927905055180554327876,-0.20890118242707722551188,-0.174641198064426850233843,-0.000240995387304491950463542,-0.0654031328384139382103868,0.0135449787618721704390845,-0.0179266816672937930043918,0.226441843290209304795368,0.973765108300233883653618,0.069852675412145390221319,0.00991331048099416967112063,9.83971826260416548848298,0.0663576371278890853044885,-0.0821242774431396732603972,-0.00279751540364838032978745,4.59889965005668788222692,-0.981721194345383518786718,1.69954402225567502426884,1122.94532731224921917601,1132.95828997674470883794,1148.45260689965880374075,1155.01218612440834476729,-291.706127333723941319477,-952.324223206655346984917,451.429178348458719938208,229.152741838262130613657,154.00318174328896247971
34.4200000000000017053026,1.55704551813957614569972,-0.462528477962862893946294,-0.164592264139780092291332,-0.17038422584789145175499,-0.000793901450230829683341049,-0.0667725804576983217319963,0.0133899777015205317248769,-0.0180144730165446749492464,0.226378094441759880606213,0.973780503506258776624804,0.0734230145725866673034332,0.00842029724015713743057177,9.84046509483284559394178,0.0658380553495384601703222,-0.082505643321470381601479,-0.00279108249853346869831516,4.59914359055971821987896,-0.981835956010735699805991,1.69954213277760302069908,1122.27296168309112545103,1130.59863241554990054283,1149.61813684506955723919,1155.52754043234267555817,-237.766979708647141933398,-894.26944190972267278994,436.927654566431499461032,174.839451477305232174331,154.003314656402125137902
34.4224999999999994315658,1.88233984050235125806694,-0.330319944334874993074891,-0.079700081043437634442661,-0.165596229060171518110423,-0.00129627624370357713567969,-0.0682727257525917591296505,0.0132369238263826006357649,-0.0180975035108812791484478,0.226329890057345217702078,0.973792315683433051809459,0.0762945226425064820796607,0.0078300872706725810346029,9.8414209430072414619417,0.0653157570808486631630529,-0.082876530562343272978687,-0.00278372310048369004525926,4.59938588911556234251066,-0.981952996004207823155241,1.69953806257724826522804,1121.75649241370706477028,1128.48694276720016205218,1150.63724517248897427635,1155.88638338179407583084,-193.07993212623060230726,-837.83141905439947549894,364.804586483109972050443,122.639498864083194007435,154.003376150199414951203
34.4250000000000042632564,2.16000474288101962372366,-0.160124147641528880026129,0.0876243173167117195276887,-0.159149329323024862903324,-0.00207023531229637812456357,-0.069619554808007397261882,0.013094980813686015255759,-0.0181807670511576757732541,0.226291028395739973744227,0.973801770026691215775827,0.0786033264946511128767881,0.00827657951503441013940687,9.84258186823903180595607,0.0647897173341192150752832,-0.0832314532300288123511933,-0.00277107705778006701766158,4.59962598940695155391722,-0.982070855509277529371559,1.69953118278979142807827,1121.30756202245947861229,1126.40947532027576016844,1151.44215977748604018416,1156.14073792666340523283,-141.418780428939896864904,-676.688326482844217935053,201.128211000365695326764,67.5514199161279975669459,154.00336311013521140012
34.4275000000000019895197,2.29583279660611827566186,-0.00411049691282074514814271,0.278425591395395966021198,-0.153287655576821335579041,-0.00286799863216529241083386,-0.0701174381596993412379959,0.0129690990283996276932754,-0.0182664189982365623987626,0.226257681281156280972411,0.973809650811980009876834,0.0804239801770116197188187,0.00980651874081359120616241,9.84393615115741837939822,0.0642587328054776557584304,-0.0835659573403185890194678,-0.00274906931178126598749878,4.59986449382681161779374,-0.982188178502291342475417,1.69952179478579101790103,1121.04939851156200347759,1125.1035011347842100804,1151.64288622749131718592,1156.22414048137488862267,-87.0251376289952816023288,-440.964638893811695652403,-30.5948404098495245762024,12.2201004431301232244778,154.003277237277842459662
34.4299999999999997157829,2.33932158548854873814093,0.166606876946597232125313,0.501488851929352996705802,-0.147479314803083155771546,-0.0035549492249890147881064,-0.0697471998132410259119141,0.0128549087009409441356711,-0.0183493603380404587954722,0.226225626106798000103382,0.97381709259698667757732,0.0816609541741641492551551,0.0123024977065562257649844,9.84546722939531981921846,0.0637218375659049929282673,-0.0838760095966904484221516,-0.00271433557529676813477315,4.60010218929287884037649,-0.982305493018611586286681,1.69951058883881023220397,1120.87243633431489797658,1124.20465212580870684178,1151.28918557543693168554,1156.20183842887900027563,-65.1968162024470103688145,-322.228934776032701847726,-281.048583896591537722998,-29.3874977703393476247129,154.003111127693784965231
34.4324999999999974420462,2.30082920619457809152664,0.372750310500465642515877,0.766070494615949781902486,-0.141138848632921087844494,-0.00346349448656400752191709,-0.0680571409323373899269427,0.0127444355810693715769233,-0.0184227575834203655125165,0.226191660961117702033363,0.973825074326995943074792,0.0821787652647946592621153,0.015569860315389622007487,9.84715188169499988646294,0.0631780467191673383853256,-0.0841579929600341364315241,-0.00266474067736301254566422,4.6003396321498168930475,-0.982424221802329689090527,1.69949930247300962093959,1120.72341443055006493523,1123.4923564609055119945,1150.23764330800963762158,1156.07720299252332551987,-43.4298801816344806070447,-215.676511931704851576797,-477.900577699102711903834,-60.1878880292735090051792,154.002817342020392743507
34.4350000000000022737368,2.2045212157697910981824,0.523564355113905866012658,0.949540768669035695204172,-0.136264122125519443473607,-0.00199245632655176835301702,-0.065488624081324373071844,0.0126309436799567856996029,-0.0184830589364533177942906,0.22615669582534528303519,0.973833541746151221119021,0.0819187271771750630255937,0.0194095469674777920676689,9.84895890669852747123514,0.0626258501194060235306438,-0.0844090649857551778012521,-0.00259968462193000196536197,4.60057688355283023184938,-0.982545535255817115150023,1.69948959064154658804568,1120.65528693340661448019,1123.12626956614963091852,1148.8996826869401957083,1155.90089898873247875599,-6.50874691436578256542589,-111.112390344612776971189,-606.31223868263896292774,-83.6867201628164565363477,154.00249328591235098429
34.4375,2.04802773243853852846996,0.624877209466706884377629,1.05723024388513442417548,-0.131468977015587795698082,0.000632136260122828164478848,-0.0618450582796918058026137,0.0125103446293302073694109,-0.0185260235743094220373095,0.226121620432722381099921,0.973842424203598122645076,0.0808280631955151512846314,0.0236648935522886377791352,9.8508512654528406216059,0.0620639912207926608411768,-0.0846267431759939320334851,-0.00251918279712860966601529,4.60081321298710310685465,-0.982670139783151763701596,1.6994827414040940549711,1120.6908706959782193735,1122.93679450918216389255,1147.20608211459489211848,1155.65876939170902915066,44.1838709655659727104648,-49.6011494237332968282317,-711.682331766552692897676,-104.642348488509597359553,154.002087207432509785576
34.4399999999999977262632,1.84107846442118572305446,0.674286012580160853957523,1.08483155335062231294785,-0.126705763155355616289555,0.00338115199069529076894569,-0.0578406740836330743316118,0.0123831309862308946989629,-0.0185514856394714822140912,0.226086142662614342224714,0.973851788534993434431897,0.0789588604516965192336997,0.0282400485959055369544757,9.85278552323085854425244,0.0614915822706800785368841,-0.0848090099388008195058219,-0.00242404334104890208448357,4.60104752306723874255567,-0.982797655301884232059706,1.69947891853274835050058,1120.87620628823424340226,1122.87826381903118999617,1145.34127102811066833965,1155.37768724629040661966,129.393457975290601780216,8.28068109012323638751241,-752.984307377552340767579,-115.095442321612850378187,154.001613908413304443457
34.4425000000000025579538,1.57112576091931011035285,0.666299824783688876550514,1.01522923452139068878353,-0.122076546691200077399131,0.00548858435355956304768643,-0.0543693207827042751523194,0.0122537164370757744452645,-0.0185634149839030426765163,0.226051360037589216256393,0.973861248508731347506284,0.0764653797031599885558606,0.0330900635019756167443106,9.85471324195028941517194,0.0609074988764850555611474,-0.0849548482914073144200984,-0.00231550144894797577457823,4.60127930247150551679169,-0.982926383897074429363272,1.69947779481635663501038,1121.33783798585500335321,1122.97819791463280125754,1143.44116057770520455961,1155.08329218010067052091,288.439438636203476562514,80.1100544706104642500577,-800.798359639747559413081,-122.631220165550089973294,154.001061283948473601413
34.4450000000000002842171,1.17850191188829955812878,0.612878720728475157031312,0.841513443329247601276677,-0.117290116855019124764148,0.00700293369232369688343054,-0.0514319167874257854311537,0.0121220173820385922897058,-0.0185626127761287090800479,0.226017086798931482460873,0.973870831832527095173191,0.0734251942656961448241404,0.0380944525018251517467505,9.85658642602152923473113,0.0603106973378228980453564,-0.0850639302166492639045714,-0.00219481229428664884745226,4.60150936185143955015064,-0.983055607646382445530264,1.69947900859042122512221,1122.31840348141599861265,1123.27881409138444723794,1141.33727922990988190577,1154.76453114546234246518,438.015227600124489981681,137.177001009410730603122,-714.793957133192407127353,-105.757214994997184476233,154.000309638410556090093
34.4474999999999980104803,0.806149216671284030155675,0.54975514171400063911932,0.646036645928207975408952,-0.114575338233920312469571,0.0079822739397398673188988,-0.0499727463634150950722024,0.0119842661492007129114823,-0.0185510346108284165933533,0.225981195683419899822297,0.973881042397295559887027,0.0699246127112819887416961,0.0430562169221497259563591,9.8583573024002522089404,0.0597002096407144022816027,-0.0851364851849181480947237,-0.002063503569954145897003,4.60173936502631963918475,-0.983184444635587406757793,1.69948070145696084054521,1123.52791412385363400972,1123.66408291967923105403,1139.86719079204249283066,1154.55450610512616549386,558.400293645705346534669,175.664795653484532067523,-505.218039527804478439066,-71.9300943353660358070556,153.999612400650875088104
34.4500000000000028421709,0.409729911167224958301603,0.482643104549582868667557,0.425779550192248557038965,-0.113321683807966533397149,0.00925884134106808032171898,-0.0492630855949264812032595,0.0118379773568033919151077,-0.0185323921816206819979111,0.225942014199043639255393,0.973892231639347460969702,0.0660913444206675665393291,0.0477974911911293043331739,9.85997784157435575025374,0.0590748487659018342577077,-0.0851735214208325791540588,-0.00192260797402911192896524,4.60197034510138180962713,-0.98331236849117942266929,1.69948158520495051782007,1125.11040494964595382044,1124.15713806965231924551,1138.81118903226956717845,1154.40488067378532832663,752.033780737317101738881,236.533271616387480662524,-354.833741897937557041587,-60.3286485535737142527068,153.99884502604732006148
34.4525000000000005684342,-0.0658047364030954762270653,0.411278446197841818232632,0.155551791567133473881412,-0.113073769537411147889649,0.0106335142428260892577541,-0.0489346845594726340133995,0.0116841178234691322329608,-0.0185104788522428773123174,0.22589721389777875359961,0.973904861454331416403818,0.0620706808230000600667964,0.0522112574396011996924472,9.86140044000523197098573,0.058433732533957297161642,-0.0851766092613350928042237,-0.00177217776510742728093839,4.60220169819340263472895,-0.983440181758375886467149,1.69948022488428041043562,1127.28808302754214309971,1124.84674927776177355554,1138.09302208255189725605,1154.25286286235814259271,809.740064637808018233045,271.356087858540718116274,-172.732389841642287819923,-61.1581867066990128023463,153.997846557627411812064
34.4549999999999982946974,-0.444100966186397549950726,0.370471167599539297210498,-0.064999878539977282154716,-0.11370560291600538549428,0.0109726094439376257311247,-0.0489280886974779727349727,0.0115313574992933608881485,-0.0184889884309856616928514,0.225847079183779830824363,0.973918693014609759828204,0.0580398718827347531723504,0.0563467212358440550090677,9.8625775216500670694586,0.0577760604209569816891445,-0.0851482307255669451651059,-0.00161093846822859317752252,4.60243222776906879545322,-0.983567901852835380083206,1.69947595796765038578258,1129.15910527283131159493,1125.51391850894378876546,1137.94752708306214117329,1154.09908974025211136905,710.174856503863793477649,299.298587715776761797315,20.5994653675938153014613,-77.3342288344397275068332,153.996951983817353948325
34.457500000000003126388,-0.784728284545136212102534,0.357818196907913999016415,-0.27400736711491502362037,-0.115138902737717804813933,0.0105492698639113209602147,-0.0491378929382185469787458,0.0113832763609539571597606,-0.0184725917628488535415787,0.225796112827412048806863,0.97393254922343952539876,0.0541706197660340310617855,0.060161202546032188642755,9.86346619265405699650273,0.0571010245344819450385998,-0.0850918909255773542321677,-0.00143865973017196489315561,4.60266145748579535990075,-0.983695619532811260654626,1.69946998822192263389752,1130.83895731006327878276,1126.34324221634142304538,1138.1960194093899190193,1153.86619171818574614008,604.436441342850230284967,374.947352220114282772556,144.635815637974388891962,-107.338367139609204059525,153.99599467610536862594
34.4600000000000008526513,-1.07993327616197087870376,0.363541493742143340117678,-0.4680991793033472680996,-0.117183274785546132079617,0.0103374460685853805652634,-0.0495891119033389574100035,0.0112426568629522567049905,-0.0184685867937697638374583,0.225744860268970171102154,0.973946131686185712084125,0.0506774834519595901438649,0.0635961479465646795095068,9.86402807187148766843166,0.05640935169454707603931,-0.0850110963839085520543648,-0.00125623269831400940360622,4.60288915089816175196802,-0.983823851145932404271832,1.69946376585117997493057,1132.18128747954710888735,1127.38865527004531941202,1138.67070616125238302629,1153.56239790455379079503,424.414688718183640503412,489.700579621139411301556,215.991656882320967270061,-127.148609939538033586359,153.994986639745491174835
34.4624999999999985789145,-1.30143023811555491597858,0.36772302563633629812756,-0.632874036815418206103345,-0.120090434400442369611284,0.0112899961407207805735853,-0.050509446333886036384353,0.011109071569848923133339,-0.0184824461823113322944678,0.225694192445204055985641,0.973959141560378993673908,0.0477203760468002252670416,0.0665525786677432229510032,9.86423245957491445778942,0.0557026126680801800250542,-0.0849098234316049554903927,-0.00106553534243345252030544,4.60311411692295102682237,-0.983952827994368228736732,1.69945849253229397390896,1132.96103075365226686699,1128.79174511444489326095,1139.27597769380054160138,1153.23044866848863421183,198.700106801368946207731,710.434298224572899016493,265.001758537938201243378,-122.962405607750795866195,153.993918616916658947957
34.4650000000000034106051,-1.45662641073469090180481,0.331964242643536688870398,-0.773812082408085966100941,-0.125066578022307361983678,0.013567089590822010297666,-0.0524285099762749201568468,0.0109860093065542070711604,-0.0185154083464356238042381,0.225643603784395546663077,0.973971635711816774438887,0.0453883254861846968664096,0.0690396698941007636030065,9.86405586905766895711167,0.0549834644709389849803749,-0.0847922748886920235600329,-0.000868122684827097841966936,4.60333474320321300865544,-0.984082130158126400232277,1.69945494572699229429702,1133.17478801355446194066,1130.9408267611700011912,1139.99571495394275189028,1152.94758587651472225843,-30.4775275338969144911516,854.687433838825427301344,248.522413897226414292163,-58.2263107272112847567769,153.992568711736225850473
34.4675000000000011368684,-1.48131427865426879009192,0.247908715402157059370936,-0.823510397561698304080835,-0.130388926567936241918133,0.0156896579906122962677628,-0.0548244461815184866426698,0.0108746591283769133279291,-0.0185685751767680311263842,0.225588190800117799339475,0.973984717384611453638854,0.0437489247049405866052396,0.0710372354355308932571944,9.86348439036730617601734,0.0542559021523440695999874,-0.0846624214680078424066778,-0.000666606818042235005697393,4.60355070380405440033655,-0.984211779112751594666975,1.69945270425661343338675,1132.80864311598270433024,1133.06518228364120659535,1140.51858976328730932437,1152.93931711485242885828,-221.368312575460890911927,880.205261929022753975005,188.353835868964182509444,69.7217878214084691990138,153.99138758624044953649
34.4699999999999988631316,-1.40460022305754117510901,0.104425243313458732119514,-0.781827616392705149195308,-0.13542808055688107526926,0.0172602166987879147852514,-0.057857570994668712505149,0.0107682858618812112017071,-0.0186338889060405007991328,0.225526244419944038588355,0.973999006418954094144169,0.042650218174026185979919,0.0724291235309074132864282,9.86251836015772553878378,0.0535236127770378211643276,-0.0845246580428179322685978,-0.000463957914973490937945999,4.60376253285073566701158,-0.98434162443535677677886,1.69945264078529656437411,1132.06794645067816418305,1135.34185307081111204752,1140.93748413328671631461,1153.29619481562144756026,-347.250650353230128075666,965.194829032595521312032,167.867089170572910461487,251.535099733072001981782,153.990149733013026889239
