t,ang acc x,ang acc y,ang acc z,ang vel x,ang vel y,ang vel z,quat x,quat y,quat z,quat w,acc x,acc y,acc z,vel x,vel y,vel z,pos x,pos y,pos z,mot 1,mot 2,mot 3,mot 4,dmot 1,dmot 2,dmot 3,dmot 4,vbat
0.00500000000000000010408341,2.26898812433172381020086,1.34657434004654730230754,-0.957278295477759444409571,-0.370647984512026407166729,0.238643747218478918803442,-0.000854855133400966231242701,-0.0139692809046887446433605,-0.0065099647474895555240848,-0.996763133417738922403828,-0.0789022377184093320900971,0.035537680845551700148377,0.0407309796304322208060356,11.2025375688845301169749,-0.157060027739667540380708,-0.150909369897537226634654,0.839430160859496732328466,3.6567335845459987275774,4.94399864955413370637416,0.242152072349705149711951,1248.76073858472796018759,1194.30429055875856647617,1240.40096489765141996031,1209.31405396370428206865,-390.982293933757375725691,136.58637721273410647882,59.7475817710801564430767,149.5563265980308926828,154.182609302217713320715
0.00749999999999999972244424,2.49059238735141175169474,1.29647754311303220475793,-0.757127991499052299673167,-0.365116889845925662871906,0.241048721185325859339699,-0.00434476709259113552663578,-0.0136100395850102563743977,-0.00611530453691690005502135,-0.996763779985832543140134,-0.0789846550079375681052696,0.0255661071208628590256673,0.0302870669479880644248126,11.2199777207497781716938,-0.158239242218780273852019,-0.151698378714075515771853,0.842571170895541343703883,3.65724680662392920282855,4.94433384746094439776698,0.244246091586839436660128,1247.78328284989356689039,1194.64575650179040167131,1240.55033385207912033366,1209.6879447801993592293,-457.522732502775397733785,82.0818026315009774407372,-176.698952083916083211079,98.431484306684069451876,154.184232020201619661748
0.0100000000000000002081668,2.62398434765733190587866,1.32050123981583356069791,-0.461311845852463486838957,-0.359365015618391736573756,0.244121078958099924083314,-0.00669544873616275022787381,-0.0132583749368888163810976,-0.00572681844940801411392162,-0.99676566345426975690458,-0.0790480787830264569615579,0.0158048546602698181118285,0.0200292609981100738769655,11.2373227534832444973745,-0.159423628139281459148435,-0.152477099236313695662659,0.845736848543723107596293,3.65775976295650684377847,4.94466987922168765834385,0.246341520542056463538572,1246.47312492221408319892,1194.71469957191607136338,1239.51747013723183954426,1209.80621138523770241591,-594.9763387900474072012,-17.9975267230929567574549,-626.571374891864138589881,0.891022915720895758440179,154.185612324915496174071
0.0125000000000000006938894,2.68816076545950854992384,1.38238887128030474293894,-0.11182341101148807194221,-0.353677400844947975588894,0.247819222073131895101028,-0.00766119913597888835266048,-0.0129072736919415981260428,-0.00534217768346772516052656,-0.99676865152035964978694,-0.0790950511924704974253686,0.00614951740386388001624596,0.00993230135618729248481173,11.2545068121462890076145,-0.160627527290309296548187,-0.15325248894814452738089,0.848934580262734495015309,3.65827207247098273867891,4.94500685800356887256157,0.248440534104945459636937,1244.80840115594332928595,1194.55576886817493686976,1237.41747697761979907227,1209.6923998947779637092,-747.966493042895422149741,-111.721848603701815250133,-1086.38974681907734520792,-100.711864097775119830658,154.186794345596524635766
0.0149999999999999994448885,2.66599241713744028459132,1.46489753546463274958001,0.262624689411407374883822,-0.347740230540717898399805,0.251897458400114293564087,-0.00708076009156133074490258,-0.012553699549766641693771,-0.00496269882070956083741642,-0.996772466053544303754563,-0.0791291038332641305519388,-0.00340964502759617815730309,6.92086579050926742340266e-05,11.2714374765056497551541,-0.161859009911722417918156,-0.154025782150951029425556,0.85217397950269724304917,3.65878355719249848121422,4.94534413639177383714696,0.250545215754266026308983,1242.73329245699960665661,1194.15609032889756235818,1234.08552140313645395509,1209.30265206474882688781,-976.870087503629974889918,-214.362449253667335824503,-1699.05329575658447538444,-223.635444063847842244286,154.187740779420636272334
0.0175000000000000016653345,2.52548879052964458935548,1.56721648068727126279498,0.691489627036592002795601,-0.339948647948023929821204,0.256514525890112254913333,-0.00522237912499623219836353,-0.0121965438571069503120858,-0.00459371569972049590552254,-0.996776764820661353994069,-0.0791540403121155644594609,-0.0128347387840263282843267,-0.00938331700160892345774499,11.287995443734597955654,-0.163123123282647608522922,-0.154791797459835012151785,0.855465707775240558063956,3.65929425722884049676509,4.94568074862021322957162,0.252656064621135656445006,1239.92405071842517827463,1193.48395662190660004853,1228.92221049883687555848,1208.57422267445872421376,-1046.66544249566845792287,-262.369637343499505277578,-2029.46805259889470107737,-294.170729639790749843087,154.188609466064491471116
0.0200000000000000004163336,2.30215689088501962444866,1.64678822804976188187709,1.00123169146283763630834,-0.333257703433822827232547,0.260098677169457559443799,-0.00291973668003161221720654,-0.0118323253048369294443409,-0.0042364894006569880219315,-0.996781663961379016392073,-0.0791685545180184635505327,-0.0221240796582249377166818,-0.0183325512725712666539657,11.3040360575475471449636,-0.164429456457396372393021,-0.15555122842264001992163,0.858817258624108847975265,3.65980481526385048596239,4.94601544509574075902947,0.254773039530693856669075,1237.49996524452126323013,1192.84424214218006454757,1223.93818114014197817596,1207.83179841654987285438,-937.64791333069342726958,-252.689505053331345152401,-2054.70408946184852538863,-299.176968129177282662567,154.189115453897215957113
0.0224999999999999991673327,1.96507567202929278593615,1.71052960134595033458993,1.23114197031399030812793,-0.327150083954142467668191,0.263864765389499433823062,3.82094915917987752902729e-05,-0.0114618945458242957324835,-0.00388918027914462874697343,-0.996787189940268270049728,-0.0791720173234969626374635,-0.0311650408450779847768786,-0.0267399584877245979908089,11.3193923305049573002634,-0.165778646619868796907582,-0.156309916062322501462134,0.862235127650220700701311,3.66031619056143053825281,4.94634729300489972558807,0.256896548552406234211531,1235.23581115177171341202,1192.2205090966399438912,1218.64869005152763747901,1207.0783378338128386531,-911.02998648257175773324,-251.263691391068221037131,-2305.55266366068235583953,-304.410234342640194427076,154.189401619475688676175
0.0250000000000000013877788,1.44553263535192977329302,1.75261416006691961300135,1.38580250484231148888625,-0.321169256248671930453753,0.269097678978456156251298,0.00436837513464347938774157,-0.0110836105277073680708266,-0.00354785807780081275525363,-0.99679350631845731189884,-0.0791625927860175604422466,-0.0398919909759710283880807,-0.0346120113731028938852674,11.3338774476707282445886,-0.167174534393335100235234,-0.157077087636301904183256,0.865722315306138079371578,3.66082963765447422233024,4.9466761171036033317705,0.259028220312196522101544,1232.94481531210840330459,1191.58792368522472315817,1212.41041782183856412303,1206.30974724483667159802,-748.351822529457308519341,-202.351841828067307460515,-2209.32211659505765055656,-245.311986146089054727781,154.189499368623103237042
0.0275000000000000001387779,0.94245882091854904505368,1.7472933719924794715439,1.39769697214647403704646,-0.317638067712875449277732,0.274003808084592404004098,0.00859826989194049234876971,-0.0106973349713203255695326,-0.00320698918306696473257134,-0.996800485386703183365853,-0.0791420112275538212287529,-0.0481998761100085187925046,-0.0419868536985082696499916,11.3472902230731769179783,-0.16861581916083223653402,-0.157865258586926765493885,0.869279590612269004168411,3.66134638421836910993079,4.94700169410853085594226,0.261169149351386520319096,1231.49405203912442630099,1191.20874988749960721179,1207.60207946855234695249,1205.85177790308239309525,-482.506765011612742455327,-114.663418598229384315346,-1784.4767025548217134201,-144.641766402537626845515,154.189383033311173676339
0.029999999999999998889777,0.41004294079260578120838,1.69419807545987577412916,1.28053268997056712841243,-0.315917440427015472348415,0.278910426477768202957463,0.0129294577207396503559789,-0.0103007821866684008693671,-0.00285983021354821844231542,-0.996807752600909369178339,-0.079115500558604043290778,-0.0560304499091833635437965,-0.0489351846179692170912823,11.3594201088313777603389,-0.170102542163118597429161,-0.158689647714903542263798,0.872904190702777360577613,3.66186656289500200855969,4.9473243052040887235421,0.26331976881358004627387,1230.53228148705034072918,1191.01460659223357652081,1203.4880343090644601034,1205.58653841282398389012,-333.064584815792784411315,-43.7000135073048951994679,-1602.09080913664342915581,-90.723516813886803333844,154.189070501684170722001
0.032500000000000001110223,-0.204157993675867122096435,1.58458223382281238045266,1.00324039207493020953166,-0.316050851227154483424897,0.284021868457324910828277,0.0172077011450740627318545,-0.00989220598290979635791587,-0.00250216888063404608102958,-0.996815035313283193119105,-0.0790868972272024961522874,-0.0633218338549016018790283,-0.0554718652268539197391917,11.3700539916070066936982,-0.171633758432918781533516,-0.159559154325849605893239,0.876591866301645872283643,3.6623894282347682072043,4.9476454194145951248629,0.265480492701689330115045,1229.82872911504546209471,1190.99024981996308270027,1199.59162542286912866984,1205.39816031901295900752,-211.319995353869472864972,19.3996676859114636215509,-1233.95811898326314803853,-67.2803310247217609685322,154.188480273152578092777
0.0350000000000000033306691,-0.653976437557806433709118,1.46997713324288148406538,0.681087952925836126460979,-0.317690171959001899093522,0.28729221580439312511146,0.0196364944885476684632852,-0.00947384443469225651091037,-0.00213521887329240619632365,-0.996822156862285035927584,-0.079058157813912885436558,-0.0699388426162043802536417,-0.0614870434563496437441188,11.3789840737235650180992,-0.173202197162407367514447,-0.160470188968886928737589,0.880339085959459199948185,3.66291518420719919291173,4.9479670248264122633941,0.267652029484052367269697,1229.4756815102809923701,1191.11160493066313392774,1197.31824371414813867887,1205.25013675770037480106,-130.615127418150279936526,63.1986198649429127272015,-697.52201745286618006503,-78.2764282654625702662088,154.187818120493261631054
0.0374999999999999986122212,-0.998556331455597856461281,1.34897940644290237344194,0.301586818159704450614811,-0.320416923035449774381789,0.290003864879732398129875,0.0208593192106804152519128,-0.00904865704322893073252576,-0.00175960013974269186345922,-0.996828966338691890847201,-0.0790309072343795410153788,-0.0757390170412724078596867,-0.0668926199123656556322359,11.3860144199327724123805,-0.174798632930427771947635,-0.161417943280780490367121,0.884140260977256842167549,3.66344384447567827933767,4.9482901767449822827416,0.2698346306698271024338,1229.17565347795471097925,1191.3062429192877971218,1196.10401533560479947482,1205.00677817768564636935,-134.944011893730987594608,73.9349623476755795081772,-314.478059078010289795202,-121.67010311541167766336,154.186990184606145248836
0.0400000000000000008326673,-1.23385605827617350627179,1.22978542200163398767643,-0.0945898495309357434379649,-0.324107350157129270318279,0.29283961679568776270699,0.0211364300073667576995717,-0.0086194497834766424515518,-0.00137490068263393253392146,-0.996835288858299750636149,-0.0790072302717739344268821,-0.0805947077022411556557202,-0.0716378604987367995082792,11.3909672200819258591764,-0.176413108997232420671608,-0.16239770414717058510945,0.887987452072520611068285,3.66397461272940860865788,4.9486159235062743277922,0.272028587656487907953107,1228.80096145081233771634,1191.48127974240151161212,1195.74585341875808808254,1204.64178624212331669696,-183.793494639439643378864,42.9396777033161569647746,43.6155914380833209520461,-174.426970921058313024332,154.186032991349605936193
0.0425000000000000030531133,-1.32445215495211399137077,1.11483625833723487552618,-0.473010340847540122766191,-0.329061625016467851345681,0.295688500457391534315121,0.0202525712488901069030511,-0.0081890032361070265454206,-0.000982041005097261275255671,-0.996840920603966340607371,-0.0789896611347002119973837,-0.0843973167108211935749651,-0.075658689804892875763187,11.3936887791179550788456,-0.178034983588065826021207,-0.163400954687518418229075,0.891871303469547460629485,3.66450763246015265295341,4.94894561847616110128456,0.274234916252611315989896,1228.2566860047575119097,1191.52094130780437808426,1196.32209329279521625722,1204.13464332308035409369,-281.154541587966491533734,-37.0642724897152433527481,427.034331484219592312002,-241.512442352450420912646,154.184929892826858122135
0.0449999999999999983346655,-1.27846720464112051374173,0.983121854816846774127725,-0.859803089915095020145941,-0.334895516966693618243767,0.298620852575843476195416,0.0176884453203623448480641,-0.00775827439116591899975761,-0.000583244590111261520214148,-0.996846012473588838354033,-0.0789765162880541604639717,-0.0871009675232449070980678,-0.0788817836344151979144357,11.3940542795513746199276,-0.17965756513417655004794,-0.164414332630723164507813,0.895780627351672076308375,3.66504314597000835362905,4.94928022396270694827081,0.276453978275123246621803,1227.39518874287250582711,1191.29595837995293550193,1197.88102507617918490723,1203.43422403036106516083,-343.484009285748641104874,-133.11314402612885032795,674.713394977652910711186,-254.177016925859902585216,154.183450394224792034947
0.0475000000000000005551115,-1.14605122002448722717816,0.879569042442575166340646,-1.09686235226117001495538,-0.337954362219916371046224,0.30061841170947856127782,0.0142701733328224316527111,-0.00733009336576890928316441,-0.000181590105178302239647553,-0.996850773518297983422087,-0.0789652429076400375063116,-0.0886395789643191350792861,-0.0812314190811209424492034,11.3919732480391449058743,-0.18127027552466046245172,-0.16542167707392108066955,0.899704021098306272463674,3.66558149258644716539379,4.94961973931843779439532,0.278686316989460114434962,1226.53926595832876955683,1190.85537558767373411683,1199.69566026768347910547,1202.8637582384510551492,-360.844079334537696013285,-214.498472199602275622965,776.418462785658675784362,-198.980297648449607095245,154.182097097329773305319
0.0500000000000000027755576,-0.973317463485547151869071,0.781336114091950029170164,-1.22437334357569915788133,-0.338824528763817856003016,0.302318081911787661653079,0.0100729090888981940438152,-0.00690895830175459156607953,0.00021969917695322362452548,-0.996855301151737815956722,-0.0789545327547144654145583,-0.0889316587615717885073607,-0.0826477698429807505764444,11.3873927607061240507846,-0.182858073353567462948632,-0.16640677702574530050228,0.903630015125057028946287,3.6661245604799574948629,4.94996283445327378558432,0.280932416611304025533258,1225.59096834619981564174,1190.22346601895492312906,1201.76311739010748169676,1202.4393225421188162727,-434.292285956644491307088,-282.605657640351751069829,903.315625004461708158487,-120.910732131187671711814,154.180630138935669037892
0.0524999999999999980571097,-0.770299498630820256295237,0.663132644055836939500637,-1.25264072199401899077031,-0.339027115563513059548484,0.304138228734896487459594,0.00539496893107786149729188,-0.00649646000887604043588786,0.000620058608800767114763164,-0.996859678295128115443902,-0.0789434240179417018312691,-0.0879801308173597668149668,-0.0831579952721788195901809,11.380297960586716499165,-0.184409684421757757988303,-0.167359393370126424693822,0.907544911623085481799933,3.66667429192765803591669,4.95030839789383669824474,0.283191929951534637766031,1224.36780452854554823716,1189.44234729947197592992,1204.21223839270578537253,1202.25920457779511707486,-467.025760807882988956408,-255.402471500428987383202,852.32926051749063844909,9.26429417900181384482039,154.178751531253595885573
0.0550000000000000002775558,-0.616736643406364026809285,0.556363668174646441855202,-1.19003937424273709133615,-0.339557478020834746512691,0.30553575134631572041144,0.00238930751787580931272403,-0.00609153365751956103746334,0.00102139869670946027355174,-0.996863893594370442663433,-0.078932160237386306267382,-0.0858667961181137778803318,-0.0828703965657935082145258,11.3707128868017193212836,-0.18591740641108961407113,-0.168275864784851791888798,0.911433354610006074558726,3.66723196548412877504575,4.95065555081550012772595,0.285465377273216192044458,1223.25583954216040183383,1188.94645366145277876058,1206.02476369269493261527,1202.48564401301382531528,-475.238633101298148631031,-134.032440454939091978304,643.688102944224169732479,183.079705974705404969427,154.177097030007558942089
0.0575000000000000024980018,-0.468093957472776489581179,0.429274166744615270907559,-1.06758378467588466165239,-0.340777806697288299098147,0.306955191629693757704445,0.000314846777800711018734103,-0.00569166460103426221500689,0.00142455363212702244488095,-0.996867937879308163573455,-0.0789207011405523295444198,-0.0827301987803760324746705,-0.0818884228140624448322171,11.3587005288626645693739,-0.187376692585512899524858,-0.169152424711973642379448,0.915280354027235842906407,3.66779721786321122323216,4.95100318551624951624035,0.287752639703405865834185,1221.99161136303905550449,1188.77218509719727990159,1207.43067890742690906336,1203.17460310766864495235,-603.288621107413177924172,6.12438778698561048230431,507.447151096266907188692,404.085913212020614082576,154.175361114286005204121
0.059999999999999997779554,-0.269728339768418978739106,0.241764195659245118008585,-0.880213040338937213746817,-0.34296905284293738302992,0.308567451678630033651274,-0.00153342512152960380733546,-0.00529386153855001921619827,0.00182968568790502022179678,-0.996871580924166944548404,-0.0789112142735929195103139,-0.0787405387652949234622568,-0.080316056230173682450868,11.3443615602681830978327,-0.18878432115787444067756,-0.169987011853070746347782,0.919072048806469532600261,3.66836858291910061780072,4.95134944171909019416944,0.290051988425707119034769,1220.23939643662333764951,1188.97707560038770679967,1208.56199944817626601434,1204.50607357907392724883,-682.927308303033328229503,126.93525504450923335753,324.912373925917734140967,548.138199117466001553112,154.173195677330426178742
0.0625,-0.0752578965812078365393845,0.0535947804183161749524977,-0.701482334503022997296284,-0.344820054838402612062964,0.309582032479654600809482,-0.00288848363829358840623729,-0.00489600916645789498854446,0.00223891792441008059127983,-0.996874555383442828571106,-0.0789054476031316176509733,-0.0740613448904315491150285,-0.0783101324174999557925503,11.3278320197296853422131,-0.190137149288771734045866,-0.170782943221958583013276,0.922795841641461223048282,3.66894393782217420607594,4.95169241473929577779245,0.292362325242353338072832,1218.57697482152389056864,1189.40686137241982578416,1209.05524077705649688141,1205.91529410325597382325,-694.584862254850463614275,183.040688418941329018708,122.669128494862775369256,574.839489785562818724429,154.171330484141662964248
0.065000000000000002220446,0.144628616186065206417055,-0.161041381515511394795226,-0.50124262956521237200036,-0.345412472820952998198152,0.310043290195053833357974,-0.00427612571264705202539469,-0.00449841252613270275312329,0.00265295520372154725388669,-0.996876568840758148226655,-0.0789042303496930164108392,-0.0688169635808271590304841,-0.0759971561366706710449748,11.3092801030181302479605,-0.191430389805587269913545,-0.171542087117650315919448,0.926442304065897670461993,3.6695200620675931801884,4.95203085897791339675678,0.29468283027125152795378,1216.76647212534908248927,1189.89227904248241429741,1209.17534509065058045962,1207.38027102800174361619,-729.02633407088546846353,163.913356723651162383248,6.95157886862033880248646,547.861167323434983700281,154.169411056257303016537
0.0675000000000000044408921,0.368236721920878029568058,-0.384786799624037889611117,-0.28054439354576310439171,-0.344564979039794050397205,0.309944175995572335224892,-0.0055891432915423809243971,-0.00409951034119932552352017,0.00307179109719772332545706,-0.996877432400357088582155,-0.0789057098167605525107504,-0.0631837839141823481847737,-0.0734929119364287342097697,11.2889005069702523798014,-0.192666154732412303607347,-0.172265528877631080018062,0.93000331948973591345009,3.67009416882776839941016,4.95236494632151469375003,0.297012532769970361012923,1214.93184315116945981572,1190.22642815603808230662,1209.08999867139959860651,1208.65459993987315101549,-707.257763465576545058866,53.8000538750110948171823,-59.8976623774432894720121,411.706634834945020884334,154.167452613897410174104
0.0700000000000000066613381,0.572025799575612281522297,-0.595357936628525652444921,-0.0344057101775325779868808,-0.342484906566125346660812,0.30905298149398785501063,-0.00648226461971846204535019,-0.00369974704458026154921257,0.00349374212440618043748475,-0.996877039115992014117751,-0.0789073746903510148120731,-0.0573000344520658427827087,-0.0708715820327038836801137,11.2669105416910451111789,-0.193845565590443330572512,-0.172951341575359240909648,0.933473925397947823512368,3.67066550523510493064805,4.95269654641938128492029,0.299350196056731299165676,1213.23018330802119635337,1190.16127931185747002019,1208.87585677876336376357,1209.43880420217647042591,-674.168204322633187075553,-157.219185281110469531995,-107.381288900069392866499,192.943107997917110196795,154.165453664285251988986
0.0724999999999999950039964,0.774876437029929254762806,-0.793880242771058175499377,0.282446712453097936723623,-0.339329437928255650547271,0.306956542419234756913227,-0.00659502412138937132296546,-0.00329976752621511304139346,0.00391503499221700773658128,-0.996875836565655149001941,-0.0789072640332305619281783,-0.0513030947594240310793978,-0.0681575496914203077247763,11.2435443071335026132829,-0.194971247519751728072279,-0.173593970948876519244664,0.936851555800620072744778,3.67123379117859194309403,4.95302751626026349640597,0.301695296550640035260216,1211.56100212955630013312,1189.44033222963253138005,1208.55309222689925263694,1209.61931547986273471906,-523.024389491412080133159,-378.531635994068722084194,-132.329262805751824316758,-59.9285735892864295237814,154.163015698587344104453
0.0749999999999999972244424,0.909201350322551005156413,-0.884207431282183153875565,0.55205275885740257013623,-0.336537953446500281984299,0.3044040401435275100539,-0.00575422979399319283605463,-0.00290243369964440301247977,0.00432704156083043786629183,-0.99687425996142631223762,-0.0789046326258438512901705,-0.0452853456201336573849758,-0.0652581500532477681852939,11.2190476744800449182549,-0.196043114348238206590125,-0.174178735972161241596368,0.940137516958125418753411,3.67179962850346930380852,4.95335877102882005118545,0.304048369286312070158829,1210.61506136056414106861,1188.26862113188713010459,1208.21421046473460592097,1209.13916133423003884673,-267.073692386020184130757,-572.574528785707570932573,-171.295118249463342863237,-289.033276046074831810984,154.16095631902473428454
0.0774999999999999994448885,1.02272436105343023093894,-0.866168476958190103331958,0.808394470620307004082861,-0.334119490036133004462471,0.301377164345571380010824,-0.0042563818266698107833923,-0.00250672145362316111869005,0.0047244367132072114315311,-0.996872746501827999843215,-0.0788973495410410646799804,-0.0394127741614632015609843,-0.0621548185317414569883709,11.1936715511893325469828,-0.197068910503897881669744,-0.174696867119189441774907,0.943331662983161622904049,3.67236518964686364796535,4.95369082998369769654801,0.306410293911605069450133,1210.2256336676261980756,1186.57745958570399125165,1207.69661663565193521208,1208.17414909963235913892,-43.5401719193123071249829,-825.207804437103959571687,-305.835717814443057704921,-471.757473309980525755236,154.158873343714191150866
0.0800000000000000016653345,1.16194062999764180510454,-0.699676282748852296222708,1.07555390359761893215307,-0.331821845003273607765948,0.297704988483016907974132,-0.00178083432488071154511933,-0.00210980105466699197763747,0.00510563632644552272549232,-0.996871374764858098060927,-0.0788865756273584989299863,-0.033874552755151887684093,-0.0589077865053338756151646,11.1676673900263345728945,-0.198058368785751809371121,-0.175148166535932264809006,0.946432959500441484124167,3.67293197404573046327414,4.95402295692224470258225,0.30878076102846135908564,1210.39736050096757935535,1184.14258210970160689612,1206.68503187566238921136,1206.78037396768013422843,151.298871112476120970314,-924.261731627483754891728,-460.277265293370476229029,-502.09497350547235328122,154.156351649668010850291
0.0825000000000000038857806,1.29603267240256836423384,-0.440700741148202734809303,1.24367313536792023498379,-0.330111042643402685659026,0.29492302444589296728239,0.00115013734203303044818789,-0.00170635309956544624528096,0.00547247485610785362047936,-0.996870247616717608529768,-0.0788721578233092662779669,-0.0288957908243441252693628,-0.0556460795001797806080823,11.1412822332317578144512,-0.19902606711991205346024,-0.175538971960239154057604,0.949439259015718906020709,3.67349970302506223518435,4.95435423161794918911482,0.311159840426270484226023,1210.98212802318857939099,1181.95615092756656849815,1205.39523030918508084142,1205.66367423210499509878,284.26513636345566737873,-862.709742113792458440003,-622.907617413647471948934,-396.482624944428266644536,154.15423499081904878949
0.0850000000000000061062266,1.4516313550790418407388,-0.0787834170671134481622744,1.33033721776820756943494,-0.327991333913217275597418,0.293066397619077489977713,0.00509721036083206346933849,-0.00129408758060019571378696,0.00582924850856891569456097,-0.996869181734209020007142,-0.0788567502083755422770395,-0.0246151956591331155799196,-0.0525353259219059898210702,11.1147550856940444674592,-0.199979756944329567502905,-0.175881384976389137930752,0.952349938160450548707558,3.67406716740654015751488,4.95468330892747044202906,0.313547766469642885667213,1211.81868618278485882911,1179.82903339913264062488,1203.57049378859414900944,1204.79796084295799118991,364.163244170049097192532,-875.285302861129025586706,-917.981805365024342791003,-307.649665624557826504315,154.152105642337460267299
0.0875000000000000083266727,1.64162259996837134323755,0.42151558769061325815386,1.32246479670136807271774,-0.324253631826855126529807,0.292982630869586924138304,0.0104125842369118242619619,-0.000874695809481811211924529,0.00617842026510454292442809,-0.996867932672434120533467,-0.0788433541034430918070797,-0.0210711671680693657382477,-0.0496787428831083968661098,11.0883123533685523653958,-0.200919914086066742076042,-0.176183967964147286666687,0.955167787202657270206885,3.67463349429778007859682,4.95500981259420658631143,0.315944348201353031324601,1212.80294424403882658225,1177.57972441326091939118,1200.80532128235995514842,1204.12542590398220454517,314.822872797367949715408,-746.02380761011909271474,-1088.88505399686641794688,-194.661851168894287411604,154.149538560054253366616
0.0899999999999999966693309,1.77469350245867474313854,0.842615559022433235902838,1.22470621405236723688859,-0.319881974590344786424367,0.295079252996870433634058,0.0144914562390779776829275,-0.000453575888343020028163621,0.00652078116009064019664709,-0.996866202358452357934482,-0.0788354560881472515854185,-0.018208158544251520916113,-0.047121037457505676737668,11.0621635651530922928032,-0.201839956086940802704177,-0.176451907870012858481346,0.957898993540559406945079,3.67519838655752550948819,4.9553352149903862056135,0.318348933369847653107598,1213.39280054677169573552,1176.09891436108205198252,1198.12606851860982715152,1203.82465158711352160026,154.698679996772909817082,-486.459497625492986117024,-1115.25307532879401151149,-91.7021293496874818629294,154.147390942898738330769
0.092499999999999998889777,1.84607443169649032554958,1.20896410981562452136018,1.05379991159703378933443,-0.314600272078978560053031,0.298883915511693132316395,0.0174474883169167330199123,-3.43131840637024256501428e-05,0.00685484657590978811725346,-0.996863706965005813565028,-0.078836431356103353618181,-0.016000059441895100875719,-0.0448447423098234029814613,11.0364968431506635937467,-0.202736810265730454938549,-0.176686271459148641627124,0.960551069852507155566457,3.67576156333742432025247,4.95566063999204420298383,0.320760540928691939566164,1213.57643764402268971025,1175.14742692513345900807,1195.22905590571599532268,1203.66691525723376798851,0.330505073316089414969809,-282.840473046053148209467,-1169.35542311216408961627,-59.9523945223153944539263,154.145235790424521837849
0.095000000000000001110223,1.84730464107929570616307,1.49755762039736972646153,0.84683731040985821270084,-0.309266789906510686236629,0.303268001695588540478354,0.0193998433683262617999166,0.000381244456063460960236478,0.0071813334301298065859287,-0.996860446759807672378884,-0.0788458683395200921051327,-0.014440019277988602741658,-0.0428682937537219824197798,11.0114763295735542669718,-0.20361112870136779950947,-0.176891074981291335221911,0.963131423609497772098109,3.67632356350743894068955,4.9559855113744468724235,0.323176959259303064886382,1213.39445307213827618398,1174.68471199585178510461,1192.2792914030490010191,1203.5248896145019443793,-145.607620824148256133412,-65.7072685964976130890136,-1168.9938996767511980579,-69.3759007203424857834761,154.143074869771140811281
0.0975000000000000033306691,1.75508082690973798989376,1.67203660483700256023099,0.625541255648737193340025,-0.304370366900864275372385,0.307791715801601029056656,0.0203874242261476608384374,0.00079349772989938571927937,0.00750048248973964916397339,-0.996856619960920897760559,-0.0788609400775970303953954,-0.0135568887904792684251376,-0.0411883691858813544284246,10.9872399468423260771033,-0.204468001889889561262237,-0.177068897826668958384033,0.965647739563249452032778,3.67688516416549848742079,4.95630835377376754991019,0.325596446030305464169885,1212.84839953990194771904,1174.8188905821509706584,1189.38408640733223364805,1203.32003575363205527538,-288.316803271117976237292,185.831168006597920339118,-1242.66987661126108832832,-109.042116389991761593592,154.140907498130559361016
0.100000000000000005551115,1.53945346276409722463541,1.74121503861875481788957,0.369902979024377409622559,-0.299325692389241893032192,0.313256327714919291516082,0.0208786810021515875646081,0.0012027487405473415594398,0.0078117798602911963853912,-0.996852274285382145002643,-0.0788808636067114959944391,-0.0133659824402135446463902,-0.0397711505068972376308878,10.9638985096885051007121,-0.205310872577333047850345,-0.177221779547074687055641,0.968108581012448454750086,3.67744747538811012077531,4.95662792065752899617337,0.328017968785669411513339,1211.95286905578268488171,1175.61386783588477555895,1186.06594201999268989312,1202.97967903255198507395,-341.051054831768567510153,380.479750481071846479608,-1183.32090149137798107404,-133.543242634368539256684,154.138300094210592305899
0.102500000000000007771561,1.28068287527019286642371,1.6843632087570163946566,0.17372296462581907072753,-0.295886116483162264767515,0.317582490329259115036109,0.0209781488383687791943188,0.00160708159633115351544452,0.00811616402751881918509191,-0.996847496078386186013631,-0.078904333348884414522928,-0.0138200607569633759919014,-0.0385974548819589813319908,10.9415358676960821071589,-0.206138007195505484903109,-0.177353927831902818956777,0.970522973031785696207407,3.67801150976286228555523,4.95694433315566573838851,0.330442654127619972470598,1211.14314426574310346041,1176.7212893345563315961,1183.46748189987533805834,1202.65231954046021201066,-313.906513405709688413481,506.595903358994348764099,-997.881912092409152137407,-126.641454021592167578092,154.136122656213160553307
0.104999999999999996114219,0.952446948808834070732132,1.51729160779876748321726,-0.00600691176107116808768893,-0.292912615989998070809008,0.321673531763213171874582,0.0209648935782679110562121,0.0020026020365335175585364,0.00841410955344464028815565,-0.996842220085138119856083,-0.0789320743083682802021528,-0.0148204746464635356284489,-0.0376227717528743524355583,10.9202094191065182116063,-0.206942543471394124754426,-0.177468884064807208567061,0.972900311228069081259662,3.67857783627338408294349,4.9572583523457129928147,0.332872764154702960315291,1210.38333648875413928181,1178.14684735267974247108,1181.07653245953065379581,1202.34647176244402544398,-312.970974922655500449764,657.754136152517617119884,-991.381638104441663017496,-117.71455029957019178255,154.133941727547352229521
0.107499999999999998334665,0.497251131451815653328197,1.20509472027772579494354,-0.211875022095909304464811,-0.289684670140081756972705,0.326859744443737332275646,0.0208977821666034638270482,0.00239101589177265075672474,0.00870881355439116419669965,-0.996836720463123437951936,-0.0789601253406446712546085,-0.016376643402803120475042,-0.0368604119663577325938242,10.899950667550216465429,-0.207729297213855801373938,-0.177573917977415229874083,0.975245655964986135622041,3.67914525630550537371732,4.95757069022062601959533,0.335309722938752441390164,1209.57828939112982880033,1180.01006001531891342893,1178.5105737093531388382,1202.06374678896236218861,-280.620049750177486203029,673.175999103977460435999,-874.709201095992398222734,-87.7075943674753233381125,154.131322403243444796317
0.110000000000000000555112,0.0899023173729640578955014,0.872850993185998014212146,-0.381877778792778066474511,-0.287840412706663273390006,0.330915121590557970154833,0.0207485780095184070559444,0.00277316195490552152430608,0.00900435525851302383248953,-0.996831088265634490674927,-0.0789868008573503255220771,-0.0184707454613178695401743,-0.036332779663246481116623,10.8807683049253309803817,-0.208500436929293347931846,-0.177678337708296357755344,0.97756301957576885452994,3.67971274977321982646572,4.957881694434004948846,0.33775285360926199373921,1208.98023624000325071393,1181.51272734819963261543,1176.70298645405068782566,1201.90793379060664847202,-236.844120604791697815017,549.536101493412843410624,-626.887749120668900104647,-51.2522125151917435914584,154.129139352877416513365
0.112500000000000002775558,-0.301870146818504547781004,0.512438571530171249612806,-0.551853102675867956961042,-0.287862200823652047976253,0.333132094461517425099117,0.0203228624027820999053962,0.00314617076795650763010315,0.00930323735411423685670584,-0.996825417675044511689464,-0.0790106706721178247976312,-0.0210013992361034323996805,-0.0360150497523910734232189,10.8626512799250569685228,-0.209251075213165632638024,-0.17778744772241561467041,0.979857420756723440646851,3.68027995900576065935184,4.95819193686169867874014,0.34020232646956038990993,1208.3940687881058693165,1182.75774052278597991972,1175.3761349637497914955,1201.80748572638640325749,-276.311094903530602095998,451.805566624534151287662,-432.716198187426527965727,-39.7589335623251471929507,154.12695815342755167876
0.115000000000000004996004,-0.688068931331692557051838,0.123429962798214026831189,-0.744496519511315790751382,-0.29024894735925615973926,0.332920574509478706115573,0.0191673764402639675019646,0.00350861113914922558357223,0.00960843319026716269348753,-0.996819555375916599437858,-0.0790333086477474355824313,-0.0238938917538447787025646,-0.0358913524445392539963251,10.845571239918529116153,-0.209978027348227985759976,-0.177908494728552996066995,0.982131933996059358626951,3.68084706381151827159215,4.95850104939744085186248,0.342658534712292739410344,1207.59868076548559656658,1183.77175518132230536139,1174.53940546311355319631,1201.70913912279502255842,-322.763577411023732111062,278.58934164723882531689,-152.055553236868803423931,-32.1234668431770558072458,154.124345534927897460875
0.11750000000000000721645,-0.895562761905659754368969,-0.11143814983914453187186,-0.878225194898223926465164,-0.293506642627730574002243,0.330902884291706778085995,0.0174083796965808119960872,0.00386429093404877781886553,0.00992301452067412964597182,-0.996813308616591009503338,-0.0790565435945431438380382,-0.0271828975916680037894224,-0.0359553789616852970123517,10.8294851038329831283136,-0.210688276427494353137959,-0.178049448359813539122243,0.984386125857109051118243,3.68141380084376157455495,4.95880813647419671497119,0.345121390941587391498757,1206.78025090105074923486,1184.15068723102217518317,1174.61585719756544676784,1201.64686839217051783635,-373.41895952236041011929,57.2637240018140047936868,214.269412321118977615697,-6.33468440737489135727856,154.12217411283788237597
0.119999999999999995559108,-0.949686236114123172313839,-0.215438563200391092200547,-0.9572152744542343771883,-0.29690091065888912780224,0.328012967791195653166625,0.0146322105865656689610566,0.00422176404093154225560802,0.0102493317192198143267268,-0.99680677931817229797673,-0.0790783363276652689899393,-0.0310021292926111607934914,-0.0361939985655895385407987,10.8143382502908949049925,-0.21139960163546586691119,-0.178215568984987304812506,0.986616575108770987867501,3.68197924427027523108791,4.95911228258709169125495,0.347591140639687101732136,1205.73158596787379792659,1184.05807380133137485245,1175.61075252471914609487,1201.67746570075814815937,-460.892106782467578796059,-102.634100166506158302582,550.199485541908074992534,48.7729182236308602682584,154.120010241371147685641
0.122499999999999997779554,-0.866768824826483541556854,-0.210423262999457127975234,-0.9727463190224828748498,-0.299910600028097773517288,0.325166120995053320452683,0.0111341931295353430836359,0.00458481394247698802874025,0.0105877016786788801655517,-0.996800344581322272929924,-0.0790936321795579905247209,-0.0353819413040511038248681,-0.0365456368350470239825256,10.800069258422350770843,-0.212121710750634212550025,-0.178405533303994778826507,0.988821644908780328364628,3.68254310549219754378214,4.95941326534651150126365,0.350068218095427374780826,1204.47579036713841560413,1183.63751673018964538642,1177.36685462527498202689,1201.89073298328867167584,-546.227168282893671857892,-226.808550355144490140447,856.170848906548712875519,159.449500191976625274037,154.117853416669589705634
0.125,-0.621793028243152190448484,-0.109600021899180596895995,-0.90327591967679787821055,-0.302242401524242532140363,0.323476395278483597195418,0.00752336906322338249547554,0.00495693495574129217723369,0.0109355711862654560173613,-0.996794454109249383755298,-0.0790968201181519031672806,-0.0403491749045496728154347,-0.0368931964682698357305135,10.786612005870500397009,-0.212864162756129793319104,-0.178611173703121017819484,0.990999916343829556630851,3.68310652742812383309001,4.95971156545367364287813,0.352553865976041380658756,1203.00045012645932729356,1182.92403104955565140699,1179.89160676925189363828,1202.47471320171803199628,-682.186655983559262494964,-357.780939047597371427401,1211.54101807519396061252,370.125977519728280640265,154.115705576990990266495
0.127500000000000002220446,-0.157679767953306515515521,0.0422132828620057631852092,-0.735820900128302257670043,-0.304151067379650974498162,0.323867558829521062779833,0.00437776171658917859913496,0.00534364974563433358517583,0.0112886259441578665208006,-0.996789246453563593242109,-0.0790863314551449592126886,-0.0459770247109252128137058,-0.0370952929687596161256735,10.7738977563169253670594,-0.213639156100557670026063,-0.178821668973805109059683,0.993149056684693554153398,3.68367053877219463586812,4.96000814115048349606241,0.355048468618954837783264,1201.06485708722061644949,1181.84861203495165682398,1183.4245597156509575143,1203.74136287088731478434,-721.255412688241676733014,-418.078617767423168061214,1303.13303557563699541788,559.222031942271769366926,154.113138609175024384967
0.130000000000000004440892,0.349988444832017908669997,0.129888119270188284737344,-0.550789149647408438070784,-0.304904136692718708001593,0.325904142394937812454714,0.00317693752273037277947254,0.00574853072440378778246162,0.0116395339505259917678437,-0.996784564071412026997621,-0.0790648700843933072146541,-0.0523022149712576434055222,-0.0369550905959617481677526,10.7618578922043734991121,-0.214453833714345676320079,-0.179020424010057049857281,0.995268404658394278960998,3.68423552737477466578753,4.96030423533175746086954,0.357550278903039642219852,1199.39417306301811549929,1180.83363796071853357716,1186.40727194713008429972,1205.27082336142939311685,-663.702263449703764308651,-420.209115224679010225373,1104.68922025120173202595,680.270333115640255527978,154.111007799767946835345
0.132500000000000006661338,0.945558765897284603241246,0.119371132250375378003326,-0.350370464880302823207359,-0.304261527510501006421606,0.328510192370474074508024,0.00300315356472403722359887,0.00617273853227556096312512,0.0119849496184887497479687,-0.996780054545606808424907,-0.07903720154383928053754,-0.0593031737974972772420301,-0.0363717488114617959471531,10.7504261426649208033268,-0.215309063018068291839313,-0.179198063510701471878761,0.997357234334911968431925,3.6848009242417889552712,4.96060141079592931134812,0.360057819492694941576616,1197.74634576997209478577,1179.74756645882825978333,1188.9480058169069707219,1207.14271453646551890415,-709.475398497397009123233,-483.739716283207144442713,922.7156298380115231339,835.874163336756396347482,154.108884722836705805094
0.135000000000000008881784,1.69891511651979620900477,-0.0303736950246508152773117,-0.116135165675424228970414,-0.301031960100534401458816,0.331119825847118742778719,0.00322639282120320246283196,0.00661475141101482318195526,0.012318446114868571508727,-0.99677558350263795183821,-0.0790060384837327212004254,-0.0669053742332464534969816,-0.0351890804838232360007844,10.7395394021347865276539,-0.216201433168948270457932,-0.179336944927002472915945,0.999417285696778345815972,3.6853670877140292105878,4.96090066664817630481821,0.362571248646345878352548,1195.84679607053112704307,1178.41493937930249558121,1191.02085009632014589442,1209.45019417811317907763,-682.713963169680368991976,-482.878524098804973618826,555.716236887883042072644,797.921419738394661180791,154.106344390967080926202
0.13750000000000001110223,2.30324223860871724056665,-0.256000660440072802526146,0.0676832915204564899980255,-0.296055138113726912241219,0.332159836736672653412228,0.00352757781999481342602443,0.00707067824362243770724978,0.0126342911987783884653069,-0.996771195036449508819487,-0.0789719884470932997899695,-0.074981655544274342095612,-0.0332779307509363381223366,10.7291387634807193762754,-0.217123292120949079597736,-0.179419152148239002819707,1.00145141723878738915232,3.68593451835047813958113,4.96120236820307969338728,0.365091167009211514660194,1194.33277595412369009864,1177.3331738383342326415,1191.726587001346388206,1211.13232163515749562066,-594.495113427728369970282,-407.136418174240702683164,58.8408719990638431340813,558.871917258602024958236,154.104232369453626461109
0.140000000000000013322676,2.81552802472468099992398,-0.5420163175285150902738,0.241694831564580492333505,-0.288837760740293325589789,0.331281748880784820965317,0.00374350183628359162862909,0.00753180741111013612315572,0.0129303841789631980552233,-0.996767000412730030944886,-0.0789347149966283523347954,-0.0832950878108063424987151,-0.0305948896799171365934455,10.7191710053587296869182,-0.218057011216624491156679,-0.179433098671522295308733,1.003463839261445667006,3.68650337515881032501852,4.9615048241332786460589,0.367618091432543814267575,1192.87432050339248235105,1176.3792572884312903625,1191.31505445631546535878,1212.24455376440619147616,-627.892627985783633448591,-359.313606553768863705045,-408.560846929458080012409,307.070648824855823022517,154.10212433203395221426
0.142500000000000015543122,3.25954225191373891945545,-0.88865995794396601681342,0.44370510408774160859835,-0.278357977741865936227583,0.328088302770096928995258,0.00412816000915084899136609,0.00799212818332812463539838,0.0132078502978310498988668,-0.996763007338591910944103,-0.0788944908656471766139617,-0.0916607262456027721553298,-0.0271855370133689128175902,10.7095868134263110249549,-0.218989692201383617797816,-0.17937511785138077202717,1.00545690311834512442601,3.68707313325108643198291,4.96180660732281886282635,0.370152039891259443393778,1191.19331281419476908923,1175.53660580556538661767,1189.68378276669909610064,1212.66767487928177615686,-593.674313508793602522928,-235.156801815129455235365,-745.536549746251580472745,-11.6271754862282801212814,154.099598500109607357444
0.144999999999999990007993,3.45824043035307626681174,-1.1381575426323997657363,0.604895922187306478434721,-0.268976891016077690466091,0.324221631495874296202686,0.00499767205285154766936095,0.00845259381171579136926564,0.0134706418149882420354224,-0.99675911469297606704032,-0.0788518969533215652312208,-0.100036239789295475222097,-0.0231813894211116977572829,10.700339168184685334495,-0.219922139331982957610734,-0.179249580679044034914327,1.00742939564302358412817,3.68764365058175958012043,4.96210680523072689140918,0.372693253340353691793752,1189.90594893584852798085,1175.20347327935564862855,1187.58737170758422507788,1212.18641788697505035088,-462.007151615582529302628,-35.2829892928186197309515,-932.657745559667773704859,-354.614506490681208106253,154.097496586684513886212
0.147499999999999992228439,3.468439940086479822412,-1.31701562412949524372152,0.749604981276275950108356,-0.25980284929513952629776,0.319901554171862612108157,0.00658631328308766084145276,0.00891159779708036552114958,0.0137236699825816228087705,-0.996755156432239886044044,-0.0788085018331187853179998,-0.108321026945007739539228,-0.0187419558119710158439197,10.6913857399959280058965,-0.220850021535153873131208,-0.179064161862026949290083,1.0093817439761454402003,3.68821420056365800732578,4.96240433237431854962551,0.375240503576677320030086,1188.88327705611686724296,1175.36019085910129433614,1185.02049403890077883261,1210.89460234682837835862,-334.965956426276250113006,150.651758876119714614106,-1063.30066141090264864033,-622.737979838029218626616,154.095397877708080613957
0.149999999999999994448885,3.32903315741381788939179,-1.43304676212018011760563,0.871093078625168715234395,-0.251088214494240347107734,0.315612014517606787045167,0.00845903307796336961787986,0.00936710085980762240109865,0.0139698652218653920908942,-0.996751020128033071721063,-0.0787656280647977408149174,-0.116405564342236797492625,-0.0139931897789046730262719,10.6826878570173864346771,-0.221769122806319135543518,-0.178823711706031979185028,1.0113161201734621741366,3.68878434503488383811032,4.96269876888700078865213,0.377791914228208958181909,1188.2311191537171453092,1175.95673207373624791217,1182.27086840052970728721,1209.07272798778490141558,-136.488777099702815576165,338.737210420731287285889,-1103.70959095052876364207,-803.349669665612282187794,154.093302256854542520159
0.152499999999999996669331,3.02871001189382926810367,-1.48628836552713350371846,0.952160594168375618018274,-0.243164353605954786097243,0.311815602327886964850734,0.0104569236966687226231265,0.00981482391904697250295531,0.0142154055692709727770628,-0.996746615844757433144707,-0.078724040509048867630959,-0.124123463519782359365529,-0.00913340059581278784772707,10.6742117797531950174061,-0.222670971850230797750569,-0.178540267003723551741956,1.01323553402577815063523,3.68935324191475055854994,4.96298984869089920834995,0.380345610987616766784924,1188.20083317061835259665,1177.05387691120495219366,1179.50194608414813046693,1206.87785399850031353708,157.431102186956053401445,572.187366458546875946922,-1185.01623809161060307815,-970.437995265091558394488,154.091211279589458627015
0.154999999999999998889777,2.51626015839373851079586,-1.50633179944561468310837,0.984345079409570278272668,-0.235091748571061687211881,0.308126563713111534248412,0.0134271285782958816473753,0.0102504041231233824355007,0.0144643099492559983054729,-0.9967419450201854269622,-0.0786837752448225347112754,-0.131306120380424329319169,-0.00431905657064539372225198,10.6659276445900808028,-0.223548053189688511466215,-0.178222207495330020599056,1.01514422848135676957781,3.68992009777933693825958,4.9632773636375233650142,0.382900309067827238074244,1189.01827466465192628675,1178.81766890602898456564,1176.34578721007164858747,1204.22053801145943907613,440.807847310906765869731,689.971054675651771503908,-1109.94404832945201633265,-918.440374474720670150418,154.088709147306587965431
0.157500000000000001110223,1.9904977306742515086313,-1.50607743815939976173013,0.943300215704519273707263,-0.229847798748257642342807,0.305447942733966970596526,0.0164070208587568794333933,0.0106701401583072803119778,0.0147164037365632213022471,-0.996737150641212488189069,-0.0786437721256624672205859,-0.137801703534976394127654,0.000379547809866931373790067,10.6578093195685390526251,-0.224395605375356660404762,-0.177869794932513619611925,1.0170474121674935030768,3.69048442176289359650809,4.96356158456448071092382,0.385456611520235414847235,1190.40487240717288841552,1180.50373218458321389335,1173.95222584250086583779,1202.28565212612670620729,672.291208136174986975675,671.852121915525799522584,-889.869686627934356693004,-655.837806311455437935365,154.086631343443713149099
0.160000000000000003330669,1.39477855297244324184192,-1.49968569828761388862404,0.822501599227662083535506,-0.226063381486580616819282,0.302584342268624295613222,0.0193763277050139730295353,0.0110695113400109401702309,0.0149677450300800384680455,-0.996732143383392776847529,-0.0786066968053360931589779,-0.143445564375776712928712,0.00497264026733026942572735,10.6498357703447705802091,-0.225206720346909750052333,-0.177477582202031441971357,1.01895119492810870553967,3.69104621581969549737323,4.96384328068655644727869,0.38801633195912810236905,1192.3797307053328040638,1182.17692951560661640542,1171.89643877693197282497,1200.94134897990215904429,945.041880608595533885818,673.891057444506600404566,-806.441110555714885776979,-412.038322211901345326623,154.084562919349792764478
0.162500000000000005551115,0.632733204106648239317678,-1.48118840343534174941453,0.590736729168704899350928,-0.223099508225980042164238,0.298667324517024157515266,0.0224759496253578439084464,0.011445154625019717323231,0.0152151663002617672931782,-0.996726723764904010138821,-0.0785762626821773502161506,-0.14809461336420559618432,0.00945347288970692367637838,10.6419922794863595072457,-0.225976194462523094497186,-0.177042620732415334483534,1.02085977227335700234789,3.69160559246741648564694,4.96412223383712980506743,0.39058142430404024780799,1195.13008181021587006398,1183.87318747180574973754,1169.9200202897222879983,1200.22546051506719777535,1020.76589954399332782486,530.666471695485142845428,-628.347330242604016348196,-104.181653039222410939146,154.082093802643839808297
0.165000000000000007771561,-0.018038916624952477246735,-1.44694977951732073329083,0.341546793880101839935293,-0.222063169786010899953155,0.294924209168616169307597,0.0243958164845673695919626,0.0117999251538905003400259,0.0154592783112688786362199,-0.996720565893333576568125,-0.0785560972144605240696791,-0.15173059688959650292972,0.0137282186565274577638718,10.6342704902513496278971,-0.226710463300528602959005,-0.176570817020006265440912,1.02277188119313944270061,3.69216313626080783194539,4.96439769157860855131048,0.393152312215125532279814,1197.4835602030527752504,1184.83026187408404439338,1168.75470212571894990106,1200.42044071470604649221,897.840035581292909228068,254.257186457743728169589,-351.023568612936003319192,226.563104451042619302825,154.080048649545801708882
0.167500000000000009992007,-0.654609503516307977832867,-1.38124610015934523588044,0.0674071166031134649809786,-0.222478539991920326590602,0.290781809010245639868231,0.0251105624454597484151996,0.0121379389699690608261928,0.0156996210578011670400134,-0.996713394166517163696994,-0.078549120223626908710024,-0.154364495767137177573147,0.0177289264208124741628581,10.626671297271750304958,-0.227418314736750976079449,-0.176065910044042650550722,1.02468471303436614583404,3.69271920441521528388762,4.96466915915347684062908,0.395728693701347000732937,1199.61928198812233858916,1185.14447340409446951526,1168.16490244665760656062,1201.35827603732241186663,842.686202538742804790672,-22.4465529086955726256747,-117.922504749367263343629,539.840460902814356813906,154.078018411283778732468
0.170000000000000012212453,-1.35947117232055214586239,-1.26299535569292142866971,-0.241241404087889438345726,-0.224960552400602697975529,0.286118698426958084635174,0.0241672433157327504194001,0.0124640521112427161976033,0.0159362934046736980098213,-0.996705041057904805867906,-0.0785565148725027723175529,-0.156024712591590120069895,0.0213811367141297781202525,10.6192070466043375631671,-0.228109722272943599152839,-0.175532081911659393336222,1.02659371552763856172419,3.69327369422199991433331,4.96493674841402565789394,0.398311500152965625165535,1201.69699121574649325339,1184.71802910954056642368,1168.16508960197211308696,1203.11964301922012055002,662.806102567446373541316,-275.843972138590970644145,113.744077472756444535662,708.655522439766400566441,154.075601784412725692164
0.172500000000000014432899,-1.86085560505786951068785,-1.14013123033558971819446,-0.447982501051742476594342,-0.228988079810443584394264,0.28308204061036579268773,0.0220035418266204020609766,0.0127881533532920796392141,0.0161749884672140083197167,-0.996695418646844188970135,-0.0785763679040783480367338,-0.156841653796373270424169,0.0244912748515565548146355,10.6119022006192533780222,-0.228804110462524634694859,-0.174984205217749849703424,1.02848908816808881638849,3.69382650195711326190917,4.96520119837421702868596,0.400902297873923285642661,1202.93331250095957329904,1183.76525354340151352517,1168.73362283402138928068,1204.90155364952124728006,386.95531149455712238705,-459.685299442480356901797,324.770096989686578581313,723.556203689940275580739,154.073606146223909263426
0.175000000000000016653345,-2.2280943224900302546132,-1.00970482066878308735625,-0.578698424865216942691859,-0.234682621856165840590336,0.280996762608820671580645,0.018992893391080012399641,0.0131161676563887347884974,0.0164193591617302694918301,-0.99668455053050519776292,-0.0786062328706208512940634,-0.156874443843990796221277,0.0269234898557446922229275,10.6047966486915701267435,-0.229512184643663186278673,-0.174431811855587676207691,1.03036284015170043204535,3.69437796581237165582934,4.96546292255129451120865,0.403502274287284745657445,1203.63176777321928057063,1182.41960261232816264965,1169.78894008692054740095,1206.73742403766982533853,195.800990309454391535837,-552.835555593949607100512,477.509701356577750175347,707.019121042370557006507,154.071631666848759323329
0.177499999999999991118216,-2.45644217699691980172361,-0.884820848046692476351893,-0.648031665956363300828968,-0.24120243574487085225222,0.279407395641628586435701,0.0161599964781941607405713,0.0134503851420425240420498,0.0166749460774641145022201,-0.996672488689237745518312,-0.0786433615066553376449221,-0.156115247981281568545597,0.0285161881863275623594234,10.5979466559567985228796,-0.230235636996669962295314,-0.173887282062366615997817,1.03220792358031143720609,3.69492772027360416586816,4.96572204005550510430567,0.406110283930854076839267,1203.91231745250684070925,1181.00107576543177856365,1171.12117134080426694709,1208.4366492547330835805,25.0939965116232350794689,-515.145022282470222307893,564.265630289631076266232,613.588731929897335248825,154.069676335507324438368
0.179999999999999993338662,-2.49680270607392440496142,-0.772452294157561003551393,-0.668679392917949422248114,-0.248195936800442440439696,0.277930686933123560766745,0.0147403021542575358299176,0.0137959474966641102572362,0.0169460099422601428997837,-0.996659403343813088405057,-0.0786832011195405800485503,-0.154634353526641843412648,0.0291387524531884767320378,10.5914209376842656240569,-0.230981292136509752666029,-0.173359698050639693400754,1.03401659461910799819861,3.69547536227057449309541,4.96597849212944275620885,0.408724342306364452070966,1203.75723775577739615983,1179.84387750091582347522,1172.6102682383686897083,1209.80536769731929780392,-145.873763681401982239549,-366.222863675556823181978,651.05202712047628210712,498.788492890752877428895,154.067745777431014175818
0.182499999999999995559108,-2.3211114867599254019126,-0.648625847770834651484506,-0.679781809166207673378324,-0.256363048804919779755096,0.275771852039355058749948,0.014616094656257738737537,0.0141553488337209029679364,0.0172364512559624004361947,-0.996645551026635545532883,-0.0787206198555832764585105,-0.152466326046041267261444,0.0286810905102209828809734,10.585301920586219992515,-0.231749007833965792180209,-0.172856431886567601940996,1.0357831141065652058586,3.69602212889585546307103,4.96623252949215654439286,0.411344543097483528182323,1203.18294863409983008751,1179.16996144705399274244,1174.3764314764066511998,1210.93059171918685024139,-255.512789612066399058676,-85.2400917217436671080577,623.730787246722115924058,318.424437804651176975312,154.065459575411551895741
0.184999999999999997779554,-1.99771903618961488291461,-0.549503787490641437685213,-0.696815568238586258154044,-0.262482755195535821801656,0.273525536219378972990768,0.0147340114718847673552782,0.0145338190150952565465881,0.0175451928418198857539956,-0.996630888934026182290893,-0.0787549729659215852484166,-0.149737082497715889850554,0.0271414942124939273515594,10.5796804518439486741954,-0.232541873538162163770338,-0.172376692154798338840749,1.03750271596826904030308,3.69657108229939224131044,4.96648539594455407097939,0.413970961328552489177923,1202.47967380771706302767,1179.41767704230710478441,1175.72892217460230313009,1211.39748988634255510988,-302.411593093438284540753,286.888362221816123565077,505.236013700004605198046,94.5507942793027780226112,154.06358088714080167847
0.1875,-1.51857165913365177445371,-0.456268899517542125821024,-0.717288607340479167362446,-0.267623593684015448346258,0.271214680292257870330985,0.0139290529085983744161936,0.014935126467646353889962,0.0178642091879343579974293,-0.996615559417516672091608,-0.0787853454962523652715944,-0.146577896949729169495669,0.0246762440556535372904179,10.5746547557111334469937,-0.23335953146905596966576,-0.171904835609409278873727,1.03917441941315757958364,3.69712511338207416855539,4.96673683248994013439415,0.416602831608823942488584,1201.67089066863263724372,1180.60440325816307449713,1176.90261154490667649952,1211.40334569058336455782,-352.096557757385767217784,719.817412843985266590607,478.577488241807770918967,-77.5561506493431096487257,154.061730706046262184827
0.190000000000000002220446,-0.816043815682003903511088,-0.373359889450047444103831,-0.71289993612091573371714,-0.272024768938998018352748,0.269376069952239505234104,0.0114528825620102189114524,0.0153528554415579311653861,0.0181844680393546016816675,-0.996599711604674864950937,-0.0788132514785144372426728,-0.142934350747977112483511,0.0214888004909294799693598,10.5703322792054255074845,-0.234178762802017714772518,-0.171422810268117287169076,1.04080359820925161251637,3.6976859988203458762257,4.9669863751075746804986,0.419238968712443704767168,1200.71919101893013248628,1183.01676410652703452797,1178.1218096158113439742,1211.00970913309583920636,-329.46242428151862213781,1011.26844972754861373687,426.738808346544431060465,-179.796126806058794045384,154.059544288807302336863
0.192500000000000004440892,-0.175705891104585454343123,-0.356437899042320704978692,-0.657362416026553764147877,-0.273481045179761406149765,0.269020818985090615083067,0.00851245346378176788448844,0.0157784524890657723572573,0.0184994683588528864570666,-0.996583755142961047468475,-0.0788375111907429759749988,-0.138727038381948608591898,0.0177434008299866968760838,10.5668235764753930538973,-0.234971987442950169810985,-0.170916911883011835016077,1.04239698803737024235261,3.69825376819333806466261,4.9672334897322185653934,0.421878572344554669815153,1200.02357854722504271194,1185.66074550680082211329,1179.03630558663940064434,1210.50436505655306973495,-245.737758748373153139255,1125.69498329653379187221,364.214456506169540261908,-192.232707019911515544663,154.05775083676667236432
0.195000000000000006661338,0.451511051869549706605511,-0.427410039045443057581508,-0.528761856299789001489842,-0.272325249956767878600772,0.269707467868331718374719,0.00570202853837989062646407,0.0162049448200384561824539,0.0188094301898341226264577,-0.996568213516223266879024,-0.0788547242549790389221087,-0.133921348656509953123361,0.0134713478982007167639168,10.5642377103545364036563,-0.235715197530002917858383,-0.170387697819844641244913,1.04395944799187745388735,3.69882676722615544306905,4.96747720996816344296576,0.424522594927301322176305,1199.49050222518826558371,1188.64523902300970803481,1179.94288189834219338081,1210.04854559799628077599,-191.331497323926498665969,1309.64139939860501726798,420.322811348796278707596,-131.732509698804165054753,154.055987251657910519498
0.197500000000000008881784,1.11383398183713366869085,-0.630973246389774145015394,-0.296015596622370369406241,-0.268360896926898462311328,0.270635471339124744627469,0.00321476175314142293207298,0.0166255904930498604743505,0.0191161598228323133252804,-0.996553744016550058226755,-0.0788607352996471139272572,-0.128505023622302205765777,0.00868207490377133350722971,10.5626776372059314468288,-0.236386579389002621232052,-0.169839974595983628224971,1.04549607241084241415763,3.69940242950989706116616,4.96771558643286148537754,0.427172196609101106901107,1199.06692106060540936596,1192.20895250379385288397,1181.1379196433833840274,1209.84570250805904834124,-118.967443615292623348978,1246.60581886059731004934,468.57109941693084920189,20.8351902623689788640604,154.053905426188919136621
0.20000000000000001110223,1.5510670281962857242064,-0.885943850310195180064454,-0.0585669274655863311696002,-0.263431874723193848453207,0.270477770640474901586714,0.00213918048985241001161417,0.0170327293032176974030278,0.0194189668832564082956438,-0.99654098838905147417222,-0.0788542151371104532708856,-0.122468180072130158886345,0.00345126688675338744172194,10.5622357879414874304302,-0.236964496845307737160624,-0.169275604576166693870931,1.0470140081736747372787,3.69997734758857133030574,4.96794700862988491962824,0.429827796049076560347402,1198.89566500711180196959,1194.87826811731270026939,1182.28573739542684961634,1210.15272154930812575913,-32.6026349420316989835555,948.993742627907636233431,496.854073850999611750012,255.175307974195447968668,154.052199066971382990232
0.202500000000000013322676,1.84931075063833549876335,-1.18329078010304367118977,0.18380113194433078671608,-0.257540223806558443708781,0.268406803794935366891394,0.00243772180980944335945693,0.0174243511831578927473441,0.0197163258080618637724246,-0.996530115634465252227869,-0.0788388263979447195817229,-0.115934518576497461173069,-0.00212497783889627894771124,10.5629880549588950344742,-0.237440758424484366084783,-0.168698589685644578795021,1.04851883234145937251469,3.70054959818951934025222,4.96817066635213233638524,0.432490350554891433976223,1198.90390788589525072894,1196.95392121693339504418,1183.62219001263838435989,1211.12157904793002671795,30.3395712063320104334707,703.074318742846458007989,564.213695038778951129643,509.620087978691572061507,154.050521778758138680132
0.205000000000000015543122,2.03994370853295636791813,-1.46769328545172084155013,0.396524735297897834573888,-0.251519966953939189124867,0.264508446705135236154405,0.00396007566263328458083803,0.0178005578732506261618873,0.0200054081130309445446525,-0.996520601491093893642415,-0.0788183606343934584081978,-0.109078892500702837042859,-0.00791474771672677490652603,10.5649915449964648672676,-0.237814900702517567632199,-0.168110808317212728768553,1.05001674395659883032295,3.70111810338773317141658,4.96838666047237342837661,0.435158001811612238363125,1199.04736286314346216386,1198.39363971102693540161,1185.10680587062074664573,1212.70082198920158589317,83.8211541824875183692711,407.654786048714981916419,622.787567179920529270021,775.011375339590131261502,154.04886805653026726759
0.207500000000000017763568,2.13414042006546900154262,-1.68110367113405834160744,0.540280380689894701440323,-0.246029419620086453601715,0.258897770240529401242213,0.00673639822674540304781043,0.0181654918000205278794112,0.0202850351232574423188115,-0.996512033564498023174849,-0.0787922366249105693425392,-0.102154168709690754135444,-0.0138168810928563853823725,10.5682810870764800625921,-0.238098928858378855455413,-0.167515767414845806460022,1.05151297243424424188163,3.70168187298289064202095,4.96859612848615661562235,0.437827585971785226970354,1199.32301365680768867605,1198.99219514717697165906,1186.73612784853798984841,1214.99663592462798078486,138.803208142599686425456,74.9468969093872061648653,739.092512895653044324717,1147.39550400982443534303,154.047241905565584829674
0.209999999999999992228439,2.19600644995371840906273,-1.81044799673224110492242,0.61545541109227586140662,-0.240256620050483732375923,0.251482052065334971135968,0.0105607317966381203389048,0.0185206276929682119025689,0.0205560124044719336189324,-0.996504110684676258635761,-0.0787603368551959281962382,-0.0953462040861379062084424,-0.0197591405130417216429173,10.5728684685916469732092,-0.238301436010703027168489,-0.166919736274626001604204,1.05301495359003016716315,3.70223979363878674675448,4.96880100715806882760717,0.44049787535012169259474,1199.74137890385645732749,1198.76837419557386965607,1188.80226843509899481433,1218.43779950925068078504,154.971921308789006843654,-219.416135093025445712556,767.127858369443742958538,1341.66891621158083580667,154.045321071144826419186
0.212499999999999994448885,2.24995815263904619385471,-1.80708658745088102115517,0.608457211937489916842026,-0.236114099487432477220139,0.245722374879982691231461,0.012945553297620822352787,0.0188666438552596085753699,0.0208177066721823879336117,-0.996496684350275274688613,-0.0787225451053305269599747,-0.0888133549918680015311523,-0.0256319564533390997773665,10.5787389081219949105162,-0.238431727113581043431267,-0.166324149010813104876405,1.05453203379179183407643,3.70279028138208055054292,4.9690029298330182783161,0.443168236101287471573329,1200.09787326335163015756,1197.89511447171184954641,1190.57176714038519094174,1221.70498050568585313158,125.841535976405680230528,-455.225975834218445470469,705.433410339173178726924,1336.82051149162248293578,154.043744699021658561833
0.214999999999999996669331,2.3473938014816009278718,-1.7107234292941286835088,0.565566306369456595071199,-0.232449248987301487767709,0.241031043554461699152114,0.0135812667081268295676821,0.0192035593964502808439487,0.0210699160929890098870043,-0.996489603329245188234609,-0.0786798871254136972241966,-0.082682490979756703697312,-0.0313312308800883926318548,10.5858497434141387572026,-0.238498733111974364762276,-0.165729793211386061679846,1.05607427974283241134401,3.70333312470982667363728,4.9692035493702730875043,0.445837581821306783158576,1200.37058658373848629708,1196.4922443164027754392,1192.32943548679486411856,1225.12190206670879888406,78.0738582393495761380109,-685.218534219984007904714,752.307788855386434079264,1465.12758487574365062756,154.042192046684050410477
0.217499999999999998889777,2.53082934633780087807509,-1.53411121805596439848784,0.516379586716885885522288,-0.227764911711324041787563,0.236512686392633175724853,0.0132537078652207526707762,0.0195296179087587999656517,0.0213139797543836113924431,-0.996482856623216783908958,-0.0786324082630349974198936,-0.0770191349148431209092891,-0.0367835126666470821343857,10.5941303164818378945711,-0.238508186642592351356384,-0.165138000493308484406541,1.05765203959642528630525,3.70386842969553997662047,4.96940430873208871531688,0.448506242910585550820457,1200.48824255454837839352,1194.46902180061192666471,1194.33330608466212652274,1229.03061843006457820593,-6.82298307465315989617238,-753.600032820849492054549,700.956610625279949999822,1344.11855570701732176531,154.040354464906982911998
0.220000000000000001110223,2.72477421149435317104803,-1.37287727940675274851401,0.492716236359407588896175,-0.222782940809119978098352,0.23347355225817353896467,0.013260580103990532441216,0.0198408099988940413160865,0.0215470379969037867384785,-0.996476172622528522104801,-0.0785856130239365180401023,-0.0718281673811145687791324,-0.0418267959549197126944975,10.6034821112100168249981,-0.23845984694367963752093,-0.164541418675664768977995,1.05927708353462546320145,3.70439746087325882939467,4.96960637899211565837732,0.45117540601527350574429,1200.33647166836522046651,1192.72424415229852456832,1195.83421853992126671073,1231.84249484524389117723,-124.512822789711094628728,-655.616247688475937138719,545.107233841508332261583,968.47955134867243032204,154.038843303921623828501
0.222500000000000003330669,2.91801821529938010257865,-1.23614120486321499292615,0.482130745513339231678174,-0.215968297573640721775945,0.231092457188851269078711,0.0141653507608843348686278,0.0201350449630088579322518,0.0217666072828644405201537,-0.996468974589624356674733,-0.0785485793156095041256393,-0.067132403184022984565793,-0.0463169014280262955618461,10.6137796458025253087953,-0.238355299665274883436084,-0.163933850839246553210415,1.06095852210093011258607,3.70492275314839547561974,4.96981033049424336667244,0.453847715187636391309667,1199.86567844059982235194,1191.19094056216954413685,1197.05884225386967045779,1233.87301618680794490501,-280.118384724800989715732,-570.770208328621720283991,455.007131298361457538704,658.278070982941585498338,154.037351914123519236455
0.225000000000000005551115,3.08669293774177688760574,-1.1335209567059816304635,0.463571271576249999135655,-0.205912636801249299134398,0.228732282061570146858287,0.0161311569851287917032323,0.0204140585904692556384887,0.0219749766251592440480245,-0.996460726223489245967357,-0.0785277268885313101121071,-0.0630029091560469073352024,-0.0502271884423117626061739,10.6248727110442260368472,-0.238202512774442182186263,-0.163317727098982790057136,1.06270023532344826122653,3.70544647510228264408738,4.97001585861339645333601,0.45652633037251161285397,1198.93587974474121438107,1189.87039311065541369317,1198.10925419641307598795,1235.1338852001586019469,-388.126771152473907022795,-370.150540220037896688154,304.892156099594728857483,246.677617706563751198701,154.035584097638036382705
0.227500000000000007771561,3.138305187084117875429,-1.11245597519052208390633,0.429735345327994622266488,-0.196745974503345383288533,0.226889588437281991550876,0.0179684678365455187398769,0.0206852923547038471119297,0.0221727455885985177963526,-0.996451046528492478948635,-0.0785265231724652373879181,-0.0596111091200353521157851,-0.0535175480169725187318264,10.6365886437967080979661,-0.238020916744181076918352,-0.162691220618408710629765,1.06450182228350476165701,3.70597076312885764792782,4.97022145792583280865529,0.459212564865277117487352,1197.92504458483745111153,1189.34018786106935294811,1198.58330303436764552316,1235.10640427534076479787,-423.123901976623130849475,-83.0839322758037468474868,99.5023633182426294752077,-231.07637804114327195748,154.034128616248267462652
0.230000000000000009992007,3.07942065197771919216052,-1.16006459249328575111804,0.371574548794220638203711,-0.187835833924598155642016,0.224970331174741466906397,0.019407794651598544999338,0.0209527002029871699251284,0.0223594164603805427293803,-0.996439923874246402668575,-0.0785449229795088799122027,-0.0570348642286242213383929,-0.0561331323331326764725091,10.6487382082186741172336,-0.237822138080010153649013,-0.162048363284814062046379,1.06636334025413170856211,3.70649663857949596135199,4.97042489311848445510122,0.461907496498698166842445,1196.8202602348580967373,1189.45497344927639460366,1198.60676601300428956165,1233.97850330995288459235,-429.386290714955578096124,142.178615282409623432613,-65.5865569159231540652399,-612.091955175673660960456,154.03269116887130962823
0.232500000000000012212453,2.93596632890351827427367,-1.25585910050357618672479,0.297379969930905818653599,-0.17976161984295857543259,0.222882175877813087927493,0.0204195197361069398500621,0.0212141812821843578351633,0.0225357497484206213689273,-0.996427807014140576313821,-0.0785781873718406909112844,-0.0552010237469521963804553,-0.0580510203132049013019511,10.661119773662671050829,-0.23760482856835005160967,-0.161383506763048578669384,1.06828639476839382105311,3.70702408520572568306761,4.97062470461308780755871,0.464611650156343758411026,1195.77811313126267123153,1190.0510809374814016337,1198.25537024978802946862,1232.0459444994623936509,-369.868175087549047930224,321.580901552169677870552,-223.487585147722512601831,-924.768812522733355763194,154.031268632450832001268
0.235000000000000014432899,2.71709840183886175424277,-1.38749634299312574192697,0.214186952127767726850038,-0.17317049989731822523531,0.220064137040700491532164,0.0209381129533625712224598,0.021467022851349364803708,0.0227058911202207558410748,-0.996415244995610183131873,-0.078619403154779887721304,-0.0540002757913924796850935,-0.0593344630107408149699566,10.6735216021497336669199,-0.237365719846182571250992,-0.16069798188842854269609,1.07027136844534398463225,3.70755172656883624782154,4.97082005395422754645551,0.467323089027264437778086,1194.97091935942034979234,1191.0628779570372444141,1197.48932808726567600388,1229.35465924733921383449,-271.885584900883031878038,483.170402703762647433905,-410.428821627237653046905,-1293.6701881395936197805,154.029864291798361364272
0.237500000000000016653345,2.4077408247193985424417,-1.54795516254062404115643,0.11810271736970362477237,-0.166821489360270636126415,0.215620533667009339762188,0.0210419748383638624544822,0.0217099501996141711068766,0.022872061873819602567659,-0.99640309555954165166014,-0.0786578047293667731443279,-0.0533405722980048319081803,-0.0600234113100220484371405,10.6857249429831817622016,-0.237105897855503788829168,-0.159988284337104741394953,1.07231838277224000854915,3.70807771291893928378158,4.97101173034253651650261,0.470040173003433092713266,1194.41868520675825493527,1192.46693295100021714461,1196.20322614165183949808,1225.57759355876441986766,-123.917851440820086850181,501.630387940988441641821,-506.593555465135636950436,-1424.00342755491442403581,154.028200908562666882062
0.239999999999999991118216,2.13384769668631646410972,-1.65458919935980808268994,0.0487128357897056510350531,-0.162405896205626731898519,0.211398369854102541331997,0.0208581841822455260615499,0.0219417609292943543985999,0.0230355516715911382008564,-0.996392046307871814825319,-0.0786849290056460121123294,-0.0531215909665166824416005,-0.06015111296643534805062,10.6975081326347059018644,-0.236826355033456836807204,-0.15925049493602488892563,1.07442785080150149390477,3.70860038268187164334222,4.971200327135470331541,0.472760837771559472297866,1194.35133010221625227132,1193.5710298967421749694,1194.95636030994000975625,1222.2346421095646746835,51.3116248414464877214414,382.446383318667301409732,-496.591276734946006854443,-1313.81867944097098188649,154.026834062423347404547
0.242499999999999993338662,1.85492778861824536562608,-1.70379873064007769656314,-0.00646243077520178982320331,-0.158476177880799373731691,0.206850555639927408124734,0.0206168597320044132137351,0.0221657436599023774381756,0.023198255124184198605608,-0.996381984494957850806429,-0.0787009147989032042946889,-0.0533317612078702402156338,-0.059781700019326602935088,10.70864938367934549035,-0.236535629952612846960136,-0.158486879263725982669442,1.07659772440884826671947,3.70911942672996985947975,4.97138623166588189405957,0.475484891913188711942695,1194.67524333096548616595,1194.37916486759354484093,1193.72026975797712111671,1219.00850016155959565367,214.694231871999164695808,254.311330402515295645571,-498.621604703930188406957,-1321.80106132368450744252,154.025489305693980668366
0.244999999999999995559108,1.50894440189703549215494,-1.67272680278511587381729,-0.0596798823958672383649393,-0.153865177037768779966243,0.201075422530108821606021,0.0203915085216748240282136,0.0223857942280116031796844,0.0233650668553106698188682,-0.996372398041070583829537,-0.0787098357705239837223132,-0.0539612680420028800742926,-0.059054226635135681489075,10.7189317725637476286238,-0.236242286849048854779909,-0.157708361917172495969552,1.07882452511023618768604,3.70963548020440958552513,4.97157014593632418097968,0.478212251845076430356585,1195.42480126157624908956,1194.8425865487547525845,1192.46325228642035654048,1215.62563680294624646194,316.128122508052626926656,78.0047787149214144619691,-401.681369333209318028821,-1115.69999583248227281729,154.023904425189698486065
0.247499999999999997779554,1.20049414271425147759942,-1.56374617814459671016891,-0.0984681234135934418949532,-0.149977229720791527256551,0.196348011641931385895532,0.0202833972222349993852486,0.0226048012109263951607829,0.0235371590523635286495985,-0.996363073742858484926899,-0.0787133038222882219780985,-0.0549773839930502994377548,-0.0580360471165062216658548,10.7281477121298571830721,-0.235954189888839566124901,-0.156917042003235251979021,1.08110571334588456693382,3.71014853685810974681658,4.9717522153088706815538,0.480942828755765772186237,1196.25588394350575072167,1194.76918876116815226851,1191.71186291131107282126,1213.43000018239717974211,352.977682465279599455243,-114.825818413464631362331,-231.118622079293146498458,-716.22496706463539339893,154.022610723121971432192
0.25,0.862318911172205937454294,-1.37270450314264969016165,-0.137990496476817880999732,-0.146325891123364609791579,0.192208230542784574979009,0.0202335044033615969738538,0.0228236853866295545667509,0.0237127852868683659803839,-0.996354092440624006243866,-0.0787105965894760728485124,-0.0563045884840120136605179,-0.0567363308919105746586098,10.7361036408876611147889,-0.23567608843245752003881,-0.156107874263305107520594,1.08343952310704305652678,3.71065811743749396356407,4.97193265829890762574905,0.483676376795417028997548,1197.18968967390264879214,1194.26845745668742893031,1191.30765917602388981322,1212.04451196762306608434,416.956517275911721753801,-288.376406644101450638118,-109.343904669458325429332,-418.347667149736992087128,154.021349396226298722468
0.252500000000000002220446,0.431461334895894166319152,-1.06940063164250864780058,-0.190486470255851636501632,-0.143001604575210189418399,0.187991590580832784729282,0.0201622271404089045687691,0.0230434839884974297652409,0.0238865220388800245099326,-0.996345810355800831636941,-0.0786985282817102421715205,-0.0578724763189550767128466,-0.0550914209033074031562904,10.7426241276477352215579,-0.235414076423876433841187,-0.15526736067901478199893,1.08582368074301105487223,3.71116260276652853988821,4.9721099899059373328214,0.486412971480939648749597,1198.34066652988531131996,1193.32730672794764359423,1191.16514338796378069674,1211.33826184664849279216,421.856865604058441476809,-370.500527982857988718024,-11.7875200848175047951827,-121.262308161840223874606,154.019879166349483057274
0.255000000000000004440892,0.0757427617261319380270734,-0.778951378387793602620093,-0.237523102750931247584276,-0.141612678615220588529411,0.185377445221345388270962,0.0200100963515522749236464,0.0232653486065729012133296,0.024055813180639241954939,-0.996338284786258410186122,-0.0786767649578092309603505,-0.0596102047023936848502146,-0.0531021460704183614898177,10.7475567471720179213435,-0.23517276440806231252445,-0.15439002421706959911063,1.08825313617683039346673,3.71166198103327937829476,4.97228334421720941094236,0.489153872671044931408346,1199.29897400192294298904,1192.41595481677313728142,1191.24872157559980223596,1211.43820042681386439654,382.893441321720843006915,-348.729177614359002745914,56.3483625747266572147964,133.861305518757831123366,154.01869505068830790151
0.257500000000000006661338,-0.231062231541850626737045,-0.485993086796012496719754,-0.281117054541957733793112,-0.141862138435021212234943,0.184342785502735029279364,0.0196421492657023709360598,0.023489920680276672737552,0.0242190219673792603294338,-0.996331510150253119029173,-0.0786456318818296723494043,-0.0614379034169029863976519,-0.0507900607650052376973449,10.7507768362509388282433,-0.234954475363136294774336,-0.153473041757511391436353,1.0907206126342106067284,3.71215732564977329843714,4.9724529467303257845856,0.491902333472877206776985,1200.2551337364939172403,1191.58366083987584715942,1191.4468852008374142315,1212.00756837424228251621,381.760641919253998821659,-290.501740853005401277187,91.2756747990896712963149,260.774131148309379568673,154.017560023408094593833
0.260000000000000008881784,-0.458157432347842619169143,-0.218459364754395174434976,-0.312836637114412230431526,-0.143423906940460060832621,0.184611439477653543894675,0.0190073579327461501808916,0.0237185583633230390177005,0.0243758811312689942230048,-0.996325147635489183350899,-0.0786090356884978219698112,-0.0632968074418548826143294,-0.0482071805920403842482536,10.7521914743204423103862,-0.234760822817116021621331,-0.152518530778853939056106,1.09321585749662797404369,3.71264945401856794049422,4.97261875831166122452487,0.494660284529979787926379,1201.20777721151921468845,1190.96344611250810885394,1191.70509994959525101876,1212.74207108255541243125,374.484348970053929406276,-174.09830467245214435934,122.672543748194470936141,284.323451577938385526068,154.016470630646779227391
0.26250000000000001110223,-0.547765721909925673571706,-0.00288841297833176968712365,-0.316914201119383065474722,-0.146257393835435067774853,0.185816750950623332805378,0.0179940983697875339641925,0.0239522527205770531522067,0.024526630127642334855409,-0.996318592142355075047533,-0.0785742066951954643005962,-0.0651303502896683900180719,-0.0454144372883571317833784,10.7517433507066240139238,-0.234590469707325111059504,-0.151531293508892356269868,1.09572675782392270349419,3.71313962471541580967482,4.9727812840428695650985,0.497429239342984774729928,1202.12755548134418859263,1190.71316931651358572708,1192.06024791957838715462,1213.42918563213197558071,382.929044041520342034346,-22.5193354790007802535001,199.048031764186646341841,250.078326471839091027505,154.015442154007786257353
0.265000000000000013322676,-0.46702314742262240887527,0.193703936850957075810342,-0.274938022292006589708535,-0.150139953160944500387686,0.187492292332331556004021,0.0164442823988629402420791,0.0241929755219383105235842,0.0246733666006334548259638,-0.996311273474373093606005,-0.0785470542744488853248441,-0.066910818629908844212828,-0.0425128137019493909654066,10.7494132307906014034415,-0.234443030397095381056616,-0.150520043068820830178822,1.09823894066562743887516,3.71362882358104196001136,4.97294043302593635758058,0.500209449998768596046261,1203.12242243172681810393,1190.8508494351131048461,1192.70034010841618510312,1213.99246271491460902325,335.686788301654530641827,102.599023224138278465034,288.139112307453331141005,153.915198392769383417544,154.014285907228497762844
0.267500000000000015543122,-0.246864842355886349167804,0.322681402950280971086983,-0.19593624664847983374294,-0.15259711491105645841948,0.188537671641998111349281,0.0151744907605630089536541,0.0244417496076047777164852,0.0248179822331263365275955,-0.996303088833592864759225,-0.0785278936408554950610039,-0.0686011363496693976626872,-0.0395957877890323467484635,10.7452219288546526598793,-0.234316400874792912789601,-0.149490829191547797138995,1.10073801370613599814874,3.71411674389509949278931,4.97309471596561181172547,0.503000375744010685963303,1203.80598942285246266692,1191.22616443263427754573,1193.50094348111565523141,1214.19876162409582320834,236.963864255358004129448,158.937206707150693318908,387.980563972496042879357,38.5106181933224078761668,154.013392706316068370143
0.270000000000000017763568,0.0974256746714917132301537,0.448960577831817420069171,-0.0759965058170096741108068,-0.15316806643528257936282,0.188890457536006417527119,0.0143974283425972373468005,0.0247000992577998679244899,0.0249640890307364533839962,-0.996293720551932215911961,-0.0785190472315752535648059,-0.0701891939849304119514173,-0.0367907436412255317570441,10.7392302361269660337939,-0.234207960013790850162252,-0.148454693252051350693677,1.10320899994775722952056,3.71460394819451344972094,4.9732433369240132137179,0.505800789265937744687562,1204.30724175300360911933,1191.64553546864885902323,1194.64024292827866702282,1214.18501580588122124027,186.234956784164580767538,133.629197055552026540681,570.171505285588409606135,-32.3114014451675473083014,154.012578877248103026432
0.272500000000000019984014,0.59338980286626874516287,0.63459859695526965595036,0.0976702301078864743022478,-0.151602029899471413276757,0.188761335523767559418928,0.0143606390301295391842551,0.0249703159861848801581719,0.0251160456172488145976107,-0.996283131569855928688639,-0.0785187972605817241511517,-0.0716927177441959301296137,-0.0342393121709134787278295,10.7315377314308530998233,-0.234117094941869913204968,-0.147422868699515902113362,1.10563709062719817133313,3.71509067675573501077224,4.97338668383280779750066,0.508609792102245772404956,1204.73716420677328642341,1191.89431041791203824687,1196.35180100754359955317,1214.03720461686998532969,144.640216600418938242001,11.3624025205353866851965,659.730376102106106372958,-60.8985688931169875104388,154.011701328596984694741
0.27500000000000002220446,1.03215573661210213707307,0.830869890061697979888322,0.250738503197477147210748,-0.149087778277085136746649,0.188959393120307544977621,0.0151119024121155829526453,0.0252516033331464731515048,0.0252789091037332117051228,-0.996271549286586788340969,-0.078522830251613565111235,-0.0730782994723375572965196,-0.0320892576702694054535669,10.7222813584089795568843,-0.23403664157770232012723,-0.146406455495559306712039,1.10800999887781004282772,3.71557658701965998204741,4.97352506407848782288283,0.511428168371546365555957,1205.03044283600570452109,1191.70234748125153600995,1197.93889480878920039686,1213.8805229614156360185,127.905905928946481253661,-183.223564449781235907722,620.692620310500728919578,-62.5602485173203035628831,154.011057827586540724951
0.277500000000000024424907,1.45505015345954147321095,1.06147059631166129634039,0.395372106832740988213715,-0.146164574121222967661993,0.190364662110294124985899,0.0162329057160319201180698,0.0255408500861273937698748,0.0254511302997677268944443,-0.996259283309919752014139,-0.0785286362231470136396894,-0.0742931332631978497138547,-0.0303387512465158118435404,10.7116308997648861378593,-0.233955139079493917853014,-0.14540195456213442226634,1.11031983922898902505949,3.71606104669807102425239,4.97365881932750664162768,0.51425515802116084085327,1205.37669373641801939812,1190.97819259566313121468,1199.45526410909610603994,1213.72440337428338352765,188.501025372261040047306,-432.975052461415145899082,586.706517225047150532191,-74.5860504025130666150289,154.010511555488449175755
0.280000000000000026645353,1.90077841003886316428861,1.34265861582099232940379,0.546459629265985125101679,-0.14206598064277625725893,0.193901746899281218761146,0.0175549603287144147245602,0.0258378542805822522532289,0.0256262196635745030659503,-0.996246825137480751521935,-0.0785320673312530082021965,-0.0753709831812773983772402,-0.0288825367036102328976988,10.6997828756495270141613,-0.233869190123373593692691,-0.144394110226794714080256,1.11256052294117147027919,3.71654341583715153163325,4.97378810893332801157385,0.517089118425256732969331,1205.97294796286701057397,1189.53747221894445829093,1200.87242739491443899169,1213.50759270940307033015,258.146009723759334519855,-592.831080138375341448409,410.768536014665755828901,-94.2961279619338768043235,154.009975044712405178871
0.282500000000000028865799,2.18427352486681369825305,1.54947271503852257445999,0.646501206197302669131943,-0.137599540481002674541244,0.198207285406834549101873,0.0186956406082339487984001,0.0261447442605013471994546,0.0257968190614120129744435,-0.996234780017863696954805,-0.0785270965352656419300459,-0.076411058490157376943408,-0.0275989440059109941705273,10.6869554298369031641869,-0.233781717595057919600876,-0.143364609473137782913454,1.11472724489218677490499,3.71702377228645985951516,4.97391327216114476073017,0.519927279964218169716617,1206.66742378503681720758,1188.01403719497125166527,1201.50910678916943652439,1213.25292273447371371731,318.32739379665298429245,-618.098299191114506356826,109.733101170468117402379,-129.820448234022364886187,154.00963155430616779995
0.285000000000000031086245,2.32482642738907152590855,1.69859489691960563462203,0.7087530811618724113643,-0.131653670098165503921095,0.202931282786371264270642,0.0202710722132732508449227,0.0264595321068747842130353,0.0259604459774587063847218,-0.996223313443903579766925,-0.0785130479717601886813227,-0.077433676029115952599291,-0.0264603078154564824719941,10.6733844367097354677298,-0.233685058978777004945471,-0.142306798699081499259833,1.11681812054788909271963,3.71750244811119667787125,4.97403548352900948259503,0.522767208929372118042522,1207.56458493185027691652,1186.44698072298888291698,1201.42109290076678007608,1212.85849046823295793729,384.26325488494478577195,-583.094688457003371695464,-160.548091681857698631575,-187.578550115676819132204,154.009400397870109600262
0.287500000000000033306691,2.30861489196829516856724,1.78887417164999962260197,0.729328303730620408629193,-0.124580686455162334413949,0.20741653768074685970646,0.0224473074639200721736021,0.0267761126312470558452628,0.0261178585594339027209365,-0.996212563333816691901745,-0.0784899401295844206805086,-0.0783778935518325142739471,-0.0254989584641765534844815,10.659316998650110619451,-0.233562380558486437642784,-0.141220200901124026682254,1.11883428098850346010806,3.71797949499049584787258,4.97415628227894135449105,0.525609225332230312055515,1208.58874005946154284175,1185.09856375268623196462,1200.70636633076014732069,1212.31502998389532876899,424.554791173027069817181,-428.823631345044134377531,-418.45287975066156604953,-253.633895428450017561772,154.009265623118636767686
0.289999999999999980015986,2.07300508356025137146617,1.80371927126187947543201,0.690376401082626323102431,-0.116910075347948561041989,0.211627766516511273131584,0.0250614224495950103921427,0.0270865920199616430630307,0.0262717640958173397069952,-0.996202437125278783547344,-0.0784607248070086360502984,-0.0791521118213661251106217,-0.0247827867943097163161426,10.6450040912513035351594,-0.23339268847576566390245,-0.140109191741121769103628,1.12077854672386023615616,3.71845451766601886589569,4.9742760260526868165698,0.528454568686685277612014,1209.68735888771539066511,1184.30286256626368412981,1199.32882850201349356212,1211.59032099109072078136,479.350882336034715081041,-166.575511165185048412241,-708.302066676886170171201,-346.546900284469188591174,154.009250545607443427798
0.292499999999999982236432,1.53733956493826151579185,1.73061682935003058325663,0.576803346048982201743627,-0.108682108270866523147546,0.21674310379093136846862,0.0278253509666852236192902,0.0273839427720325191695228,0.0264212957431230813232226,-0.996192960690674200741057,-0.0784277855814435181924793,-0.0796938911162241442331933,-0.0243028236040039521959066,10.6306927294599269373521,-0.233158651738438832401457,-0.138969926418107181387285,1.12265509772335247973274,3.71892713642513017546776,4.97439406826212504597606,0.53130479807265740266331,1210.98549447114169197448,1184.26568619686031524907,1197.16485599737575284962,1210.5822954824730004475,459.551820378373633957381,159.71780111967731841105,-829.406516535436139747617,-371.029952053094916664122,154.009374771514899293834
0.294999999999999984456878,0.915696216891123904169092,1.5909623290066878809057,0.439939615738934641786528,-0.103878374106474644089637,0.221118649000808326077205,0.0291980983582484643346078,0.0276686766715404652838828,0.0265652754923623099503338,-0.996184166186792285913043,-0.0783909547070437834337397,-0.0801004286080451016749393,-0.0240538211921499517353951,10.6166179196219196967377,-0.232861517197616274543748,-0.137798286709543249539678,1.12446526708310945430469,3.71939729439780686348627,4.97451048202340295745216,0.534162297723982160135847,1211.98511798960726082441,1185.10145157186207143241,1195.18179591933630945277,1209.73517123082524449273,370.517616343522263377963,510.467357043352876644349,-770.839284998964330952731,-305.749262058952524512279,154.009599372674387041116
0.297499999999999986677324,0.190549417429717676819578,1.36951830429162768609785,0.283119005285246527758858,-0.101966415558875339586464,0.225055505728618404637231,0.0295916857196828059217708,0.0279466134932077579777765,0.0267035214970406629964028,-0.996175845663923476003276,-0.0783509767144844604391807,-0.0805765608105396130556031,-0.0240562122804851633017797,10.602997066335252185354,-0.232515294941787381555187,-0.136594231225273532448483,1.12620848061344824841967,3.7198654044672885277123,4.97462514953972778641855,0.537028093489706148666585,1212.83808255285930499667,1186.81802298207708190603,1193.31065957238092778425,1209.05354917217823640385,327.622632989732380792702,920.565825236325622427103,-742.349758429326584519004,-223.220760044887157391713,154.00995223409577761231
0.29999999999999998889777,-0.68256978044033789210232,1.01756221776084587737898,0.096353724283678499062944,-0.103165249364996033931696,0.228606969385837605068801,0.0294797006182198721713217,0.0282192044191622200266512,0.0268346646065356526922319,-0.996167829003551608124667,-0.0783101045611344775965179,-0.081229883067874084079385,-0.0242920908987483974428301,10.5900264067508356191638,-0.232125420360604489689038,-0.13535584313796000799357,1.12788791953239764254135,3.72033101253328890578587,4.97473775238546078725221,0.539901836370510257445687,1213.62323115455592414946,1189.70428069804370352358,1191.47004712718967311957,1208.61906743060080771102,235.554751759491210805209,1150.3357950816271113581,-582.88794289583108820807,-78.0595572610763355214658,154.010526743769162294484
0.302499999999999991118216,-1.32574139819388325811644,0.662081553040030468260113,-0.0472464613426442914256853,-0.106914761937547897474587,0.230529178184471522650156,0.029152966265955138763788,0.0284863194737672055512068,0.0269567197768117543243971,-0.996159891090412696890155,-0.0782721194248164747753194,-0.0821255236922435599700165,-0.0247205121519494669390937,10.577874500961687687095,-0.231695013543112421361414,-0.134081380738433231236684,1.12950952280219074630452,3.72079359278681298661695,4.97484752243054373366249,0.542781759983852141182581,1214.01585631165676204546,1192.56970195748522201029,1190.39621985790176950104,1208.66325138587285437097,84.1317605462335649235683,1175.68719031710202216345,-324.379631847341158845666,103.250897197312866637731,154.011133390768037543239
0.304999999999999993338662,-1.79322906865819930999351,0.253323145425762563665018,-0.173333111324864397317924,-0.112880889709284462640859,0.231533136515931659005219,0.0287884180861948286989094,0.0287440734588455190645639,0.0270690276774348190236275,-0.996152023998955971073599,-0.0782390029696096167555197,-0.0832317558778363913996046,-0.0253141329130350395404392,10.5666777918877077269144,-0.231220332603820244443682,-0.132772161600050842000798,1.13108299168724668604114,3.72125107763524010096035,4.97495255428707761069518,0.545665498177514862732096,1214.04388995728709232935,1195.58271664962921931874,1189.84814896795296590426,1209.13532191658737247053,-93.2282886768915943775937,1283.50143583925159873615,-129.512467230597280831716,285.299258204758871215745,154.011875108678708556909
0.307499999999999995559108,-2.08703232277846062459048,-0.287451719723111842608176,-0.30366959121912817654021,-0.12120727542566631096399,0.231803028483140383109173,0.0284083589474831837984325,0.028987181028899081797201,0.0271728254439899223615651,-0.996144193251105369846243,-0.0782129923247662089957899,-0.0844677348401420141632556,-0.0260730611986142862823712,10.5565354108244626729629,-0.23069541143516411607628,-0.131435075889326652420763,1.13262063180358518721391,3.7217016805124560896445,4.97505097293223474963497,0.548549455439881650242739,1213.54971486827230364725,1198.98720913668148568831,1189.74865752174878252845,1210.08974767689664986392,-279.407282176680155316717,1167.29767977603728468239,38.0226540218700037598865,390.403949332312208753137,154.012923954407767723751
0.309999999999999997779554,-2.09382832190797696370055,-0.770284448591185832988515,-0.393039506388829729122136,-0.12812411488545119575555,0.231176807982003712504948,0.0278917025775518578889489,0.0292151641374482108626243,0.0272716640515531620614365,-0.996136293643385739571272,-0.0781947213741375490858587,-0.085830203209154146137827,-0.0270432141214097046533205,10.5475038630460584698767,-0.23012606094355661512374,-0.130083504592762022600283,1.13413404185155197723134,3.72214439052389733930681,4.97514259221289023571444,0.551431071803637151695909,1212.6468535464036904159,1201.41920504850941142649,1190.0382622380623161007,1211.0873416632489352196,-464.55489863301369268811,853.973074437771288103249,160.124576808766363456016,411.957259394921152306779,154.013932182618191291112
0.3125,-1.87006649020268689298518,-1.2680372362226519644679,-0.455583431723372789257098,-0.133922515190822488673206,0.229355350401215823952228,0.0268467160608881379169066,0.0294301016950247393277884,0.0273690507126516588409793,-0.99612830139491537195795,-0.0781829328112259025473918,-0.0873483999000961436331991,-0.0282624595809818010549996,10.5395951643657017626765,-0.229524746856764771951731,-0.128730942878308746157856,1.13563510332871153707401,3.72257916886675443990384,4.97522754615695816937659,0.554309131142551869686486,1211.22694037510723319429,1203.25707450887034610787,1190.54928040579261505627,1212.14953397387125733076,-646.559465721065294019354,627.321920672602004742657,211.095358513375487063968,419.53016319494014396696,154.015081866677689959033
0.315000000000000002220446,-1.48674396302525391178051,-1.75671951555843963710402,-0.488763797042651659818802,-0.138262058414335725631261,0.226205632647252713463004,0.0253298157005121087059774,0.0296364369411495909290011,0.027466268206133986895523,-0.996120315166798109274282,-0.0781747649929981913707877,-0.0890837010999501049957061,-0.0297147421838194064624972,10.5327759844781390086155,-0.228909869432571716485469,-0.127385510983371696980271,1.1371356233707261562671,3.72300687420733877885937,4.97530635058711556695243,0.557183459304493089447874,1209.41405621779836110363,1204.55581465187242429238,1191.09373903062919453077,1213.18499247922363792895,-804.276967673830995408935,394.890446745739268408215,190.211332855642297090526,399.675725984161203996337,154.016350427340711348734
0.317500000000000004440892,-0.959447705717919929746529,-2.20075126111884644686256,-0.481062645572933378357305,-0.140828081917231062725193,0.221153685049739173740235,0.0235630490865818345569416,0.0298372319521203951953048,0.0275643368586897877237085,-0.996112292901305651504629,-0.0781697988749821409681928,-0.0910517576478141049678428,-0.03136520549899576848496,10.5269699428307355049128,-0.228295542204144913389641,-0.126054832157746959930833,1.13864760276296950181063,3.72342884925531025785972,4.97538035621237906269698,0.560055006024630541716647,1207.20555553673807480664,1205.23152674259904415521,1191.50033707007082739437,1214.14791260379206505604,-1038.50999441560725244926,171.184832327298721565967,113.63265648042205668844,411.159973191160702299385,154.017764176748016780039
0.320000000000000006661338,-0.22152136165605443296478,-2.63826371744883481085253,-0.427458836187111446136555,-0.142122945496817615351759,0.213132877614840954283437,0.0217420296845477686864534,0.0300377949438303121221239,0.0276613036804650921918203,-0.996104186425603388421735,-0.078167886575550876715468,-0.0933039258889346162506584,-0.0331116729103915208298758,10.5220590785687537760396,-0.227700312590163295167756,-0.124739171389913708343222,1.14018109087213481700473,3.72384650951339102320503,4.97545089401707851806123,0.562925562301048509894486,1204.22150624572032029391,1205.41173881350891861075,1191.6619023130313053116,1215.24079234517944314575,-1129.82681372814022324746,-25.5600579831479777226377,-4.18796764615762739936144,399.326551867079274416028,154.019630814268452922988
0.322500000000000008881784,0.441095362017771275287004,-2.90003047283361192754114,-0.355196120240542534407524,-0.141827640001332661023881,0.205437571410452685105597,0.0206794302190383867678936,0.0302408214634015994060068,0.0277569562902706228058047,-0.996095946790160224892929,-0.0781692118112116002270895,-0.0958208941505201000632397,-0.0348779928407348671637322,10.5178901301414118307775,-0.227134931429025327398463,-0.123441217926804860938184,1.14174464592993785139186,3.72425950217056112023783,4.9755181041061335989184,0.565797986579101630510991,1201.55642146809736914292,1205.10372645268330416002,1191.47939723184003923961,1216.14454536312746313342,-1076.05080501184511376778,-207.636966055770074035536,-129.394354151599941360473,366.995591798922419002338,154.021329726757670641746
0.32500000000000001110223,1.1096064987313898342336,-3.04427266498579385256562,-0.270038121194762059662509,-0.139986083483774170765912,0.19731833895524333866156,0.0200821874740751554755391,0.0304507251732525664744688,0.0278545495666618209140708,-0.996087508918663822043982,-0.0781721275736441123527243,-0.0986032601982896189651839,-0.0366607487774349566356236,10.5142790580150347068411,-0.226612061936048936328092,-0.122169918343881772626602,1.14334247153909096539337,3.72466795209996570648059,4.97558161898847828297221,0.56867546621418085805999,1198.8412522206610901776,1204.37355398323006738792,1191.01493054227330503636,1217.07577030417405694607,-1168.69217247531082648493,-412.675369835323749612144,-240.373584349435759577318,406.149684038609507297224,154.023179285478335032167
0.327500000000000013322676,1.86878165873020374299074,-3.09153780108668385651072,-0.17101999841855972106508,-0.135595351829519983333228,0.187511173897024152612545,0.0197627328141770225444773,0.0306667094633315921725636,0.0279561407161375563568129,-0.996078922044205894437141,-0.0781756765542296477855544,-0.101540021447541026211603,-0.0384223473142896038146077,10.5110195822834242562749,-0.226130653135513975948712,-0.120929610261455516839746,1.14497860620290548006039,3.72507230537826883320918,4.97564070267164115790592,0.571559128236619140572827,1195.71296060572080932616,1203.04034960350668370666,1190.27752931009285930486,1218.17529378332051237521,-1094.49590184067255904665,-560.542694697005117632216,-276.353410990350084830425,377.497941887304136798775,154.025574908311000399408
0.330000000000000015543122,2.42945123882500624290515,-3.04654648504686642596084,-0.101529004579206286185133,-0.129885572407203137013099,0.179757144277590624747987,0.0197130057170944415767533,0.0308887159893223607609603,0.0280631647230176958784931,-0.996070318536333765280233,-0.0781773098546567069000446,-0.104535513818696537691189,-0.04011685296980053994087,10.5078888246402382122824,-0.225689657427839279746351,-0.119721368030880612187694,1.1466542273240287741487,3.72547341843349233414528,4.97569548426521102157949,0.574448969372214568451795,1193.36877271145772283489,1201.57084050974503952602,1189.63316348732155347534,1218.96326001361057933536,-847.384634102262793931004,-651.525535012069099138898,-243.505190922860265345662,248.575728366722387363552,154.02771941976439507016
0.332500000000000017763568,2.87868484620284137420754,-2.9490067945219839984361,-0.053389465357793250421814,-0.122289611087281174794938,0.173032189842990624661923,0.0197780571449641152936838,0.0311147589106083415078086,0.0281749672551220645133618,-0.996061843792017453935728,-0.0781751006855331831424394,-0.1074620536344358251446,-0.0416574935982859384520083,10.5046557649778762311144,-0.225281770993885327447614,-0.118539930748033497942551,1.14836950288367733996608,3.72587223759218044705221,4.9757468268130917721237,0.57734424786813998142776,1191.47603743520949137746,1199.78272192844633536879,1189.06000335547855684126,1219.4181724251541254489,-697.572932570255375139823,-838.55108990887777054013,-229.423422958779866576151,77.6700931192862498164686,154.030019233829705171956
0.335000000000000019984014,3.26603665077616112100145,-2.81191611218919312875641,-0.0238567950490949781672256,-0.111886661092014810803263,0.166056810620676231771142,0.019906394892071715974069,0.0313414508489476204000646,0.028291733876034345224193,-0.996053776083124509099775,-0.0781647009428611538872644,-0.110168460371600426817018,-0.0429827454415084297956184,10.5010890353426322718633,-0.224894669905231436857207,-0.11737933940911202124191,1.15012303002604343582504,3.72627066290289121752721,4.97579650767157399826601,0.580246163487139865466702,1189.88090804860644311702,1197.37808506020064669428,1188.4860463725276531477,1219.35161047920701093972,-461.465342942119207236829,-904.938047112090430346143,-196.199053711961653334583,-146.006323424171426950124,154.032960160083376877083
0.33750000000000002220446,3.4635888687043121514364,-2.70033677670406069282194,-0.0223008170058334731500338,-0.102861935694450554179546,0.160756633024546485843942,0.0200189154354361818766161,0.0315647975988442783257248,0.0284103212115258407788332,-0.996046132569210596052756,-0.0781453194212341079039064,-0.11251131250519606774585,-0.0439713304604816557219493,10.4969637027534119511074,-0.224512855511286607557153,-0.116225965796529509543866,1.15191252970517954423713,3.72667012104949657569364,4.97584572501720767689903,0.583155607392619845796844,1189.16871072049889335176,1195.25803169288587923802,1188.07900808691874772194,1218.68814080803326760361,-160.096398962696042644893,-850.439637045246058733028,-156.338840429452687885714,-389.41198782749745532783,154.035562905091978791461
0.340000000000000024424907,3.55222026471658081092642,-2.59510098232527308681483,-0.0411184927089957574786183,-0.0942074721664020731104472,0.155433755488342040251837,0.0201075292257340346169237,0.031784841453663059684942,0.0285284773812290205763365,-0.996038865884103064018973,-0.0781134175691577253841658,-0.114443848933213535024045,-0.0445419775087355362952479,10.4920668660879847777778,-0.224129094929467781449617,-0.115067050475182772184546,1.15373222527496466227603,3.72707153472194541166118,4.97589467724950296201314,0.586071971532983959640717,1189.08042605379296219326,1193.12588687497441242158,1187.70435217038038899773,1217.40455054006952195778,54.2655315167848542046158,-844.929667048699343467888,-147.258584663040750228902,-596.313562750173673521203,154.038324203938856271634
0.342500000000000026645353,3.57496156091616379413267,-2.48347857880128675134301,-0.0721191967419417268025938,-0.0860020704605641839179953,0.149694253148009132070584,0.0201535298884749081160805,0.0320010669751983542474782,0.0286453782960556721515211,-0.996031667481257043661458,-0.0780685714609746367331766,-0.115924607841624685566906,-0.0446566302208044746402393,10.4862054018056252147062,-0.223733459036929760443968,-0.113894007374835348755937,1.1555752183033782820587,3.72747599741257129579708,4.97594285321438523084225,0.588995245934182398706014,1189.44003837808281787147,1191.03338335764237854164,1187.34271516360354326025,1215.70657299428239639383,224.239486262285737439015,-826.333068536131804648903,-138.071895814937192881189,-741.863240347628789095324,154.041217177756635692276
0.345000000000000028865799,3.54781003019729990199949,-2.34041607109879246095829,-0.109530199004126763129285,-0.0781770345062640092947959,0.143469013244072796098294,0.0201083516557193434093342,0.0322137188448719663513842,0.0287606100095388651782802,-0.996024696539878684475866,-0.0780125221958035686142807,-0.116946211597681884453159,-0.0443014772642459156437589,10.4792109368261545654377,-0.223317489883146591544971,-0.112700464668144567648156,1.15743339902633834981316,3.72788341745812124017334,4.975989458581379309976,0.591924657325748615477323,1190.20162348510439187521,1188.99422153229374998773,1187.01399269130570246489,1213.69523433833137460169,384.826736462127541926748,-896.596177746686521459196,-128.370790173903401409916,-908.537018299738633686502,154.044268637317884440563
0.347500000000000031086245,3.48592715849695400365249,-2.10455318684471848200701,-0.147747580090762109517044,-0.0691227510968009800640388,0.13598448737789145535082,0.0198762028368109772147321,0.0324216917542418311959374,0.0288720743721510124391028,-0.996018040311350771887078,-0.0779507477605272669496372,-0.117495583409059786705875,-0.043439166670818679660826,10.4709451210093664741407,-0.222870393695645402365457,-0.111478192528442807129885,1.15929901916738242739768,3.72829204340619213553509,4.97603406827380290167184,0.594859727615887456941834,1191.36417206039345728641,1186.55040246890894195531,1186.70086121273402568477,1211.16388790278369924636,435.50375947370372387013,-910.542034322633412557479,-97.8855167757500623793021,-919.981652825253263472405,154.048112537719674719483
0.350000000000000033306691,3.42010142021185314931131,-1.84426372128718973897321,-0.16171268523132861782976,-0.0616154508505319595257355,0.130126635811576352175223,0.019472801885147109773877,0.0326227877344980252138917,0.0289750820073696215006809,-0.996011785917852998650801,-0.0778885264224285361889244,-0.117556741785363863539438,-0.0419904806434421504213184,10.4613033283549956564684,-0.222381166942805158504015,-0.110213921067640899242868,1.16116487122329736791926,3.72869897013538187380277,4.97607564890572451332673,0.597799645780822119789377,1192.37914228247291248408,1184.4415113606805789459,1186.52456510742695172667,1209.09532607420510430529,381.230469272035691119527,-877.800093835285110799305,-59.1915004601111505166955,-799.869533044337913452182,154.051466286484611600827
0.352499999999999980015986,3.3385569640665817559011,-1.52281664685223727673247,-0.141781347557350473342908,-0.053791709096216402952173,0.125363058136010091514478,0.0187966646109557350419195,0.0328135600428546073126235,0.0290631992661954351164777,-0.996005993369417974570013,-0.0778312900269031160416233,-0.117104035193351760368863,-0.0398502682104655975292573,10.4502176461627716008707,-0.221838433355152297998814,-0.108891594275314529394194,1.16302422447589015597202,3.72910197230106277288542,4.97611253064402170309677,0.600744024195023818002426,1193.27032440675361613103,1182.16140199973256130761,1186.40490371043347295199,1207.16454023756205060636,332.528384397168110808707,-1056.87909007539178674051,-62.5739282964338627834877,-812.572238444780964528036,154.054974091144913472817
0.354999999999999982236432,3.21167145901375850058912,-1.0921573154586701193125,-0.0646604147488542835287006,-0.0441224721065974004319266,0.121485658362614296068571,0.0177064208132253105010268,0.0329922980771876206418369,0.02913094469048973025882,-0.99600098539816817044823,-0.0777789977710972441071746,-0.116153013621087056184145,-0.0369483378751355590052796,10.4376580315777740537442,-0.221237771960948542693259,-0.10749703490349835077744,1.16486898454492604493282,3.72949998258327841682558,4.97614384827586953008449,0.603692308922633924517243,1194.0417842044587359851,1179.15711591030367344501,1186.21169546594478561019,1205.03246488198124097835,218.965834238724511351393,-1145.12628237480294046691,-103.855437730999170753421,-755.792725364698753764969,154.059358262864662947322
0.357499999999999984456878,3.07420829910587078970252,-0.720904325225268594046213,0.0473554481117740913576064,-0.0363852230899211689929551,0.119722046254706185330896,0.0167381166356418871477008,0.0331599023158268974009744,0.0291802027826618716466189,-0.995996770364304673250899,-0.0777309976245784128856542,-0.114768146043288513102887,-0.0333808828518184289024795,10.4236335983795473936198,-0.220581705943741629427635,-0.106034746584441022521084,1.1666881023239794590296,3.72989156174254921083389,4.97616966260914050934616,0.606644036557494215067265,1194.36515357794723968254,1176.4357705878585420578,1185.8856265217784766719,1203.38557661073855342693,59.7580419769655648565276,-1115.17917775472506036749,-196.590407586381672899734,-643.974933545723047245701,154.063154510670301533537
0.359999999999999986677324,2.89906842648555818087175,-0.363893722932957186522174,0.199764251717759772075667,-0.0294448043256218539021063,0.119153125778988525085289,0.0162127156860204929555991,0.0333128084417283198970239,0.0292124701614881326916517,-0.995993281802410534986336,-0.0776891052326866976551756,-0.112926937459037327049494,-0.0292340035265324510449503,10.4081947965155041657681,-0.21986392766495935213733,-0.104509459565493456612018,1.16847217217847720860391,3.73027575209956330226646,4.97619001881754297045291,0.609599367586309170974346,1194.34057441434356405807,1173.5812200215300435957,1185.22874342801287639304,1201.81259021425262289995,-75.1294737328861828018489,-1245.23236227487245741941,-395.285315281443786261661,-694.181347933089796242712,154.067095095525871784048
0.36249999999999998889777,2.64069876813527892878142,0.028391424411822928364213,0.400415583337199121327643,-0.0218369951365549527788623,0.119475219992946968261549,0.0169662855011734337029594,0.0334521017884798557706638,0.0292303802921228018940614,-0.995990387669257515312893,-0.0776532328186445297557583,-0.110700912165241791007553,-0.0246295656362746501200078,10.3914295484548144798964,-0.219090396670557685521175,-0.10292929391617781920143,1.17020897662134637506881,3.73065178672306085871924,4.97620487919787013453288,0.612559527079009735750503,1193.98950620928280841326,1170.20960877648417408636,1183.90919994537125603529,1199.91466987107310160354,-159.020631673911196912741,-1188.98668074252668702684,-583.648963029554010972788,-713.653635648324097928707,154.071985848942716756937
0.364999999999999991118216,2.37890452256935969188589,0.320320365970911680175703,0.554881873373795797554919,-0.0158359409486273049194605,0.120388972712685379806707,0.0187967230083629678605295,0.0335819516138636253721472,0.0292348784357529881128279,-0.995987991665446825706454,-0.0776219936694230311369225,-0.108224869077427413022185,-0.0196622143938375154581522,10.3734616699324231348101,-0.218275582557926006721516,-0.101298755623849753848553,1.1718848172070712720938,3.73101963698323224605247,4.97621448056626469735875,0.615527154276644838937216,1193.54547125597400736297,1167.63628661781740447623,1182.31049861286510349601,1198.2443220360109989997,-173.505792344985678710145,-934.718108196147227317852,-740.011297792033701625769,-704.716363979968491548789,154.07619277944408509029
0.367499999999999993338662,2.05906505052321175952557,0.580110758036827212080766,0.668530830248582619290687,-0.0101123344456544878716686,0.121807050154107213146837,0.0210791493095561638382307,0.0337096685437748497249366,0.0292257724780512206930183,-0.995986072266654254292462,-0.0775920702705200637794292,-0.105694227505731777605469,-0.0144101172603127158922121,10.3544477644825629880643,-0.217441976083236065964144,-0.0996194860844528962129374,1.17348479686634776797405,3.73137947687686244435668,4.97621909570505760456172,0.618503362516042431984431,1193.12197724755787930917,1165.53601823550343397073,1180.20914345641108411655,1196.39108805117325573519,-139.133318918084000870294,-734.182936472824849261087,-908.685609277608023148787,-779.887383066351731031318,154.080531249208746658041
0.369999999999999995559108,1.68631910010743690797597,0.821814380897706420192605,0.737101480402163278249361,-0.00493140082442360908748791,0.12347998400622191284004,0.0233934466662715501161784,0.0338431959506718046948315,0.029201682136690835372983,-0.995984527377682504756251,-0.0775613769196855235010801,-0.103313998124218028862309,-0.008928265154186487695398,10.3345735310091502157093,-0.216613231216252311028825,-0.0978905958044919560778752,1.17499459709414910690839,3.73173203589043511740897,4.9762189447793092611505,0.621486898112578067809864,1192.84980466138358679018,1163.96537193545327681932,1177.76707056647705940122,1194.34488512067923693394,-47.2205536458659054233067,-481.136282368424417654751,-1027.49682364687851077178,-861.746575580490684842516,154.084975025669223214209
0.372499999999999997779554,1.25256946475999386692024,1.0544741397184405062859,0.748744160660226532044703,-0.000889149282589054472739076,0.125112448361952149911147,0.0255745034610641089334315,0.0339868995225327125142556,0.0291620791000439458229287,-0.995983194528078485951994,-0.077529905033272741854411,-0.101209163115491621032227,-0.00328306128677427477846607,10.3140495003534180540328,-0.215803275728614935013994,-0.0961128280682394392497869,1.17640269071139891288169,3.73207852618686919399238,4.97621453354217102571511,0.624475966129067527887742,1192.88587447932854956889,1163.13033682366130960872,1175.07165933817668701522,1192.08235517327079833194,101.716596495816617107266,-193.095675353970193555142,-1193.72755533286067475274,-1020.26448426308797934325,154.089540929560172344281
0.375,0.677383839284589672757875,1.3329567955583190297375,0.703465865659881117721852,0.00250395936418041416965385,0.12712143916053322834081,0.0278016187022968527808864,0.0341397056869817486224328,0.029108152321645628518576,-0.995982037813276988025279,-0.0774978153674773517778362,-0.099384778729739345348726,0.00243275607842841079531127,10.2931046181415979390295,-0.215011570271207680393744,-0.0942894651237949216193712,1.17770155676719445736467,3.73242064930840022896064,4.9762061906700241209478,0.627471458831580175541376,1193.35838764386267030204,1162.99989355868342499889,1171.79843278981275034312,1189.24356269936379248975,239.028546028793954292269,85.917808031126625678553,-1167.52182109689670141961,-1030.25292419192646775628,154.095154529524307918109
0.377500000000000002220446,0.171839005181622539453201,1.55869301669528659282093,0.624794713273216673066202,0.00410683353138298606194168,0.129603952025589913565895,0.0292569156650049934376145,0.034301035241831208388863,0.0290464259617750041042594,-0.995981029026124731196035,-0.0774630021818476233175232,-0.0978419112446706346064573,0.00801612929984314714904059,10.2719767967485573478825,-0.214236431974300478575657,-0.092435045075179508855534,1.1788850078720605196736,3.73276024397415095990027,4.9761944684304042496592,0.630475206937521348571352,1194.08101720947252033511,1163.55992586381694309239,1169.23405023269219782378,1186.93109055231116144569,330.854293811262039071153,334.634033795418588397297,-949.542478861530184985895,-869.855199982429553529073,154.099939453050950532997
0.380000000000000004440892,-0.329085141470863540291703,1.75322525268917828178417,0.513440746077683862758079,0.0041971769733096433302455,0.133411890738891064644989,0.0303628276006528557973141,0.034467540780821120938171,0.0289826125171442627870277,-0.995980089366305998410667,-0.0774255914931222671837574,-0.0965250956129341669553767,0.0132874177191692061095196,10.2509040465701026789702,-0.213468063162554788636527,-0.090561997288898160585191,1.17995126627116952988672,3.7330989186017791148231,4.97618000366445389914816,0.633486582313015023082414,1195.01265911291898191848,1164.67306372766051936196,1167.05072039550509543915,1184.89428669945164074306,408.737539740422676004528,572.059689159413665038301,-837.266989677981769091275,-786.130349812855683921953,154.104828810854201037728
0.382500000000000006661338,-0.878902744280051995140468,1.91042963672185117651736,0.349422175770379206394267,0.00227026890455896438944516,0.139049466597173237980556,0.0314870678926226013616407,0.0346398612323078752828209,0.0289271785608325344985037,-0.995978785416071210612188,-0.0773867564283916842260425,-0.0954521067639195336385072,0.0179658007795062135691921,10.2301137818417053892972,-0.212703930406296148891698,-0.0886947841150303867285842,1.18089990956792911802609,3.73343798403327964408049,4.97616360834218873776535,0.636502728861235045343392,1196.12470490817463542044,1166.42022430961401369132,1165.04771528430228499928,1183.00043880324687961547,364.75767834090186170215,672.180142942351608326135,-620.47204989394174390327,-579.726431988592025845719,154.110808673304461535736
