t,ang acc x,ang acc y,ang acc z,ang vel x,ang vel y,ang vel z,quat x,quat y,quat z,quat w,acc x,acc y,acc z,vel x,vel y,vel z,pos x,pos y,pos z,mot 1,mot 2,mot 3,mot 4,dmot 1,dmot 2,dmot 3,dmot 4,vbat
7.49000000000000021316282,-0.524614259678604977210625,0.753629216507764931876068,-0.467134191634253403968557,-0.0464719645725109181677581,-0.00726181552918774442934025,0.00837046437516969499270658,-0.0014659699828084361058339,0.00422964365255049448699687,-0.109840912139532842495271,-0.993938965960426967782837,0.010877089130441101871849,0.0104481934457451956788088,9.71652606533954354972593,0.00395313409870888879393824,-0.0271702041614358819066055,0.000978599733309487053445341,8.39009172259687474593193,4.98324602820631135102758,1.22332541467883437746877,1135.08488691243996981939,1129.11663594911556174338,1118.90942928524123090028,1120.04111773405816165905,228.046548370371368719134,667.720411078849451769202,527.955594917523171716311,-124.569438941764857986527,155.373508913106405771032
7.49249999999999971578291,-0.496684827135356776750541,0.77088008436679233970068,-0.655235430866454526821485,-0.0475019004792474677789649,-0.0045195577496492198715794,0.00565847708172761022088482,-0.00140450837736173566802633,0.00427139103728003868137852,-0.109830075739755686492494,-0.993940070612319592768813,0.0121963049231090733814931,0.0108025166109411933229589,9.71631214138191268148148,0.00394941193253007648972241,-0.0272438239233990624199588,0.000744079267864210334298969,8.39011123408828041192464,4.98317676806383857979199,1.22332257882371409074551,1135.62796572923480198369,1130.70738538635964687273,1120.09555365376877489325,1119.69689065922170811973,196.658635854286870880969,569.61056526430490976054,382.720333849473718146328,-127.638371609739792233995,155.373803817417723394101
7.49500000000000010658141,-0.45563920704628879665421,0.711648071815437655018854,-0.784646900710018080360442,-0.0481122070975203430798217,-0.00232915310013024614774202,0.00332330079947281515836965,-0.00134181471373110046407806,0.00431230930189312276074043,-0.109806043672942735267561,-0.993942634540343483706692,0.013527088681484160381796,0.011173287972962213029926,9.71640330998956791574983,0.00395981555300935032792875,-0.0273036119038037421169474,0.000514436747326298560861746,8.39013230324641945401254,4.98310953010432378107453,1.2233227865640659004498,1136.06818009171138328384,1131.96468877543702546973,1120.82303095448855856375,1119.40292587600947626925,148.382855397380353679182,450.597598990746121216944,200.991039260511996644709,-88.4300620417750877777507,155.374084890578814110995
7.49750000000000049737992,-0.403956893633432401191641,0.577986916913707071685735,-0.883691744356400188387113,-0.0487939192109643482542225,-0.00057720804819563721263509,0.00114996771844400090881178,-0.00127558572542103799626889,0.00434682869954473687090779,-0.109772359015784096158974,-0.993946293408349279552283,0.0147332982991317182341895,0.0114943385834963777286655,9.71680931583518336935867,0.00398090517102226999074377,-0.0273513909048515961586201,0.000287255733096942404269231,8.39015432150174333969517,4.98304407798359694226065,1.22332589518206980017112,1136.36988000622181971266,1132.9603733813137296238,1121.10050885007149190642,1119.25474034901276354503,53.2352110880322015873389,270.982536841762680523971,9.55371648360617164996711,-7.27790873897917744983488,155.374406980719072635111
7.5,-0.361287397556754541483315,0.435611004688791159100703,-0.930735060314775375367446,-0.0493751313455487797487997,0.000239734566941405408124766,-0.000366201244139483666779206,-0.00120489377516128331850609,0.00437287106130441940304854,-0.109736685074252132698902,-0.993950210645369369721891,0.0157554906225668076014124,0.0117203932800722526730297,9.71754065553029988677736,0.00400849293120058517564397,-0.027389206240090013116939,6.01959548095492712367627e-05,8.39017760424912850680812,4.98297998936626296284658,1.22333063976187572663434,1136.33435614715153860743,1133.3196014596458098822,1120.8707995369065884006,1119.36653633231458115915,-93.2061819061820528986573,48.2525975915006100080973,-163.10169697112888798074,96.0475118158249188127229,155.374663039390640051352
7.5025000000000003907985,-0.315279049020527835089922,0.282028083199989898499638,-0.947481700306731511318503,-0.049939966234221880303501,0.000593757332188728009433887,-0.00202317798741288162878149,-0.00113236290713597358148501,0.00439082478698909865755251,-0.109704968947073239204926,-0.993953724756323930833446,0.0165970004117330857673629,0.0118727398428908424016237,9.71860875366794729757203,0.00403818885552668233041018,-0.0274190646177928272486657,-0.000168460111412742960090155,8.39020255473770504295317,4.98291705749396296454279,1.22333518213738190461015,1135.90384909669091939577,1133.2016363692712275224,1120.28500036521586480376,1119.73497790809187790728,-287.788309752256054707686,-144.448709411020331572217,-299.729617798636354564223,210.419834903636854051001,155.374906341780672391906
7.50499999999999989341859,-0.245763285603350978281156,0.0996228434676618146426108,-0.92734754168531186024893,-0.0506529004280833056172995,0.000695990459792162632045309,-0.00462350926091196351430668,-0.00106292075402126271269077,0.00440398851972477554245211,-0.109681031119595012723877,-0.99395639376059419234366,0.0173302721275928398037003,0.0120150253136560841021874,9.72002547966081920094439,0.00406567418936401841350614,-0.0274427792253644324549366,-0.000399682248724026779884699,8.39022930751480622291183,4.98285490716096823859971,1.22333843225583716041172,1134.89541459839028902934,1132.59735791259072357207,1119.37215144791343846009,1120.41863550683274297626,-442.377212713391031684296,-277.234242467926833342062,-338.254257979004194112349,278.020746628368669917108,155.375183232615057704606
7.50750000000000028421709,-0.1660582608887632982686,-0.0460307292877369308992108,-0.868580785547101275057003,-0.0513177019658546118563436,0.000603165545898939783713011,-0.0073758184421639366723511,-0.00099889515627741404767137,0.00441334510241713634526306,-0.109664696002612763181538,-0.993958229589986252960898,0.0179852799985025166296104,0.0121703381988913662131724,9.72180322923352413511111,0.00408708311585948350086461,-0.0274618618654193097361471,-0.000633887941656538305389146,8.39025781284867022691287,4.98279251113107157777904,1.22334064083380567033998,1133.69196303312401141739,1131.81546515693162291427,1118.59372907532087992877,1121.12508164123369169829,-528.710453256201049043739,-339.31679165189774494138,-280.544704811433405211574,295.765784325119000186533,155.375400914567308063852
7.50999999999999978683718,-0.0527426725117816838639406,-0.183958349306737101169773,-0.760528895658022840997603,-0.0520213766722095738437304,0.000343480113030257040458021,-0.0102397181392343602363004,-0.000944257618153022146127717,0.00441853177819801629100382,-0.109654242565189408153969,-0.993959419347257400190188,0.0185763921554075658870708,0.012401250716626227924011,9.72395378237015783895458,0.00409914442475678778010639,-0.0274775521708169150059131,-0.000870795654416786873812384,8.39028841811049730381455,4.9827297027344554791739,1.22334286984627360617139,1132.25186233210934005911,1130.90077395433127094293,1117.96942792385630127683,1121.89746442845830642909,-641.383416737303377885837,-398.235092787680798664951,-206.167883480888889380367,342.71984601096670530751,155.375604129555426879961
7.51250000000000017763568,0.128355082125536756887385,-0.340767266201018104165854,-0.583163120214617136660706,-0.052647873497947035581479,-0.000236939973807438227079367,-0.0127523682454282194509432,-0.00090034794171802671070709,0.00442205522508757557093029,-0.109648900853922967590925,-0.993960035450677903412497,0.0191732852573440679111449,0.0127181205383999854779953,9.72648642697956589131536,0.00409931649699968921746196,-0.0274909254930455933252365,-0.00110970364751865856189905,8.39032127458598608882312,4.98266667182514133571658,1.2233455171668827787812,1130.48504594943756274006,1129.82428969299326126929,1117.56288965791645750869,1122.83868087128848856082,-617.319377820007389345847,-371.943360717510643098649,-73.6374550299272812026175,342.416024749937719207082,155.375829808865887571301
7.51500000000000056843419,0.313976162882307341384092,-0.463135764075693234786968,-0.412300923119191198296107,-0.0526767148477372618153858,-0.00103216455577846764717076,-0.0138329303994541730898904,-0.000866966147824059572661592,0.00443016191665379296948934,-0.109646682218982480239156,-0.993960270264602208101223,0.0199184198004553267291605,0.0130984064177701899078787,9.72940652628509106136789,0.00408619588106220402862201,-0.0275029812337524645626807,-0.00134934483592424447201408,8.39035519060145595915401,4.98260337257871555038946,1.22334782818701537365769,1129.16526544300882051175,1129.04105715074342697335,1117.60124064870660731685,1123.60954455220826275763,-457.319985121340039313509,-277.74548406851545223617,107.658890490167792108878,301.231699628585431582906,155.376001402250238925262
7.51750000000000007105427,0.522612476295689187821836,-0.573165647707045700087747,-0.240439680522910370630285,-0.0520223871797271530947882,-0.00222197360376694217493077,-0.0142317033207587650966985,-0.000842973031772469537370451,0.00444845528030981662154231,-0.109646151300768782133055,-0.993960260039277621046949,0.0209414666934962315214541,0.0135072843104134757835633,9.73271495493462701631415,0.004059654703901612558814,-0.0275147411279056952615463,-0.00158770769020505982289937,8.39038918727419869014739,4.98254003736548245484528,1.22334914321367627110249,1128.19844602383091114461,1128.43556227265071356669,1118.1011841103672850295,1124.3448393694313836022,-307.631731202361322630168,-212.179072852136386018174,280.205110147068410242355,283.606454992156272965076,155.376154004739305491967
7.52000000000000046185278,0.734902155688494151952739,-0.668812660758105415048647,-0.0820682462935520551372548,-0.0507025873130069471006465,-0.00368786918735326818552522,-0.014173997624276041262803,-0.000826757911828333012273229,0.00447866719833101955411392,-0.109646654138578700243833,-0.993960073376592423421982,0.0222955504128104706196289,0.0139132541880818087071114,9.73640748640311315398321,0.00402093169568176755923616,-0.0275272826026607929372769,-0.00182197824564159292608234,8.390422232901446619735,4.98247724015977500044983,1.22334857138180663760352,1127.62710678699704658356,1127.98016178648276763852,1119.00226619944191952527,1125.02757682716901399544,-122.318375054058250839262,-152.992446113924955852781,452.320811879745292571897,251.337771587082812629887,155.376289210598201862013
7.52249999999999996447286,0.929021689835864528106413,-0.74149405492645414916808,0.048978443450927090785374,-0.0486240032892295906408187,-0.00517356512300035011747701,-0.0136086413923178842222406,-0.000812932074090285164934266,0.004517849143138109001272,-0.109647835885397629263061,-0.993959770103710060773494,0.0239321917094916861157294,0.0142254658123265025765347,9.74047407396392728173851,0.00397261608648045386887881,-0.0275416682186828271072798,-0.00204884489246016498337211,8.39045288153386970009251,4.9824147815216344170608,1.22334511050213379235174,1127.58685414856063289335,1127.67060004208110512991,1120.36278816976596317545,1125.60152822736677080684,100.592457636641810836409,-116.499066290910135990089,685.785220062476696512022,212.565778646426196019092,155.376401160256307321106
7.52500000000000035527137,1.11140731324409225422301,-0.792537830745864368964249,0.170745852155339772338039,-0.0453579303937543046321146,-0.00673559985855967657819576,-0.0126192191808408137737585,-0.000794777529773814644248331,0.00456018024273488475905936,-0.109651254102223802422422,-0.993959212893107846298335,0.0257393523890723854852247,0.0143364851907143726200689,9.74489805607901438122553,0.00391832569824043623618604,-0.0275588504122603918100598,-0.00226466406262931579593256,8.39047987680079643268982,4.98235180331894156324779,1.22333870938089717128605,1128.13006907518024490855,1127.39766645502822939306,1122.43119229975422967982,1126.09040572040112238028,283.496229826784315264376,-94.2193169612457523953708,807.831176770895467598166,135.372750840591095311538,155.376505416069164766668
7.52749999999999985789145,1.20214304907998936755575,-0.79256216600211926159858,0.247933947023022738243014,-0.0418730950028837548004823,-0.00838792646706434247283468,-0.0121538222884663635325886,-0.000769145707393163518758583,0.00459872592893035333355689,-0.109652887157604017609458,-0.9939588792825136964737,0.0275844460688928830305322,0.0142134244802418728548243,9.74965575018998720224772,0.00386268244408457042671223,-0.0275795433664110661853286,-0.0024655668720218694087154,8.39050290072555426945655,4.98228804895510268835324,1.22333005129151350942607,1129.00433529769452434266,1127.19950345727488638659,1124.40194405362035467988,1126.27839198156971178832,412.315782010327609441447,-83.0095103167440839797564,803.182822081925110069278,21.0080133035266882757242,155.376565021312188719094
7.53000000000000024868996,1.21499037338093329729816,-0.727197493865700872461844,0.310632163396977745151162,-0.0379287775765463769372943,-0.0109443424750654445809506,-0.0124746655026248976644299,-0.000738002820884319584056332,0.00463252854132665918551748,-0.109651244196519670470735,-0.993958933102037867080014,0.0294539407397164040847137,0.0139115127401828794079242,9.75471550256308184145837,0.00381026560828523876492402,-0.0276042575085537825185789,-0.00264778935870480826297868,8.39052266201991336913579,4.98222358661143083224943,1.22331897433275815778586,1130.19164798523183890211,1126.98261890344451785495,1126.4471064101637693966,1126.19544578691875358345,561.632876534770844045852,-105.401557040206597548604,870.891594735867670351581,-100.397205492847533037093,155.37659416798643974289
7.53249999999999975131004,1.14251843153184395873723,-0.554004344223876898922754,0.37074304078011072194343,-0.0336595523582581684918225,-0.0144296712028112259634804,-0.0127956383424255807496062,-0.000703468217502500122069453,0.00466136759941020162312242,-0.109646735065440634193656,-0.993959325697662543497302,0.0313410688466250128558777,0.0134885218579583951448164,9.76003939502944106720861,0.00376512697247546098550108,-0.0276332557787530019854927,-0.00280815626589703227697359,8.39054039531778705907072,4.98215877525127037728225,1.22330551341457849368055,1131.8124996803683188773,1126.67249567207386462542,1128.75640202729960037686,1125.77640595410548485233,602.023653034588392074511,-121.640642384138885745415,792.351155890417999216879,-200.847537310214391936825,155.376592103429061353381
7.53500000000000014210855,1.02304576819745340898749,-0.331666912501301425209022,0.394669927465032210900375,-0.0309034472144244128088975,-0.0167410840976881906960738,-0.0121422729884972258745934,-0.00066517658684669966895342,0.00468267105141725089451077,-0.109640245398517410801986,-0.993959970043387874838459,0.033180558458685331657545,0.0129595032668757565580409,9.76558504253732628797025,0.00373049049144331479679892,-0.0276665071063244595583885,-0.00294446838160810448956073,8.39055738095087200179023,4.98209392755289481868886,1.22329060142298451374643,1133.20176625040471662942,1126.3744156915238363581,1130.40886218961577469599,1125.19120810036770308216,534.858692140967946215824,-121.31827537798848481998,579.276274554559108764806,-268.238269530733191459149,155.376558622145722665664
7.53750000000000053290705,0.866577072520045454950832,-0.0512125466339457130482415,0.363954383914768142549434,-0.0289675289027378560224868,-0.0177058898294222208380511,-0.0103441808430681722597022,-0.000622278116148470921385749,0.00469297525606151514493414,-0.109630265227736667377201,-0.993961048994645657295166,0.0348819843833241202690765,0.012331893983611565482339,9.77130683883948947254794,0.00370869989248942067208703,-0.0277036454696664852237475,-0.00305563000276810013688955,8.39057478365584863411186,4.98202918908261427333173,1.22327587534141035696678,1134.48679314107357640751,1126.06590429518382734386,1131.65278340007284896274,1124.43521460645160914282,513.364523967185959918424,-124.039619715543182110196,442.445284810092175575846,-348.67996891021738292693,155.376491628342506601257
7.54000000000000003552714,0.662790303118213852684448,0.307647582110605000149661,0.238677881919886175632328,-0.0273495183097189065168919,-0.0170471439422980632072413,-0.00769508126712139996911111,-0.00057640464101391217666831,0.00469201076170626396599772,-0.10961497545856624391547,-0.993962763326013853948382,0.0364166227847376663961931,0.0116534673980650746449861,9.77715681065179609277038,0.00370105023643740004002378,-0.0277439778639953470162904,-0.00314158852292935504568749,8.39059289163013133361346,4.98196455200310150956966,1.22326217163458106362839,1135.76858887024059185933,1125.75421759294613366365,1132.62108861366618839384,1123.44780825581665339996,413.737677172148039517197,-90.4188125281526708931779,272.80188896125434894202,-357.47118141676617142366,155.376372517402103312634
7.54250000000000042632564,0.493629998310196604904831,0.590569304680002571394937,0.0588414807304060497039622,-0.0263352980277051611224248,-0.0150795680455580727308273,-0.00579326587079580668931955,-0.00052938475361779993143968,0.00468162516949197689969386,-0.109595317507311232341216,-0.993964999861388420754338,0.0377931535674197668916996,0.0109693586241868742958694,9.78308647173515133488308,0.00370770683809860512186729,-0.0277864901090224998558842,-0.00320332756351218717050244,8.39061208600160846060589,4.9818994004245285012189,1.22324940978927498846929,1136.55548152693427255144,1125.61381023254307365278,1133.0167928448790917173,1122.6478586993678163708,253.117778723668322982121,-12.3354126121287563933038,90.2393954022064548325943,-296.504627164410464956745,155.376241447145247320805
7.54499999999999992894573,0.33462417667658483910742,0.825293133801865086418559,-0.176287290101073829129419,-0.0254875162165776360245761,-0.0121642741769319648326153,-0.00492178553373592755221244,-0.000486101905902987837648083,0.0046666280829723927672803,-0.109572026494768950954928,-0.993967652536938417462409,0.0390819318176177307733177,0.0103756627738757871426412,9.78904816879277639429802,0.00372799459422461666041615,-0.0278298916966184910204429,-0.00324255152761584401061024,8.39063255241864602851365,4.98183335620511158481349,1.22323743466199230667257,1137.03417776385890647362,1125.69254052988549119618,1133.07228559067721107567,1121.96528511999463262327,146.846603802626702872658,81.1441704913721935099602,-17.7868375209531386360595,-242.982434360515696880611,155.376078379585436550769
7.54750000000000031974423,0.187763223500986398128987,1.00972223431028429452283,-0.423699830899806506590011,-0.0249052752613871490605657,-0.00920226065130804078695537,-0.005383138072757528286294,-0.000448315256767053060479866,0.00465512535901657122094921,-0.109545659132321560047529,-0.993970620917744129840798,0.0404098978275773332291543,0.00989824244706896498591231,9.79499627653287952000483,0.00376055401255552101263957,-0.0278727019685351302957788,-0.0032618640906331448220401,8.39065468470199604666959,4.98176616117218884483009,1.22322670246854814379844,1137.28971454594739043387,1126.01953108499992595171,1132.92785865727432792482,1121.43294652756526375015,64.0346667846201853535604,201.578404974229414392539,-89.1325507649999906334415,-168.170278890287534068193,155.375889689829136841581
7.54999999999999982236432,0.0586239942742733943781275,1.13584293321166374113318,-0.636017855032991685781951,-0.0247191037007955839721607,-0.00675822395365018903368171,-0.00759880405810590790760539,-0.000415903661574598400123282,0.00465194549442156640023383,-0.109518225793810417001417,-0.993973661401079233712608,0.0418366406431080542493994,0.00953058335553422231178899,9.8008894526148875314675,0.00380348552217871531053173,-0.0279134550796345907996976,-0.00326443445872815363878461,8.39067912105499758013138,4.98169813195042632258946,1.2232177004271949094516,1137.35435109778200057917,1126.70043255475661680975,1132.62662283685222064378,1121.12443372554321285861,8.88748774800679619545463,384.957776658765396859962,-157.570457966133915306273,-77.972513958549669155218,155.375671002411110066532
7.55250000000000021316282,-0.0732790602791966172446791,1.22817492847907128172835,-0.79415225999863880979035,-0.024760118535710660958582,-0.00394758682881348951787537,-0.0115941349190045485395562,-0.000388071399112161917379499,0.0046588125341210477603493,-0.109492588535375440228492,-0.993976452539756083481848,0.0433612752508348089919288,0.0092569941763903061671126,9.80669114106026640342861,0.00385463964069595937597668,-0.0279508961065480232566216,-0.00325369586205524795666233,8.39070588650736937097463,4.98162972075418419848347,1.22321103611993331483632,1137.33415198468742346449,1127.94431996829371200874,1132.1400063674436751171,1121.04308395777252371772,-6.4125065430290764112442,521.214578349656449063332,-199.276745971432916348931,18.8717663193987768011084,155.375374686273573843209
7.55499999999999971578291,-0.162773371954849227494222,1.25764405189519679062471,-0.822450941478548913643465,-0.0251130835130504159735665,-0.00100345561057630944939989,-0.0150288154486293845657485,-0.000363774922151108705097033,0.00467126592364246976535336,-0.109467550497592561176141,-0.993979149058796362936619,0.0448640493414382349190994,0.00906842920532251704768267,9.81237030853176861455722,0.00391221147321212017050618,-0.0279840999737973293581828,-0.00323296961493635360770926,8.39073396715365582565482,4.98156120144177361197535,1.22320677959196766337868,1137.32228856506685588101,1129.30650544650484334852,1131.63023910699507723621,1121.21879255714020473533,11.5775432990178810399584,595.961104417314345482737,-231.284666900460621263846,116.421742032619235374113,155.375099820320485832781
7.55750000000000010658141,-0.230373750685154449202585,1.23542830761771194048038,-0.742169083365606940816406,-0.0259450334774266599957571,0.00243797441819808930960067,-0.0177051295579216637354758,-0.000341880766016561840441035,0.00468233255243944140183698,-0.109441945359467315834756,-0.993981915353889244890695,0.0461785134147699935502906,0.00895770302652381354702182,9.8179002832236701436841,0.00397472131747359912895545,-0.0280125842312455956839568,-0.00320514882047506473664034,8.39076199555444723898745,4.98149281702079527178739,1.22320479872248033537119,1137.39203970118251163512,1130.92412549038022007153,1130.98358303294139659556,1121.62519266793560746009,56.2032977302263532237703,742.975913290795006105327,-322.520767335522180019325,221.462013298161707552936,155.374796006302233308816
7.56000000000000049737992,-0.289946531566294685156038,1.15076804424851486530201,-0.5432672647205296634354,-0.0271036887317736042979366,0.00628432826633212610750734,-0.0198200975128618242515621,-0.000321909457696784116059741,0.00469071388330696750074145,-0.109417766470591898420039,-0.993984540921751924535954,0.0472532001603783377574608,0.00891658794848182098546907,9.8232560824597108251055,0.00404086388511503812742687,-0.028036344503819778800624,-0.00317242799722838690612559,8.39078915651627887939412,4.98142454667854739369659,1.2232040959316397010781,1137.60330505371803155867,1133.02138501295939931879,1130.01763527031721423555,1122.32610262363118636131,95.3672021245913441589437,771.36891521628797363519,-386.03347992403456601096,282.915761219652836189198,155.374397619724987862355
7.5625,-0.329304228355931816185631,1.03883162395167638614168,-0.315977852788334734324138,-0.0278656606638920632812439,0.00911890201120415730406954,-0.0207677846850095812469839,-0.000307162823897783585948285,0.00469977517264668926549875,-0.109396134200236833100561,-0.993986886256138957307371,0.0481392448693387028924029,0.0090001993162213116822512,9.82841333847449760696691,0.00410967403482013181326149,-0.0280557978007891957450415,-0.00313586316727507575380374,8.39081553744762231872301,4.98135694614122570555992,1.22320389148545416446723,1137.86887571180545819516,1134.78097006646157751675,1129.05341563332126497698,1123.03977147403384151403,113.160370207972533762586,676.329253223380760573491,-411.742379830465893064684,301.289785216028633385577,155.374036942881360801039
7.5650000000000003907985,-0.370231317488798672421524,0.896811792328293777565307,-0.0541076484366566218264794,-0.0283482223538244898497496,0.0114067374082768221987827,-0.0210401248869990474543723,-0.000293762633755035793003962,0.00470896108654347313182686,-0.109377984455639523653225,-0.993988850120859690484565,0.048799369231164492488606,0.00913182892092976282449879,9.83334876081677400350145,0.00418042912881917087114525,-0.0280716312226799540041622,-0.00309573068238483753433776,8.3908416715549183351186,4.98129006392358952837185,1.22320281552445386807904,1138.16910690475788214826,1136.40303127907623093051,1127.95892337116492853966,1123.8325515497112974117,121.911151605629910932294,647.492486329215466867026,-496.53020626147883831436,356.348649091349557238573,155.373645603591853614489
7.56749999999999989341859,-0.431909377831034169137325,0.70863595667863521487817,0.268799760894024630797361,-0.0288518824691058606290994,0.0132908709777186384570768,-0.0206771437500220846283927,-0.000274307994181088312616451,0.00471626017737147157360411,-0.109363777994743185950632,-0.993990392275420187040424,0.0491638370720024128757153,0.00916934991659326334434432,9.8380381933851932529933,0.00425256778019068599344665,-0.0280847020903389754664659,-0.00305139967816271760053803,8.39086795508678662258717,4.98122370057869190418387,1.22320038842252087896156,1138.47843146983359474689,1138.01843249810758607055,1126.57076460201392364979,1124.82151471949055121513,92.0561832357199421039695,515.328585332065017610148,-508.901355618865579799603,362.315021306229482433992,155.373139577213123629917
7.57000000000000028421709,-0.495355280776795969810422,0.546860182938121774931517,0.523654614514385885470915,-0.0293778133254632596582656,0.0143429785797271960867683,-0.0197585529610467373895499,-0.00024621111628573286514432,0.00472275875338929503749474,-0.109352827978616479187579,-0.993991582275833951420907,0.0492375376824951901943983,0.00905882624277845951987764,9.84245431104652013232226,0.00432566451416762764309309,-0.0280959784279550504881851,-0.00300111937647419470959198,8.39089368107467059587634,4.98115758808728692486056,1.223196067747745141574,1138.62938782093647205329,1138.97967420573650088045,1125.41441659307065492612,1125.64412665624240617035,26.9976331346248414888578,287.799440080931844931911,-448.704462550913831364596,321.431426699389305667864,155.372687203844947134712
7.57249999999999978683718,-0.563911924598810010422767,0.384757610792826165724279,0.738634987093152339809876,-0.0301554999296302500555456,0.0149206654872825784929891,-0.0180679195154791888411339,-0.0002085590182541151044876,0.00472522703371216264839338,-0.109344222185145889536528,-0.993992534586858211831384,0.0489483486107529161546204,0.00878933842680120445967074,9.84656730721716400012156,0.00439936985675217721164509,-0.0281064552279046732385925,-0.00294235350624599042296259,8.39091869761768371915878,4.98109181166120063011249,1.2231894033752177541885,1138.61341963550671607663,1139.45742969851221459976,1124.32724228925940224144,1126.4286718529874633532,-37.6000474877408876750451,108.105992785933750610639,-414.035846111810030834022,301.619459380624050481856,155.372203113094485615875
7.57500000000000017763568,-0.624440611422369395988596,0.219886931323353879141891,0.902727708394642114342332,-0.0312871366594112132464289,0.0153543940615688701695207,-0.0156676699965142829373832,-0.000164651219544912936088715,0.00471903787623057738992438,-0.109334839144942769229019,-0.993993612877893673029916,0.0482097775801205927215243,0.00843676772014819061074054,9.85034371634135119677467,0.00447340302557704821984075,-0.0281170729440293303003084,-0.00287201713126025801742225,8.39094364542852488852986,4.9810267549151729937762,1.22318107376669882313536,1138.44138758349777162948,1139.52020416966615812271,1123.3442373625116488256,1127.15222395314549430623,-104.255519514692494453811,-66.4939320234576172197194,-355.835087128197130823537,266.673526390881477254879,155.371693219285702980414
7.57750000000000056843419,-0.654703024358769924972989,0.042715110503297487598573,0.988704353348373143894889,-0.0329944439019716137528881,0.0161701637838300368854583,-0.0125759628427284005092179,-0.000120869276129663877393863,0.00470487687583089758680543,-0.109322138367624596688721,-0.993995090727611274594722,0.0470500837264313589991538,0.00812683389646763794378348,9.85374493165699227859022,0.00454728857349346281269131,-0.0281286279238482962716805,-0.00278696838037760432488232,8.39096879688812435915679,4.98096276118827763212948,1.22317118656451651048656,1138.09214203793317210511,1139.12496003839487457299,1122.54806685361813833879,1127.76203948494207907061,-184.766715752497788116671,-258.398583447120529399399,-288.468444735378170662443,232.20603940645145257804,155.371153300985156420211
7.58000000000000007105427,-0.629099820407742371664028,-0.19257553800212562356009,0.992811884106949760209204,-0.0356646815813302098252535,0.0172910268739456945974453,-0.00867784550820014863314888,-8.07656900754290810661926e-05,0.00468364257696866209679243,-0.109307304184212611408711,-0.993996831725928786660518,0.04549993979932148019385,0.00792962892761474823222212,9.85672894023072387881257,0.00462020608667087356868919,-0.0281416361461520395104152,-0.00268455451030720796887219,8.39099373251870517265161,4.98089967322334992161359,1.22315918569996995302063,1137.51755400473530244199,1138.22821125243058304477,1121.90189513883478866774,1128.31325415017772684223,-225.322319734327976448185,-380.503500222865966406971,-170.487594937962057883851,167.352698990502119613666,155.370472719593664123749
7.58250000000000046185278,-0.542618367033844584135238,-0.402108315563802998227061,0.919190312602718662127188,-0.0380506068230792374174065,0.017628628892367183972345,-0.00568149990895582251287932,-4.27162985501361398615536e-05,0.00465724862442365005604783,-0.109291504815041018439103,-0.993998697587322732616144,0.0436033507934690464646899,0.00781186958143696708045667,9.85925127509167964490189,0.00469119251850013199711675,-0.028156152626917497344694,-0.00256307038524684633468143,8.39101850004968952134732,4.98083632887723570803473,1.22314558154022190450405,1136.96553043926155623922,1137.222442537280585384,1121.69562887892834623926,1128.598802979894571763,-218.862760095685302985657,-434.959292474841447528888,3.02248509083262506536016,77.9243495176632023913044,155.36988026811422969331
7.58499999999999996447286,-0.386342907497431498065055,-0.601205513071761066257181,0.785240752260293328745888,-0.0400861878557342565798649,0.0167448974595358138217627,-0.00346375107936870057015466,-5.003298403885679936174e-06,0.00462949886605985329313118,-0.109274272550740167431194,-0.994000722170286898915492,0.0414459671499399148753007,0.00773429567826743047387339,9.86126649299084867550391,0.00475918679371820172591123,-0.0281717345808911029392263,-0.00242180500039532089345817,8.39104332223191917705662,4.98077187308008983990248,1.22313137031747376504143,1136.42324020425689923286,1136.05341479005642213451,1121.9170075642889514711,1128.70287589776603454084,-214.670742279581673983557,-532.262751935570577188628,208.7613161166745214814,11.5006407052080881214806,155.369264359309283918265
7.58750000000000035527137,-0.135675730169286884452262,-0.785642964478790006843667,0.586876427304093839509846,-0.0415804341509424871259348,0.014023298660488096520349,-0.00189419114371138018297624,3.61776346957297121405446e-05,0.0046033145530504481629519,-0.109256193277872559743713,-0.994002828771710866817557,0.039096491724211070162287,0.00761784221005255661463007,9.86273079979983968712531,0.00482283669123622932978224,-0.0281875491148528868612377,-0.00226132543287244471355568,8.39106835389184801954343,4.98070572736371186550741,1.22311730091430903577532,1135.89217672786367074877,1134.56112877760278934147,1122.73943545951169653563,1128.65630618342061097792,-161.249645414549178212837,-549.857677473449143690232,394.677569098220601517824,-35.8265050401776861122016,155.368501634006491940454
7.58999999999999985789145,0.102001686140707634176117,-0.864909036626361982236233,0.412615167907369517763527,-0.0415197567849729318179008,0.0105934960480764464585413,-0.00125620283418828885754759,8.1634161976245321352269e-05,0.00457822071944424292821996,-0.109238916576398600866149,-0.994004840049730442608222,0.03656831182684865816368,0.00744843392326672085190786,9.86360481623977669585202,0.00488045691027715750065497,-0.0282026040065307855020382,-0.00208325140935799145436302,8.39109394412355058534558,4.98063767952638780656116,1.22310417660354953106605,1135.61699197718417053693,1133.30412640268923496478,1123.89039540978001241456,1128.52374337256514991168,-66.8398263503164002941048,-490.412692750179758149898,542.058635311161879144493,-59.3050253335162693701932,155.367848698353213876544
7.59250000000000024868996,0.337082928385592950348837,-0.849650139254457981152768,0.248134830731359223854327,-0.0402414505227939103826351,0.00690031651990590487455446,-0.000847153911685451536592306,0.000127600697383987104170655,0.0045531243706605061677406,-0.109220605378990823219887,-0.994006964604362330817366,0.0338772740035500827260329,0.00730226676841385508032189,9.8638552912534311900572,0.0049302573958796662434434,-0.0282159659776714602519299,-0.00189018489185469214242108,8.39112082870249409438657,4.98056860957389435640152,1.22309317537491102356739,1135.55797759611209585273,1132.10906531385194284667,1125.44972863606744795106,1128.3597810567530359549,20.4189450147173197080974,-489.260044074454924611928,740.724802342781345032563,-68.3486338652088392109363,155.367180298530911386479
7.59499999999999975131004,0.58743763637924284459757,-0.734560564640214685994124,0.0744270375076611367948232,-0.0382164153857496163846363,0.00342405147801042421609741,-0.000492179594200179977396548,0.000166765694336206890795865,0.00453248258760136860795464,-0.109200974115815779841299,-0.99400921365839767229744,0.0311600001625527769921753,0.00731171200741922815147245,9.86345612940418270397913,0.00497012126899080714653723,-0.0282270227979745449986559,-0.00168570366673486066524945,8.39114996624311082484837,4.98050000561190486791929,1.22308448028664762397,1135.71908670225775495055,1130.85782618231701235345,1127.59401942149384012737,1128.18200020323911303421,86.9725211704481182550808,-408.718658771349112157623,789.075002904990924434969,-60.3556108317674571139833,155.366362899395340946285
7.59750000000000014210855,0.757864097087476817904417,-0.585639742424925113795098,-0.0446743447515020389304574,-0.0365924543046704867088614,0.00170977061431963118544319,-0.00043351153497465564311264,0.000195927645860966606053064,0.00452096567049173423541442,-0.109182428369887715713382,-0.9940113010408672122864,0.0285521063813855904833794,0.00752658633660677547916329,9.86239138355204048025371,0.0049978038343405552929033,-0.0282355637993138494645784,-0.00147444689297711794759294,8.39118130260438377376886,4.98043270037397789451461,1.22307802997979297998654,1135.99284020196432720695,1130.0654720199952407711,1129.39510365059231844498,1128.05800300259420509974,121.485970962457145105873,-241.307811757504651950512,661.830254239508803948411,-51.4567281613300622211682,155.365670591381444864965
7.60000000000000053290705,0.879882131917679943811095,-0.423886389901384830203313,-0.130642451892833855175979,-0.034958112760462491108715,0.00117945438490439885419192,-0.000721514685685703776978073,0.000216124282309456728929514,0.00452321218019084616418501,-0.109167963905971387994498,-0.994012876053440019852303,0.0261822545201032472195202,0.00791246698802643491643671,9.86065678084508334677594,0.00501137974948659935259254,-0.028241718210400598709775,-0.00126184671278881262689031,8.39121376706490451624632,4.98036661363869725960285,1.22307393435692013383687,1136.32651655707013560459,1129.65128712352930051566,1130.90317069269190142222,1127.92471656243242250639,133.080574867429390906182,-89.9717862905182386157321,507.218105767753399959474,-64.2113659751444174617063,155.364968371141742409236
7.60250000000000003552714,0.953628796548168344848762,-0.280237039880951999126779,-0.184544334354597022729294,-0.03287695408150969472727,0.00139454710721351291154158,-0.00132230313444074861449484,0.000231866672525172194804441,0.00453948653665423463438033,-0.109158571592100406277837,-0.994013827553085205224193,0.0240875761400628704556048,0.00837542791714510244382996,9.85826145068302217566725,0.00500967658594683121903168,-0.0282458129226931947686197,-0.00105373787837080221119201,8.39124669158979941130383,4.98030156304608162542991,1.22307237921312905726268,1136.65824307630145995063,1129.61561308854265917034,1131.93119417943103144353,1127.73694617271848983364,128.676152015535109285338,79.6277675966865530199357,247.697785612586642400856,-98.2115656835524504231216,155.364258954813550417384
7.60500000000000042632564,0.956377389443470948826587,-0.180121829683756562445751,-0.196491009767608248992588,-0.0299682804673105547543788,0.00206372976161605520273312,-0.00223599103994936120043402,0.000249064706849909671577958,0.0045688334576040184886736,-0.109154539927707280866365,-0.994014127964580884722068,0.0222786965866087274812379,0.00879589369614176483369583,9.85522770278057080872713,0.00499234640448995795752873,-0.0282482536557090088691346,-0.000855986249968643860691619,8.39127942660101666660921,4.98023706242865316085044,1.22307415532108931799371,1136.96989731714779736649,1130.0494259615127248253,1132.14165962075480820204,1127.43365873401467069925,142.012086996104102354366,280.197556923309605281247,-130.585946775821014398389,-163.800435193437664338489,155.3635418467618478644
7.60749999999999992894573,0.866992755490756827896348,-0.116064733085041421611905,-0.164955226591836284777415,-0.026161934235008465349237,0.00261078288914956720134786,-0.00338928988103849799032319,0.000270040192995879243294949,0.00460736927363943754576425,-0.109157810983759248624203,-0.994013582355406821733368,0.020715607322560759817609,0.00912987384026827004934734,9.85159112079742627088308,0.00495977956564550622603482,-0.0282494431938276370497309,-0.000673821617897118791025435,8.39131110404720814699431,4.98017258170987275889274,1.22307851308269799339712,1137.36830351128196525679,1131.01660087315917735395,1131.27826444555194029817,1126.9179439967513189913,165.391742215346198463521,399.807538923104743844306,-500.004263294896873048856,-208.687273507944070161102,155.36267338062225462636
7.61000000000000031974423,0.718914293663338921369643,-0.0994499252629515995138831,-0.109262930254311788069721,-0.0234969472174077070869558,0.0024182088569085886074761,-0.00403131022093984690141122,0.000289146770321562071245913,0.00465142201584012489334885,-0.109167548701971081626105,-0.994012299439099744624571,0.0193773171099310623222145,0.00948813714453561676820392,9.84739923803212136022012,0.00491327758575717081501733,-0.0282496603918638948538256,-0.00051129168008771767612447,8.3913411859269579906595,4.98010821213975507504301,1.2230841228657569619287,1137.79685602822451073735,1132.04846365612820591195,1129.64163830428037726961,1126.39022236647497265949,213.324425101795895898249,415.125963211093903737492,-806.352321428556820137601,-217.076112858062600707854,155.361943516303398382661
7.61249999999999982236432,0.513361450970409860516952,-0.101844141477955937857836,-0.0404870159693657277744094,-0.0218416596987825173403763,0.00179473215609832204009422,-0.00410783052520349682701362,0.00030296028843642850911233,0.00469911601049412871317079,-0.109181166599421716756346,-0.994010571328418968128915,0.0182696304724098632088491,0.00993278378082380203339952,9.84270993410548022950479,0.00485482572753470707077605,-0.0282489915756183665451751,-0.0003716240544994078940505,8.39136992262010572574127,4.98004413158163483643648,1.22308989438395343540833,1138.43492563679092199891,1133.09223068921460253478,1127.24650283840924203105,1125.83256343246102915145,348.164983751128772837546,414.064362659118785359169,-1147.34050833233322919114,-232.755671728641999607134,155.3612075734333757282
7.61500000000000021316282,0.232205925920025230135835,-0.107756810326919763576292,0.0347936180847288889506075,-0.0209942696415637009010879,0.00101459604492304487216581,-0.00365732474212778369687671,0.000311368058816156986681051,0.00474852206090791567616449,-0.109195660642313424615324,-0.994008736971238926471983,0.0173854465030799584801535,0.0104597035693384243781878,9.83759007612703939571475,0.00478683419058410601631959,-0.0282472766527353084942131,-0.000257197745970667748620364,8.39139775674612664602137,4.97998014096986452159399,1.22309533061289976707542,1139.53768094698011736909,1134.1187854694237557851,1123.90493576261883390544,1125.22644400783178753045,462.615256865056664992153,315.788299707316923559119,-1230.29923344109079152986,-200.379756604483816317952,155.360317428992516397557
7.61749999999999971578291,-0.00744534013605928357559804,-0.106941502906689620000513,0.0785291707677248512764479,-0.0210588615625910656470321,0.000494562011265979833800344,-0.00303247125793699870768827,0.000317684778958334293995358,0.00479456534515693578307749,-0.109208317141598051924767,-0.994007118600253813944789,0.0166432330579348794485917,0.0110029086901787063329516,9.83211408174513401547756,0.00471195087799056167021661,-0.0282440631072329410844457,-0.000169555965304024673602143,8.3914246183833984815692,4.97991573428105382959075,1.22310034736830530732732,1140.74800192111615615431,1134.67117218775115361495,1121.09500667120391881326,1124.83066464943863138615,527.45043857545385890262,150.826572709960174734078,-1042.98236935489921961562,-129.772794357361846095955,155.359569592495660117493
7.62000000000000010658141,-0.229487353540623800762788,-0.0959230197690796176912542,0.0944324019587981372536589,-0.0218327448171596223691626,0.000151451873038559967380931,-0.00247233497494767128291326,0.000328738798712143484408166,0.0048305878217680042405191,-0.109217344172765767895683,-0.994005945290340697795273,0.0159170085050281059912969,0.0114295500359488343133929,9.82636159410334286690158,0.00463289369983283481901903,-0.028238604331355394994052,-0.000109531697260804085922517,8.39145030796895241564926,4.97985086733934156910664,1.2231051152699978779026,1142.17493313985733038862,1134.87291833297354060051,1118.69002391584444922046,1124.5775800360449920845,634.332696517541080538649,22.9925511864130811545692,-883.025023142543659560033,-82.1289476261298574399916,155.358814979338774264761
7.62250000000000049737992,-0.457519227920120896691003,-0.0699137697335996816105919,0.0808178355374147283640696,-0.0234636695302966845344539,-9.80083233726228015940396e-05,-0.00192727510329608348743635,0.000351939022693316578855455,0.00485080829657615064665066,-0.109221144887176754845193,-0.99400542117710088962923,0.0150905603157734310992844,0.0115921797390238986991129,9.82041500855188864704814,0.00455234488664942732460972,-0.0282298779192697614492946,-7.72062816824660544563763e-05,8.39147466034779654364684,4.97978549718926721823209,1.22310985770102709224716,1143.91966540370435723162,1134.78613494368323699746,1116.67988155549051043636,1124.42001991130791793694,604.084683827990488680371,-65.7798343163008638612155,-552.296381921053580299485,-39.9474159738937828478811,155.357900717397171774792
7.625,-0.60945255764331063286221,-0.0376460427497987623612907,0.0459659984339537419639754,-0.025123061086396242941321,-0.000218933757107458553661447,-0.00145798409542286541533407,0.000385088499896282094019789,0.00485595367906621264153522,-0.1092189547245352582161,-0.994005626299565459014218,0.0141891940075961967004936,0.0115156047703891765282558,9.81435659492898793132554,0.00447274841746980473394801,-0.0282166283956755900574898,-7.14856638185649333541716e-05,8.39149797038908928925594,4.9797191856372808871356,1.22311388622701544548477,1145.19535655899721859896,1134.54401916139204331557,1115.92854200623924043612,1124.37784295617552743352,425.346645476756748394109,-105.744266485000920852144,-92.091708522732147912393,-4.290422919893990716389,155.357130704854881741994
7.6275000000000003907985,-0.722411441913131668890458,0.00558453772722691029611886,-0.00428508977144718278262658,-0.0266909405026322585352538,-0.000296944394052504596990399,-0.00111353311981034252056699,0.00042117878671360861738901,0.00485076518052477822368074,-0.109211097305829937798016,-0.994006502900748878381876,0.0133207277653002650885661,0.0113085441711596318414834,9.80826706709162543518232,0.00439613299106522779219342,-0.0281974457528753399970789,-9.04043557262444242347138e-05,8.39152106479745718559116,4.97965163234904206746023,1.2231163772939506184656,1146.04639863108809549885,1134.25741361125824369083,1116.21942301287685950228,1124.39856779670844844077,243.402496764889036739987,-108.149397676381823885094,279.225557728210844743444,18.4495583871470749670607,155.356350995009876214681
7.62999999999999989341859,-0.806067167548440099977825,0.0577295003214205182384688,-0.0567399873117306677294813,-0.0281578329414297473531903,-0.000354137914036226292627263,-0.00107198324635829475223736,0.000456624548228155022547292,0.00484147198602526401128854,-0.109199413867845249170863,-0.994007819361831690407882,0.0126089359497282768596271,0.0110088632389127340227564,9.80222438774513094017493,0.00432398322808354336477255,-0.0281709223525802854304345,-0.000131714398093748673215092,8.39154452997224531429765,4.97958226179672447386793,1.22311682039341174110803,1146.4123690428216377768,1134.00327217301014570694,1117.32466979488026481704,1124.47009074811126083659,16.6964118056061039396809,-90.6731081049221074863453,602.055087313523586090014,44.1555334499308003159967,155.355562124728891149061
7.63250000000000028421709,-0.855146950923380444464783,0.119106846045338263251345,-0.0961039957716406378906981,-0.0296645875938351261114079,-0.000368074743513813586529015,-0.001509411880610190236085,0.000490968652730028928127259,0.00483430386412268039281193,-0.109187067544137192398601,-0.994009198962854001457856,0.0121659320764871195508228,0.0105935750108196377605729,9.79630269116207053059497,0.00425722778630832892482472,-0.0281358904126144740431847,-0.000193105271085246212210695,8.39156854171160304645127,4.97951092150451213314,1.22311553319597599021051,1146.12988069011612424219,1133.80404807073364281678,1119.22969844944441319967,1124.61934546395809775277,-262.285047349092678814486,-89.4332677971779901326954,951.837049903653905857936,86.6216560228185983305593,155.354760643293587918379
7.63499999999999978683718,-0.866752628311822981288515,0.197867704977986003100909,-0.109768762292400845481666,-0.0317285232220870169750349,-0.000256854767346153460387537,-0.00254984724564488555997865,0.000522383603704778295799549,0.00483482641238465807309588,-0.109175401351966044893871,-0.99401046952235305731449,0.0120897969457355938804888,0.0100692649016636721903684,9.79057140401170222787641,0.00419644318175815822513641,-0.0280916927978831672263471,-0.000272216516968571016748396,8.39159304225908719843119,4.97943824555459624292553,1.22311292948442185135605,1145.100943806076202236,1133.55610583402426527755,1122.08385504439843316504,1124.90319902822534459119,-466.400912005984480401821,-111.474778273489036450883,1077.81994529511871405703,119.74738645713188134323,155.353781999598936636175
7.63750000000000017763568,-0.825829761558278696575996,0.260064233933821109534534,-0.0858482381166515429171682,-0.0338080644577725963895176,3.87655540359878764437515e-05,-0.00363549715814218696655069,0.000552243482078754090863759,0.00484295514677722180318931,-0.109164941078561436582639,-0.994011573613119980841191,0.012358834342466269717864,0.00939492594254053708935359,9.78509528370571146638213,0.00414184719253988392617671,-0.0280384577923689058687184,-0.000367026834097759454330484,8.39161810230298321755527,4.97936533998866526218308,1.22310989771734091036137,1143.79787613008625157818,1133.24667417936620950059,1124.61879817591989194625,1125.21808239624374436971,-571.895470304299806230119,-166.977465654619038559758,966.884816478008247031539,134.559308762733849107462,155.352950552479825319097
7.64000000000000056843419,-0.716626212460662936898359,0.305111110736678958765822,-0.0287573508330509278185794,-0.0362151493806987523349505,0.000691328451505211424854558,-0.00438560773639889815711523,0.000579776565363868839377004,0.00485369468358989517020596,-0.109152264059841269672191,-0.994012910709753616522733,0.0128586810191436765049566,0.008586032536628852851468,9.77993395024080314215098,0.00409354806595444310063359,-0.0279772223552788197598051,-0.000475679019323327508233373,8.39164292162604574798479,4.97929328797612047452503,1.22310709785705684637946,1142.24146645455425641558,1132.7212185057510396291,1126.91827912678922984924,1125.57599557203911899705,-693.389056101992764524766,-291.555309926576967427536,874.042680890870997245656,153.934017976783792391871,155.352100157423819837277
7.64250000000000007105427,-0.494996138779421002151793,0.320844818298980483106675,0.0588914877454173868454035,-0.0391126221876922156028833,0.00203650989718450262100369,-0.00421629996733442063971964,0.000603051456983313559530313,0.00486547868271203394485713,-0.109136911278434431404882,-0.994014537759396188398853,0.0135433899105774843696359,0.00767839272374178094526798,9.77514046465376118533186,0.00405120661353171752222524,-0.0279099757020539671059645,-0.000596642343492724699059726,8.39166772691122098137839,4.97922272026465684291452,1.22310471198797898750854,1140.330930849576361652,1131.78889762973335564311,1128.98901158037415370927,1125.98775248612764698919,-676.099862771994480681315,-384.25406179413494101027,599.352768326993100345135,138.14037901907181549177,155.351054683460262140215
7.64500000000000046185278,-0.237046335855552153804027,0.290930149085228295646743,0.130354014663819600672312,-0.0414155914112198930698838,0.00364192899956327156840707,-0.00329460940021081239922895,0.000622323675579473370098049,0.00487724466551860309782018,-0.109120977869380186842108,-0.994016228301566551195378,0.0143720649614316672848524,0.00667054040479107476779852,9.77076168199759109711522,0.0040141118496609101001793,-0.0278395022342942666249144,-0.000728770987907663555724347,8.39169266793667212311902,4.97915418401781817436813,1.22310259654374031690338,1138.86096714069435620331,1130.79994819678040585131,1129.91504296842413168633,1126.26669746713446329522,-534.127134753373411513167,-412.546346975486528663168,178.466924655962600354542,91.2620209547204837008394,155.350160200477290572962
7.64749999999999996447286,0.0747033540114382527130843,0.213557993829071451896695,0.186149877844786731939664,-0.0429607787924276285362879,0.00549760781396055418085433,-0.00221141310887716093999678,0.000640187881703815062951757,0.00488859279675752343707895,-0.109106405312037260668667,-0.994017769013720742243834,0.0153122637728783719812675,0.0055215671787986093932421,9.76683820124017287866991,0.00398142219290592829644693,-0.0277691186906378513488125,-0.00087121410958377405904518,8.39171816116714808231336,4.97908813819032847192148,1.22310088532153948825965,1137.66029517580955143785,1129.72616589485596705345,1129.8813462036539476685,1126.44406259090123967326,-445.002787480198492175987,-448.819894600101633841405,-226.613527885188261734584,57.6099525034818285007532,155.349238732794361794731
7.65000000000000035527137,0.456378614840323493240248,0.0849782307772733724871017,0.233350666649026899923669,-0.0423163425195218281804621,0.00712249839235377241175584,-0.00117951031290441672033653,0.000656690102368018280287743,0.00490190872888014109870491,-0.109095114574973825471993,-0.994018937047536965678773,0.0163920958707887629013378,0.00424202173828976472624852,9.7634040784309839011712,0.00395229646222548542527919,-0.0277023771772640543809008,-0.00102307500822514585089862,8.39174426906143722248999,4.97902495089408425599231,1.22309943679581167863546,1136.63595320329341120669,1128.55584872377994543058,1128.78197532899821453611,1126.55474722965186629153,-297.617952218849495693576,-379.510342982674842460256,-547.659324887911566293042,33.4321198272398589779186,155.348099074027629740158
7.65249999999999985789145,0.730557722230366302085258,-0.0220254003642096317372445,0.262471985728952750260845,-0.0394543813441858570723042,0.0071155470185623745718595,-0.000628374264807162754252479,0.000670349574858717040318212,0.00491782481033946599485729,-0.10908770842306617088191,-0.994019664260679891576444,0.0176102376548695413460699,0.00288375668803607376755593,9.76048751446717410829024,0.00392614380695288731765169,-0.0276427058202149134036318,-0.00118330975789225222201406,8.39176999402744527856157,4.97896399873629746934967,1.22309747601077400958047,1136.1722054147153357917,1127.82861417994263319997,1127.14304957921444838576,1126.61122319003743541543,-100.378418016409668211963,-214.920674758791420799753,-746.504985525796200818149,30.7524192062380485879203,155.347119674114622966954
7.65500000000000024868996,0.910886911698095991241075,-0.085607682236864407476773,0.291106365940848377249495,-0.0355263964102052395843678,0.0056125037209925621173312,-0.000328255260048026956207906,0.000681772328687025057011861,0.0049340215597393679430871,-0.10908308516080868211251,-0.994020082885547884288258,0.0189052857304385160674975,0.00147190722860435913021959,9.7581109510254986361133,0.00390274997938268568969944,-0.0275930585909028337765481,-0.00135086407953977148503621,8.3917945648744183273493,4.97890407423620384719243,1.22309515356151088383285,1136.13406111321137359482,1127.48124534998601120606,1125.04945040136931311281,1126.70850932568305324821,54.961318566075796354653,-69.1704251524257642813609,-860.687616290415576258965,54.7335562975615914638183,155.346108391528446190932
7.65749999999999975131004,0.998308886244419491085011,-0.0890880944539079039357077,0.32464830884857526216436,-0.0317182338013609968485618,0.00366439723105623860535673,-0.000113033307818113690581575,0.000689283160022848982902144,0.00494624931170060868484972,-0.109078142057367169504012,-0.994020555623602364292424,0.0201850876604061021946102,8.66273246367989246952135e-05,9.75629091661735792229138,0.00388225129282543509820491,-0.0275556744498268481324832,-0.00152443970234834402614765,8.3918176728003555098212,4.9788444553993729257968,1.22309297522287052650825,1136.44701200754570891149,1127.48276205418051176821,1122.83961149776246202237,1126.8848909715252375463,205.601309506623522338487,78.8980171743804419293156,-849.805946663736790469557,92.0053490162919445083389,155.345070352997112195226
7.66000000000000014210855,0.981623794280823802615998,-0.0141583766657178422576635,0.363902037247620602222753,-0.0286689425506904613238923,0.00209295990607159419424899,0.000190403542531476462941475,0.000690044102151215555177033,0.00495350406008407580238373,-0.10907150256055180015391,-0.994021240319655663419951,0.0214247481820939930652337,-0.00117116839544868442390957,9.75503701959968871904039,0.00386476660515835393136519,-0.027531972458336505943377,-0.00170257802300490760499807,8.39184000986947609135314,4.97878473308440927524998,1.22309087948308992110924,1137.1620676607444693218,1127.8757354358579050313,1120.8004206680507195415,1127.16853607076450316526,396.669657387139352522354,241.639765050339036633886,-789.699040086010654704296,139.614372560141418944113,155.344000257050140589854
7.66250000000000053290705,0.871893661588984070220931,0.143404885221149802632112,0.407246873353408367357531,-0.0262381561804867421971998,0.00128873835895478927940361,0.000913800664747102401111456,0.000683939180059838511618886,0.00495639449155800288632223,-0.109062674694407307773858,-0.994022188341025625391012,0.0226266613279005671111044,-0.00225313403315045499009095,9.75435191204839213696687,0.00385030039596219279818268,-0.0275224973354926023827449,-0.00188376777340458338196039,8.39186232920744501484478,4.97872415018741065750874,1.22308870522428159155481,1138.43036029448171575496,1128.69096087943239581364,1118.89111629733179142931,1127.58296283432605378039,520.567561709014853477129,333.37753227174999892668,-574.199237920277937519131,148.854355885854147345526,155.342680104601157609068
7.66500000000000003552714,0.731432301529220119107322,0.298350351061182295087093,0.426751560375046246065267,-0.0250177351457054782113421,0.00174632771410028410537241,0.00197342585573107758348255,0.000675243888576684196493882,0.00495493802750994472017254,-0.10905338408068734890044,-0.994023207899963234801533,0.0237741837255712532006591,-0.00319293671743096918458349,9.75423140396678434171918,0.00383860296834710170918448,-0.0275269861814543236044894,-0.00206644003975009482587666,8.39188502733506958009002,4.97866236363650305207784,1.22308586815285247340057,1139.76490546928948788263,1129.54262309721661949879,1117.92942447844939124479,1127.91280785019375798583,568.386475848195345861313,344.799962653185559702251,-230.112109363431414976731,104.994287839374422333094,155.34155122324204967299
7.66750000000000042632564,0.563076392764330746487644,0.431731026125806383042516,0.410885534061181501019888,-0.0239674925730299463733086,0.00344600830545693011947028,0.00356920494291929502744809,0.000671674855379546307913852,0.00494847280467377876461699,-0.109044681077263255764009,-0.994024183080139511758944,0.0248320061927877408503029,-0.00408917008722041452895013,9.75466435313382618232936,0.00382932349081693736841947,-0.0275444990451951289556209,-0.00224890926160598633026799,8.39190818116606784826672,4.97859926228061056008301,1.22308187237315713069563,1141.2722926737226316618,1130.41496069269828694814,1117.74055575051465893921,1128.10793427352291473653,664.30373435556759886822,350.002409432734737038118,95.5182615044143261684439,28.8870602500543789403764,155.340394300297447216508
7.66999999999999992894573,0.343090749872489664262787,0.521645809731377085860515,0.337022213178866103522324,-0.0226362030250349295645851,0.00666138202946992604575049,0.00582008137744033718363745,0.000681020417542508335433105,0.00493538131612050474245068,-0.109038396594875380829492,-0.994024918317392702782342,0.0257478650603348499514844,-0.0050412698392128876823115,9.75563277240563841985477,0.00382194266617623965368034,-0.0275736398556957612582252,-0.00242926332764491518731442,8.39193114635940062839836,4.97853464484594798733497,1.22307594725430512916375,1143.0864241410672548227,1131.29263514438025595155,1118.40701578597145271488,1128.05724315144402680744,630.319629434611442775349,266.401458107435473721125,373.181592405043147664401,-77.9857140951224465652558,155.338975213094187211027
7.67250000000000031974423,0.152081149478081656400974,0.521743380917185306522299,0.230737299640414311729941,-0.0217477029453611754583608,0.00971266615039425955380192,0.00738822740106196557130502,0.000706802393413851598978626,0.00491598670214476920342639,-0.109038437300378585059768,-0.994024983500626180266124,0.0265177659482115565814375,-0.00607325659652412433442414,9.75711154584177720039406,0.00381566306722888387223391,-0.0276127976199231524312427,-0.0026053319897201693278177,8.39195422861025441818583,4.97846869784157242122546,1.22306822008870286211391,1144.42389082089562180045,1131.74696798323543589504,1119.60646371253983488714,1127.71800570304731081706,453.446886927450236726145,96.2933826805531225545565,566.665760602484851915506,-198.723838868458784645554,155.337767694039342813994
7.67499999999999982236432,-0.0356653389564096715003139,0.452531819643393340424353,0.0946551439607534600417793,-0.0214488862791513065775284,0.0119272405185292407897579,0.00788015106984411156654247,0.00074426974577148394089654,0.00489309547495476830636374,-0.109044808640598719917669,-0.994024366282048155163409,0.0272050464860264865074591,-0.00705803298107906054714711,9.75906873483758019460765,0.00380970001235340742506974,-0.0276603192044268635096937,-0.00277468094145996669805387,8.39197816424548115321613,4.97840267997989371906442,1.22305934158510942744158,1145.35365857570445768943,1131.7741020577830113325,1121.24034458898381672043,1127.06362395710175405839,271.4118429631583921946,-107.764415230897185438153,743.575868512259489762073,-345.114431749387279069197,155.336534534375516614091
7.67750000000000021316282,-0.239461685029690646286937,0.328818997787291733558845,-0.0735359555320919122678447,-0.0219108756282489734734664,0.0127511889812969396451603,0.00721723722087364970984025,0.000791700912065434027689581,0.00486862455786670703800079,-0.109055656069912298988811,-0.994023259381109358656659,0.0278505962124803649326843,-0.00793074399629633761121816,9.7614662209944089710234,0.00380324016572843167857676,-0.0277145765876636238078667,-0.00293533134923866338705789,8.39200330076955580693721,4.97833730104697202989428,1.22304993267655182087594,1145.78095003571138477128,1131.20814590708096147864,1123.3243430551010533236,1125.99243354430041108571,24.5935370681314253715755,-311.100052630497259542608,725.067501204209293064196,-420.205131549218890540942,155.335024660229237269959
7.67999999999999971578291,-0.377538764689864247969808,0.226211370434453495903426,-0.199565291864021415735309,-0.0229071611057016961965349,0.0121384504769831563786298,0.00626383559061384573990461,0.000848283847351582044431229,0.00484653870389076604774381,-0.109071518379025733658239,-0.994021583377283968196991,0.0285338125607365392100156,-0.00865534896380463700249486,9.76425975077912156052662,0.00379534328243793898927105,-0.027773986166450475437939,-0.00308575349491681943936428,8.39202955618159407435996,4.97827301252292553357393,1.22304051830416016244385,1145.47662626104511218728,1130.21860179463055828819,1124.8656820950047858787,1124.96259829935570451198,-257.285332819588802522048,-491.076186125257208914263,515.17959284038818168483,-411.876300775483855431958,155.333740561832343018978
7.68250000000000010658141,-0.468891288423465946166857,0.152207041697536016311432,-0.299572677743005277850585,-0.0243135294718597703977903,0.0113170079990019302462745,0.00545459304581621343827047,0.000912543325824616237060272,0.00483080692446410595031203,-0.109093470417124319138402,-0.994019201885916747762906,0.0293358205028556237592419,-0.00919053289655760372034443,9.76739998396426578608498,0.00378525389921492228309519,-0.0278368964980822662658166,-0.00322474413342065547444237,8.39205667299216351295854,4.97820989102305766493828,1.22303105439550363620071,1144.49452337161346804351,1128.75276497645472773002,1125.9002410193029390939,1123.93305204042303557799,-487.98920648979776615306,-643.234405290776976471534,301.461243088531944067654,-391.597902539599715510121,155.332428091297686023609
7.68500000000000049737992,-0.5152208432147559191705,0.106942117505069253513561,-0.375098371087437432169764,-0.0258954692748894384213276,0.0111641035223167765094709,0.00463558730511218989450706,0.000980198591856418091974867,0.00481985792353551920075283,-0.10911751033879515948577,-0.994016564207017228049779,0.0302358516667090224117054,-0.00943651959029232975662005,9.77083431256620116300837,0.00377293014541186990523647,-0.0279014101332152736345549,-0.00335119265549984777716186,8.39208357894318979219861,4.97814757870726953825624,1.22302127626538292837211,1143.03668022859574193717,1127.00242976817617091001,1126.37298831044768121501,1123.00460878665739983262,-662.268340524783980072243,-729.192716912500259240915,46.0885235138458284609442,-328.813329303291254746,155.331090540895985441239
7.6875,-0.505686926513841950026062,0.0894738136474464568204112,-0.419439880332683867614207,-0.0275402217575581829966946,0.0117304945961378831453814,0.00364539765580939277567207,0.00104463785346508913551289,0.00481027561058541917177189,-0.109138157301479077343487,-0.994014293740357213202685,0.0311809582819796912711574,-0.00925297969000152611962484,9.77450686625809872509762,0.00375890966971176776131869,-0.027965254901695844880205,-0.00346411369065517454543524,8.39210991772625902740401,4.97808534486288145615163,1.22301238420817215413194,1141.18318166898961862898,1125.10680139189230430929,1126.13068363687216333346,1122.28898539390661426296,-851.582306198424703325145,-807.978597014533875153575,-250.115493010622117253661,-253.752456638818273404468,155.329720428070572779689
7.6900000000000003907985,-0.435704491393273996013846,0.0914138080969768007655318,-0.434916531517543114571112,-0.0292916594413600503421513,0.0121975585566994997044343,0.00253536104037726389703877,0.0011003736922034295341033,0.00480158351313365785312248,-0.109153527048885465311479,-0.994012603984939180357117,0.0321705964411504521938134,-0.00853724942070158143714309,9.77835811485607564463862,0.0037439697463898190775422,-0.028025704748032276986125,-0.00356279076292725406516215,8.39213601629146133120685,4.97802198870421452880919,1.22300525360350942349896,1138.77876869760370937001,1122.9625367831035873678,1125.12241084539459734515,1121.73584650346333546622,-871.361838596404027157405,-721.385912979455383720051,-456.661904551729719514697,-151.72828617819828878055,155.328035352684423742176
7.69249999999999989341859,-0.338291518095431620327673,0.108954946167744412544032,-0.414625305332562366089633,-0.030390536308286929950695,0.0120547639985236626491982,0.0016813838225091344222295,0.0011457974630655627223258,0.00479299370817177182446667,-0.10916481774364809875788,-0.994011367841485804497381,0.0331869090604795732857291,-0.00727120867772694870478922,9.78232601749556351933279,0.00372910935530350231420504,-0.0280795963833276179810738,-0.00364665671063480129401868,8.39216197470929081703162,4.97795689704642274620028,1.2229993869249478066763,1136.82637247600769114797,1121.49987182699510412931,1123.84737411411356333701,1121.53034396301563901943,-730.315220624122162007552,-475.420750597742085119535,-551.688866169763855396013,-36.8981189721133588932389,155.326594495175839938383
7.69500000000000028421709,-0.215900543245475085019081,0.137720823729068270191433,-0.355607101473935816038363,-0.0310079401039371690962376,0.0118399047226485608363955,0.000662042752104582661945575,0.00118152017615869389145777,0.0047847467847528368095622,-0.109173608186321102753169,-0.994010409995356503110031,0.0342238130732423137536635,-0.0054916766890662181699323,9.78634652179085406942249,0.00371561522038545231222395,-0.0281234900820430885892698,-0.00371498789748046353426103,8.39218754103040609493291,4.97788983447415667171754,1.22299275498612192158987,1135.12719259448317643546,1120.58543303011492753285,1122.36396651454583661689,1121.55135590860277261527,-658.575799176574378179794,-246.582755077366329032884,-646.083120963035185013723,46.9926551060335455645145,155.325112513825786209054
7.69749999999999978683718,-0.0595328913972935289122823,0.169948836716216244990818,-0.23449313980536681811806,-0.0311193107991366950393353,0.0120579859557172867912112,-0.000667640279603623292524472,0.0012084121151319244646255,0.00477759891743770488681253,-0.109179102110087425381302,-0.99400981392079823528718,0.0352808901567490326711685,-0.0032505056695243013387131,9.79035449808585767073055,0.00370512552943089157331258,-0.0281539012570862848261477,-0.00376673638088522366382249,8.39221283257825767520899,4.97782127525405826418137,1.22298364692728389613308,1133.53349348012488917448,1120.26695805160829877423,1120.61695850929845619248,1121.76530723854580173793,-499.120035870247818365897,16.9150830603488380177168,-604.630022178857075232372,98.3631298592648022349749,155.323282862169747886583
7.70000000000000017763568,0.0664945038885299405384544,0.178977742432717995546554,-0.0911651570672042943499491,-0.0308673032127559643367221,0.0127057996061061637821377,-0.00156490238729213929080863,0.00122845940142777589054734,0.0047724117011079441111332,-0.109182290763671654976186,-0.99400946549636570725994,0.0363533138524394713875232,-0.000629949794938144264078161,9.79428468732520940420727,0.00369929668968454420513448,-0.0281675507767012618665081,-0.00380077593409791029271938,8.39223783740140838460775,4.97775184219285637965413,1.22297175419857073741525,1132.63159241513199049223,1120.67000844541666992882,1119.34081640365161547379,1122.04317155789908611041,-271.1152901797535150763,282.051631167270443256712,-454.665506232387883756019,119.857906014912629188984,155.321712622509750190147
7.70250000000000056843419,0.177754542846101093456213,0.150969106172524125675238,0.0893787583505193938826494,-0.0304694254684582457870512,0.0138400736733201058792364,-0.0018902824142973595131223,0.00124516846868808232426384,0.00476821315782645881176105,-0.109186324105471146972413,-0.994009020319501890305958,0.0373933511639980079022116,0.00225477926834972280945024,9.79807318626084899904072,0.00369970770634117781736072,-0.0281615322077395056898919,-0.00381626170782558204672141,8.39226230469752643159609,4.97768130677885523027726,1.22295750949198978041466,1132.17791702922590957314,1121.67721620744487154298,1118.34363097813616150233,1122.36459676862045853341,-106.663022215391265490325,536.173250684908111907134,-376.07585205078868284545,142.69766665711662767535,155.320091693778238095547
7.70500000000000007105427,0.2858999959541099755711,0.0632487025524473417403826,0.332474586429089502548351,-0.0298030387839447186149044,0.0150577188336608255858629,-0.00160790351386880139665514,0.00125847088380069021575081,0.0047638472338375923917364,-0.109191965681879304961299,-0.994008400431394378848893,0.0383537739504991800898459,0.00535337887419749108852685,9.80165849288890633772553,0.00370800040448979401422336,-0.0281334576652823332987285,-0.00381274135246183242323181,8.39228603400589179273084,4.97760932012911005983824,1.22294204583526799900994,1132.09827730405504553346,1123.3508746988411530765,1117.46043714339771213417,1122.75665989118465404317,35.6808245023338130863522,645.627588791162565939885,-284.61374779267924850501,142.760185376440261961761,155.318083901884790520853
7.70750000000000046185278,0.349478447862990704297914,-0.0526898098644046353200565,0.540795210362179923357928,-0.029022449538817027964166,0.0156173821198294596884759,-0.000901620281257634590722783,0.00126844833682380228427611,0.00476202206197390634501154,-0.109200665104751890033263,-0.994007433398119477629962,0.0392594254060906824865818,0.00860098127639858170412346,9.80498197389119319211659,0.00372554450861288001528582,-0.0280816208739605305266807,-0.00379067884585126708280045,8.39230950989954394003689,4.97753611755932379168144,1.2229264351520197084966,1132.35632115173757483717,1124.90535415140061559214,1116.92056223917279567104,1123.0783976955026446376,154.664778567351845595113,597.258831184866721741855,-197.596856118938944746333,129.814961175728086573145,155.31635554261515608232
7.70999999999999996447286,0.379278052910745733239395,-0.199594180564299561453367,0.730887847217645103548023,-0.0279528224559841935448201,0.0158310182341998735566779,0.000374364521846702212257152,0.00127547407000999776446881,0.0047662952237119814852262,-0.109214364164900767928401,-0.994005889025186939456091,0.0401492093014734971467838,0.0119241085323801617595896,9.8079899611806951043036,0.0037533561345754204788272,-0.0280051877924553348220282,-0.00375153199901070294464134,8.39233304133698254645424,4.97746201622631101457728,1.22291165996024853157564,1132.87160119689178827684,1126.33716885476542302058,1116.47245286280303844251,1123.40573469706328069151,239.16839030685477496263,514.567820475542248459533,-181.132338181582099423395,135.240366454948485852583,155.314566579042121929888
7.71250000000000035527137,0.37767952589618025704965,-0.355430598767713268326673,0.884180376891325336963234,-0.0266995010188248969862368,0.0156631578308761114370906,0.0022705077354942121425907,0.00128110608765350723718679,0.00477812601027187509178384,-0.109234255241418623527672,-0.994003628749776657613779,0.0410178518238737618850642,0.015232121261492655162062,9.81063583153740026432388,0.00379212070033950552488955,-0.0279043579596451249424938,-0.00369772602300181716869498,8.39235602140406378168791,4.97738734040008701242641,1.2228980837456231434146,1133.55216310327182327455,1127.47819325377827226475,1116.01490054826490450068,1123.7545995277773727139,305.551315426425560417556,355.793031635592626571452,-201.487108494897910304644,147.487621044777796441849,155.312725149715021188968
7.71499999999999985789145,0.338180995738142475826038,-0.494310316246648506766093,0.964939046382470300144973,-0.0255306361541465104414428,0.0145853868685616241962499,0.00503416808211082627416699,0.00128689714213449531675371,0.00479479059886596392647817,-0.109257517847243482145281,-0.994000975091213989642824,0.0417789552447134435175791,0.018447741239704169846636,9.81288175941246976208276,0.00384230871377013892195573,-0.0277804735485966611263642,-0.00363242464740060142652789,8.39237801856471143935323,4.97731311581086099948834,1.22288597412041122325377,1134.39935777402388339397,1128.11613401294334835256,1115.46501732032857034937,1124.14317280228715389967,408.8707764993701516687,151.157622680878859000586,-273.554718349174834202131,177.57632227058289231536,155.310818116598909455206
7.71750000000000024868996,0.253236391544191474789471,-0.602122125201436264596566,0.947546169393071791020589,-0.024724931670581123954733,0.0122139659456602725495777,0.00912666851863449743453849,0.00129499837031776332887945,0.00481047582733886910921761,-0.109278485469654837447528,-0.993998577337340982751357,0.0422863911072955053760403,0.0214951821724602629148926,9.81469952066716189165163,0.00390397866711155241969955,-0.0276360380892854279322179,-0.00355937850210939505518626,8.392399582806939761781,4.97724044565893741776108,1.22287634441708226162859,1135.59651698576863054768,1128.23398136718265050149,1114.64712695651905960403,1124.64248113913026827504,468.236545533828575571533,-54.4283348079727815616025,-323.890772497595719414676,181.255207076268789023743,155.308451250960445122473
7.71999999999999975131004,0.157618414923455574250255,-0.619356316711924148599167,0.827292660449617578422021,-0.0245511462351354486921551,0.00979162214368973181366496,0.012681946779498768848593,0.00130587608923165795528354,0.00482181431505993365882468,-0.109292754475260669999592,-0.993996935861146013735379,0.0424488929456845673349186,0.0243344121100347102193417,9.81606990723661887443541,0.00397642164155935506908435,-0.0274746413096269986864328,-0.0034825863006707090049896,8.39242132983364719223118,4.9771697651472335266476,1.22286978850406380381344,1136.74054050169297624961,1127.84399233890349023568,1113.84556345784062614257,1125.04944883766847851803,480.965717679520139427041,-224.318211682753144486924,-330.607518820495670297532,148.438706388609233499665,155.306411945702848242945
7.72250000000000014210855,0.0408469919774040457483011,-0.546893674079264036080872,0.605882806477480273521508,-0.0244509938982940613905193,0.00724814028569681356728438,0.0155236683255164306660667,0.00132432413466584682042171,0.00482467916145951167955497,-0.109299808328842076865506,-0.993996120244858283321321,0.0421564564683385920029757,0.0268520002922961395497303,9.8169837146971907770876,0.00405805177044771172439885,-0.0273007331334524094845762,-0.00340618332690188372821605,8.39244304809370511577526,4.97710132240976577122638,1.22286608246663086596584,1138.00134557416618008574,1127.11239030876890865329,1112.99408936241661649547,1125.38467467107329866849,558.794836672590463422239,-345.543055554017541908252,-356.786523882591325218527,119.097195447765926701322,155.30430170762087982439
7.72500000000000053290705,-0.123006197985910267767018,-0.362013843180670369381602,0.260093505449610851165687,-0.0242049928226984421841816,0.00441152121364330688374489,0.0173500134160797098159534,0.00135370614374968347391748,0.00481937216514057801403093,-0.10930275743374183450296,-0.993995780241717974412552,0.0413955796315769938842344,0.0289634333452075537485015,9.81744027954880316144681,0.004146440332203358940244,-0.0271194059711702059600746,-0.00333379373004761506843474,8.39246472640061291770053,4.97703541091768641990711,1.22286382104116420066475,1139.53451468505636512418,1126.1162770611331325199,1112.06163083842739069951,1125.64493481490740123263,538.750920623499609973805,-341.647393317005480639637,-302.127345534979269814357,69.7927015224210123278681,155.301686214675669361895
7.72750000000000003552714,-0.277527873164683469564551,-0.147729564679006108995907,-0.0565552123307342460845071,-0.0241424414853291628701992,0.00289071511015788528212167,0.0174466476234870319916848,0.0013920797704940423254738,0.00480657789437438816293469,-0.109303219741148135990549,-0.993995734621629822846955,0.0401797472204329583767013,0.0306985056624040353323579,9.81744747639537429506618,0.00423867965625167059801059,-0.026936080417804014741634,-0.00326799263781037867618307,8.39248637655870410867465,4.97697269172765555111937,1.22286101925991164129925,1140.69510017728362072376,1125.40415334218391762988,1111.48345263474175226293,1125.73363817868539626943,401.918463089177237179683,-215.926821734506177108415,-163.521709425734883325276,17.4470636044137883402527,155.299436829049255948121
7.73000000000000042632564,-0.441683653049235680487783,0.0855706692706140470416898,-0.354804101098819435478049,-0.0245543694872390749761593,0.00276265201425046538069585,0.0163022209278149837752281,0.00143678781568182625284769,0.00478840701373265797274881,-0.109301316088612640586852,-0.993995961986011922206785,0.038560901319231767614415,0.0321091563332258841945155,9.81702070663495263147524,0.00433143742508610915531442,-0.0267561023908365509804685,-0.00321052043033580661313131,8.39250807901335527105857,4.97691358746932532852725,1.22285702225863945891149,1141.5441070005022083933,1125.03664295246062465594,1111.24402229129873376223,1125.73217013292946830916,261.161065871379946656816,-51.3470809494276210216412,-8.24976212984456047649928,0.620710945850091344588861,155.29711513739658812483
7.73249999999999992894573,-0.62900147832498343181129,0.327128390193541895847318,-0.644331353047678412337973,-0.025649229489387352642904,0.00428952642612295126367528,0.0137868412355381039779978,0.00148661526194101569452177,0.00476620857692225657203933,-0.109298494740997884089317,-0.993996298095997987687156,0.0365828880058157931975948,0.0332306544473900192238069,9.81618236661961240940855,0.00442089530212426071176246,-0.026584317811909646822599,-0.00316250411280320819010226,8.39252974118658912061619,4.97685790769578773051762,1.22285157324505799891767,1142.00090550664049260376,1125.14741793743678499595,1111.44220382409253033984,1125.73674173341464666009,54.1301053626750814373736,136.066845346843535935477,156.975995906262767221051,22.9102290485575714740207,155.294246745391660624591
7.73500000000000031974423,-0.756055454597005294203882,0.457300448890747335273232,-0.804916794145945080352078,-0.0270162442373523548067027,0.00667242834133273399199737,0.0109615593839307978035746,0.00154173904614077553199003,0.00474000903913307167214519,-0.109300108183854577381666,-0.993996154664345987761465,0.0342710032235667080846575,0.0340817671294808069437643,9.8149608054952253155534,0.00450271320663244833254479,-0.0264246399948758377285163,-0.0031246544620749734828824,8.39255259812981080358441,4.97680567259292683246485,1.22284539573337291962218,1141.81475752731557804509,1125.71697717919482784055,1112.02890227083003082953,1125.84672127817225373292,-198.616296786853723688182,307.967576239804827764601,314.446938487533202533086,88.3412160918870341674847,155.29178939524192060162
7.73749999999999982236432,-0.822710847529523059407097,0.485693442073166337102919,-0.870232085532370081004672,-0.0291401568388164958212094,0.00931403090861125312893698,0.00801518593188723510456484,0.00160347841191383288193817,0.00471267817517706782276532,-0.109310563298495505568653,-0.993995032685572654784778,0.0317132286311834696301837,0.0346589258353937612611162,9.81338837588900503305922,0.0045724547409140645776171,-0.0262795791289351793329487,-0.0030974930090885955356883,8.39257831812809662608288,4.97675626310127583451504,1.22283901332902145142612,1141.0078240227062451595,1126.68725581863577644981,1113.01443851653016281489,1126.17844781387407238071,-416.723538076721297329641,426.362171485025100992061,446.582514551492238297214,180.243727560995665726296,155.289265255777308993856
7.74000000000000021316282,-0.81603562007859553606437,0.427335571257662749644624,-0.860865744944403155081147,-0.0320572440100054742440072,0.0112731828998525445556522,0.00534697326161567582786249,0.00166968389441167204371996,0.00468968745152753899163578,-0.109328161626668918238181,-0.993993096135325604478794,0.0290641299323641730256718,0.0350244234589304898053186,9.81150024364042927516039,0.00462622063715394452043661,-0.0261498925217242723928468,-0.00308121546103350390372055,8.39260706678354573284651,4.97670791909774390404664,1.22283231394563185467916,1139.73113983693201589631,1127.84878803661990787077,1114.26181484358744455676,1126.7479399159772128769,-597.565435485464377052267,467.303358617363926441612,536.105841674823636822111,285.68396287282746470737,155.286688453734768700087
7.74250000000000060396133,-0.702005965918439001072215,0.27916377184743895734087,-0.778269247224169125054516,-0.0355823376908210725622084,0.0120407858545632778096701,0.00316384456055853304293213,0.00173787436764006849101993,0.00467506569144988254338458,-0.109351626796786047246535,-0.993990470621779143023389,0.026458212215912650655536,0.0352501345815997776944606,9.8093342928907851785425,0.00466077912130896925696488,-0.0260344979505981871659159,-0.00307585483793292946766429,8.39263830225108442562032,4.97665848798898302618454,1.22282531785584303030134,1138.01999684527845602133,1129.02377261172296130098,1115.694967724904699935,1127.60686762823843309889,-804.111090585974011446524,464.064135091767525409523,628.83377687886854801036,425.206803320961569170322,155.284052237813398278377
7.74500000000000010658141,-0.443587871143670264828529,0.0232174191322042852703156,-0.623714759391218898088027,-0.0393835744355804789895714,0.0123262638996615679631841,0.00123038674206424184821851,0.00180293058169950183231012,0.00467212477328253408120906,-0.109379399050192491205102,-0.993987321778932342297708,0.0240271176929724369908392,0.0354580642013283681146518,9.80692993699253712236441,0.00467398261114494728563074,-0.0259306226262053553244247,-0.00308122949929591233991788,8.39267109550539736062547,4.9766063162663307650746,1.22281806990379027233473,1135.71058438400223167264,1130.16910871207869604405,1117.40598372798172022158,1128.87397393258197553223,-846.688370420651949643798,342.519671194948386983015,587.840048833198807187728,475.417758661125049002294,155.280826400056071179279
7.74750000000000049737992,-0.153496600605494498692494,-0.237985205567743079990706,-0.471177394568618790327008,-0.0411268084870950109688259,0.0126413127043632778079285,0.000228525079330327800372288,0.00185975503876247547953293,0.00467776329919585096700496,-0.109406689569067822054294,-0.993984199720461480964673,0.0217804374980010082007986,0.0357782968694757980143706,9.80432831623538980636567,0.00466517616144251304893809,-0.0258341492802511701887269,-0.00309704145958853349282491,8.39270384087873111411682,4.97655065908614169245539,1.22281056363324647229263,1133.78655499317528665415,1130.73637096769766685611,1118.63416796907063144317,1129.98395642154400775325,-716.087800831580125304754,123.399336958393988084026,406.232473087820380897028,410.404473853449985654152,155.278091491078299668516
7.75,0.159220572645872859851579,-0.525321584094752491722602,-0.317419700423088202434485,-0.0408042696177018174297224,0.0125966799163371844655357,-0.000263573305041478749173589,0.00190723932407616436797426,0.00468548418392432473172926,-0.109429818051938923528787,-0.993981541645166832843472,0.0196540204441901164567064,0.0362627705159269397849897,9.80157108927254050456668,0.00463496554919274900835591,-0.0257401577459643593481786,-0.00312315529104979956731558,8.39273589906852990338848,4.97649123523668190927083,1.22280320539919951094987,1132.1301453798444072163,1130.78610539687065283943,1119.43714609342077892506,1130.92599630184918169107,-610.001196671386651360081,-97.7617613959430826753305,219.998346766265200358248,323.914004957766849202017,155.27531464145576478586
7.7525000000000003907985,0.489589096231443532403205,-0.858308053210364740870375,-0.150696963238548697905372,-0.0383894648176988789733954,0.0110025282124040051090486,-0.000464207650450125844897309,0.00194661050831523136338264,0.00468903649855842430405062,-0.109448370960809920893197,-0.993979420551949877093989,0.0175822471893175499846329,0.036908333905730686397284,9.79869904458376339562165,0.00458493006602893847512004,-0.0256435275808723425750024,-0.00315956434900138867505337,8.39276712359487753190024,4.97642803085402807283799,1.22279665750119304057364,1130.73654900981841819885,1130.24756216071796188771,1119.73415970290193399705,1131.603526446332807609,-379.632813407723801901739,-278.927951754036769216327,-8.674719385362735124545,145.480305726371994978763,155.27194120595919457628
7.75499999999999989341859,0.686359737971330541306259,-1.08684389746036580426392,-0.0348040542702804447938725,-0.0354264297190830038108977,0.00817386220898837397019765,-0.00042528396385369920647615,0.00198212819311007143810444,0.00468740171542526493086989,-0.109465127100422082717657,-0.993977526508935449456317,0.0155912871239676856238709,0.0376320815027003027775088,9.79575079121340941412655,0.00451737213460889908134277,-0.0255395039101776674672628,-0.00320642274086754700337942,8.39279707581142275785169,4.97636168237626019816844,1.22279078458499657067193,1130.23198131280582856562,1129.39146563810049883614,1119.39377249649396617315,1131.65339783048102617613,-44.6232596022137357749671,-388.112961685291452340607,-238.819533041446987908785,-97.4513717363627449685737,155.269100686740671335428
7.75750000000000028421709,0.776238782396851512146441,-1.21983215933164945710132,0.0528805470502175800628919,-0.0324376005182315935160275,0.0040592545624380596547276,-0.000255841717123197283281083,0.00201522348822267410861642,0.00468363583414325383019738,-0.109480750867281678706533,-0.993975767886873584622265,0.013786440806499426769971,0.0383886705303261577260088,9.79276221270416691311311,0.00443534206389578113116645,-0.0254241908734210916853691,-0.00326362624999365375649818,8.39282560666559618312021,4.97629403624210731038602,1.2227845772751850805804,1130.51343271180735428061,1128.30699735229154612171,1118.54006203769472449494,1131.11626958765100425808,301.316568210183561404847,-473.832525461021873525169,-440.935906127433838719298,-350.360755610934745618579,155.266235403218331612152
7.75999999999999978683718,0.760601725636507297600986,-1.23691349729503263787933,0.124807114932095342130225,-0.0292649655049337133194687,-0.00165715928020770909487314,6.95789648888514388304707e-05,0.00204781036358173129663385,0.00468198489015811403213263,-0.109494615793593624841762,-0.993974189007188146938176,0.0122870547201200872033944,0.0391127780894758997343175,9.78976661121709668123003,0.00434236566261225146595715,-0.0252948631740453067084928,-0.00333089105822603022064032,8.39285275304626132708563,4.97622676806117958392406,1.22277769079654818895619,1131.73856415385671425611,1127.02230301079544005916,1117.18909296585684387537,1129.90159405242638968048,574.208556213455722172512,-428.382467419905935912539,-498.342247076754290446843,-504.67642319869065659077,155.262774623402123097549
7.76250000000000017763568,0.658926991921576443722586,-1.13134168275435853523447,0.157811911067569754507645,-0.0270293492216780069370419,-0.00622864324905764155104748,0.000447064036376084979283047,0.00208073905566788204882234,0.00468578262713962353375186,-0.109507040619257658975449,-0.993972736914533250285331,0.0111877359936346995605838,0.0397549663822701765392154,9.78679448881634428403231,0.00424214116954760647737466,-0.0251500770065666845454189,-0.00340768865966132152370283,8.39287848483933096588316,4.97616079614981998702206,1.22277006144116184849224,1133.38447549287457150058,1126.16508501519206220109,1116.0483508023110061913,1128.59288747165760469215,741.298514361663023919391,-261.527129324899817675032,-398.225988152381944473746,-529.899943161043552208866,155.259876209653867817906
7.76500000000000056843419,0.493168185098286027123748,-0.929725822639402510461082,0.16458899018413353232404,-0.025359614214305988694198,-0.00944881619082176341106738,0.000931562841985714151782361,0.00211702093095137789183213,0.00469390690698423714011245,-0.109518444736094108793445,-0.993971363676666830322404,0.0104815975602460045856823,0.0402283213266311917566398,9.78387381835855229894605,0.00413845703400916170577872,-0.0249895373015165574159813,-0.00349342905699436857835938,8.39290303549469918209525,4.97609631336194446760146,1.22276216461155406989292,1135.44505672566560861014,1125.71466736417073661869,1115.19796302509462293528,1127.25209433662075753091,934.970574243308760742366,-82.7538838754225594129821,-255.879630491523130331188,-536.352278398283146998438,155.256967631707368582283
7.76750000000000007105427,0.261198939884088487950464,-0.635605927781879298521517,0.14584843062811250757882,-0.0244588641810825832556553,-0.0109231923544722865637713,0.00155285054807466848213193,0.00216108650142609638733493,0.00470425393759983656583046,-0.10952839467184762034524,-0.993970117526056351486829,0.0101290409631982145088891,0.0404174460448317104943605,9.78102921518067347506076,0.00403509747528248662040706,-0.0248139015310513411094462,-0.00358751973046452605695111,8.39292592212124866080103,4.97603323529582741713284,1.22275401690832929979535,1138.05932836409101582831,1125.75131559581495821476,1114.76895264985341782449,1125.91112607966624636902,934.041548570232293968729,108.202392868454381869014,-43.6708844377344789222661,-415.343827984779409234761,155.253470960125440569755
7.77000000000000046185278,0.0713248978361534086145568,-0.390753170904295010767981,0.112027224543176970317226,-0.0248110772705047756547803,-0.0105500265830861163912635,0.00193886717064207093723371,0.00221533877994094284893944,0.00471543038696595369352327,-0.10953600791637106703913,-0.993969097573181525895336,0.0100981450097498912099603,0.0402437542569095210720498,9.77828134359466893954504,0.00393567206977911508009038,-0.0246245974462972541663142,-0.00368923299249930775403628,8.39294675736430662027487,4.97597174101569628135167,1.22274551492471172942089,1140.115264468516670604,1126.25567932851299701724,1114.97960860290595519473,1125.1753751966969048226,752.157206607323701064161,278.863973519861758632032,191.161434525660723693363,-199.370012427930021203792,155.250555871714112754489
7.77249999999999996447286,-0.0858476040989626515420596,-0.179234851548727813774775,0.0660979332748596326574386,-0.0259781525349307949868116,-0.00983400581200634567313745,0.00204612402841057583469109,0.00227822372353936796959828,0.00472918632509512076866898,-0.109543635845626277647291,-0.993968039697224248207874,0.0104168823585098005435334,0.0396992842925083661009822,9.77564639325383311074802,0.00384323180704287991130141,-0.0244236477207505769948526,-0.00379766463374927535495695,8.39296596787485427171305,4.97591158253491627760923,1.22273594457222101183902,1141.82011439712755418441,1127.14563546341423716513,1115.72475982248170112143,1124.91427601752661757928,604.259125437523948676244,392.301517399763895355136,360.67823263807298417305,-30.709797045984231544935,155.247645019687467993208
7.77500000000000035527137,-0.205824010528746242920661,-0.00113117798874395880659449,0.0151063347189555000765759,-0.0272977385775342064333504,-0.00951861082987326585780341,0.00205911564871032225568226,0.00234559775111655571810942,0.00474740403447235920220137,-0.109554846311737702491129,-0.993966551285988986208508,0.0111122979495095822177753,0.0388281851877668379713349,9.77313659683102997632886,0.00376021219857192081498232,-0.0242134390688777088873618,-0.00391183797480600288498653,8.39298405807652514454276,4.97585286316388231142582,1.22272490440424164148681,1143.13656009570422611432,1128.2171869155117747141,1116.78299976609628174629,1125.02182621146698693337,425.873971024075217428617,431.187639031131880074099,455.973228575895234371274,109.708760398373286193419,155.244742227614267449098
7.77749999999999985789145,-0.28464106012700862713416,0.144220028874912503669137,-0.037346258813253381536601,-0.0283595871249327641239191,-0.009516775450943140354787,0.00205152048140367672390827,0.00241338937930336491777261,0.00476852957124445503422905,-0.1095700313489397365041,-0.993964606125131711067411,0.0121362922088977046031211,0.0376841865800306707878775,9.77076099957000643314586,0.0036885556795836537194444,-0.0239964840395776451975607,-0.00403093262475863640947882,8.39300174206399596243955,4.97579611558598422504929,1.22271266425581881520657,1143.94948425224788479682,1129.30157365856985052233,1118.00462596536112869217,1125.46281981951847228629,245.754550936458826981834,427.097542683950450737029,520.054029728009709288017,230.13826239899154302293,155.241855220910593970984
7.78000000000000024868996,-0.349834155677741676093717,0.29299996047258930476076,-0.0965474238138479129434089,-0.0291691229108243521572774,-0.00952088463869770959546734,0.00184875045373366622344924,0.00248131543384952834782609,0.00478755125102446176671434,-0.109585632009762332095271,-0.993962620880024627645355,0.0133587188138593673802923,0.0362596141981037026202905,9.76852585210354895650653,0.00362972040092101200930985,-0.0237751912434663835449467,-0.00415460511084796754038839,8.39301964886885443206666,4.97574080970692556036283,1.22270030104209204147026,1144.36533285038649410126,1130.35267462893148149305,1119.38326991473627458618,1126.17251752346192006371,66.1033719634829566302869,311.447681896567985404545,458.619340867890741719748,258.346734526372586060461,155.23841763389242487392
7.78249999999999975131004,-0.395614822921649622600171,0.399578285190865190035225,-0.138680299643426596656326,-0.0295209912202685463566976,-0.00939910766148825682630985,0.00143356369011508736656391,0.00255145140409036939171949,0.00479955946320823837597525,-0.109597988423148828829312,-0.993961017845322869490587,0.014641598603289264490801,0.0345061967123886370600871,9.76643421185711346765856,0.00358452563406493540307252,-0.0235517397872712398732009,-0.00428300194287919554908539,8.39303822150499634346943,4.97568587692233066377412,1.22268926801789112879248,1144.28000111206529254559,1130.85881206805265719595,1120.29772266970053351542,1126.75455349215030764753,-116.953541497607815813353,100.704990911028616551448,294.439130729376188355673,199.504739873559344687237,155.235582121393093757433
7.78500000000000014210855,-0.446260599525053369696082,0.482661831730798185358111,-0.169672454256045240894579,-0.0297371165344017113207897,-0.00846215424111546044017018,0.000957058696631582711891739,0.0026229349227623812053356,0.0048039368945418416123605,-0.109603806642952980587857,-0.99396016587168178890721,0.0159334891162481104287529,0.0324294741653492063493402,9.76448519422013028190577,0.00355320064603140053222097,-0.0233280800059388962464091,-0.00441642937223030770249599,8.39305717842414367169113,4.97563089144943404562582,1.22268000217273620222613,1143.78056514289846745669,1130.85619958348661384662,1120.85546556838312426407,1127.17004122282969547086,-311.629269114424857889389,-126.184868424596345448663,158.917898057846002757287,125.187488770533022375275,155.232785611232372957602
7.78750000000000053290705,-0.514588472499120985759191,0.540481002147129796497893,-0.192213049176540862195139,-0.0301564493917282419599424,-0.00622746105914575784345821,0.000474325075383975154272309,0.00269315971228356858951924,0.00480268710402926776725785,-0.109598987610296114136865,-0.993960515132761956991203,0.0172359437365219234084002,0.0300695563792495457189347,9.76267430831355120801618,0.00353554901289806653916226,-0.0231059778230035609003501,-0.00455511700879921051232646,8.39307613442614908194628,4.97557632921574111151131,1.22267266076322433931978,1142.7218547664929246821,1130.22788772592957684537,1121.09231215998988773208,1127.38049093600307060115,-463.051802051232584744866,-325.071902252609675088024,24.1621902255251974622752,28.3777475440735216238863,155.22948556556983135124
7.79000000000000003552714,-0.568003069653542413952607,0.546745719181386702345549,-0.197990491956123421113389,-0.0308955628607850314726324,-0.00414219820749985988966868,0.000157337066679071974030155,0.00275525225256969272594199,0.00479858206870894740680988,-0.109583605221757529601945,-0.993962062923485212273533,0.0185748700929683277505156,0.027553820477694453139339,9.76099362205089882138509,0.00353079234602491926625634,-0.0228871308064091359690817,-0.00469876279429729155900919,8.3930955773743178838231,4.97552298974251172580807,1.22266635749926910747831,1141.46530613264235398674,1129.23084007222360014566,1120.97627651951074767567,1127.31192996055006005918,-574.370555742837950674584,-470.84118309622778042467,-91.6370591357027848289363,-67.2323300047551839497828,155.226789319400182876052
7.79250000000000042632564,-0.594841177547171362505196,0.513128082136492746911927,-0.187782779244785230643444,-0.032319038182158657535048,-0.00256465784886834684275225,-0.000126611303243520976298184,0.0028019682391723583006482,0.00479365704107787525545259,-0.109559188297177909077185,-0.993964651158306455869251,0.0199641141590988155374298,0.0250246348020717324089901,9.75943208494640757066918,0.00353779752318476164996142,-0.0226730931842007467358346,-0.00484643143390857226993074,8.39311548965244647035888,4.97547114843615911894403,1.22265983106757469833781,1139.85000198777879631962,1127.87368181044848824968,1120.63412686431138354237,1127.04432928597930185788,-774.076621199963597064198,-637.518002872561737603974,-176.266665645020225383632,-145.584557405576020983062,155.224156319967562467355
7.79499999999999992894573,-0.564504248526322638390695,0.442299732692778613252216,-0.150755277834270312586895,-0.034964353408585391314034,-0.00146395481530001191419754,-0.000521317046269259348409419,0.00283273262465736849757825,0.00479137051744815602866145,-0.109529551046355283494549,-0.993967843855703692135251,0.021433585641072970540133,0.0224979781928336744489805,9.75797522515217607974591,0.00355513030404633811540349,-0.0224651243408303287474315,-0.00499677662500773618614591,8.39313519472669966603462,4.97541990730793504127405,1.22265175623186950204513,1137.59492302664261842438,1126.04325005786085966974,1120.09494319128566530708,1126.58400717352219544409,-854.375145187368616461754,-669.959753466915344688459,-201.415721090511141255774,-180.575309154623226959302,155.221076672907770443999
7.79750000000000031974423,-0.469856116121309452804411,0.3698623455719785568796,-0.0928297665669558513812376,-0.0377667383848703033799588,-0.00106414698000400001487442,-0.000945024868881804759081222,0.00285332731583917784817794,0.00479443219425493716984166,-0.109500046084028232473706,-0.993971021063282278440454,0.0229887544623589082370962,0.0198740758181923070357922,9.75660532406713443265289,0.00358116556639927457322825,-0.0222641181286431719121843,-0.00514806500253875941319759,8.39315480627844223704415,4.97536870569031819400152,1.22264114006756785535401,1135.57812626184204418678,1124.52388304311398314894,1119.62704825885884929448,1126.14145274020620490774,-795.635430888267933369207,-565.776396487957072167774,-176.360634927372416314029,-181.305619308526956956484,155.218580753600775778978
7.79999999999999982236432,-0.302462877920347039673032,0.291022966944566585656418,0.000472168957192278804235741,-0.0403507364612892688304768,-0.000818920562654673394806237,-0.00145754587497834648193717,0.00287034599968804355826779,0.00480315414917376493769696,-0.109476532299449730301077,-0.993973517412693574613058,0.024591302823271758704049,0.0170483596542748069846418,9.75530171167342352589458,0.0036141387299113256377503,-0.0220706692564225266661726,-0.00529815487356553264236547,8.39317432745510672020828,4.97531702162808109335401,1.22262752497238413873504,1133.61674587220136345422,1123.21436807542113456293,1119.21314001664882198384,1125.67747907697957998607,-744.883089082138667436084,-462.586016350779402728222,-152.761448178538188358289,-187.920457278009422452669,155.216161165860739856726
7.80250000000000021316282,-0.09435748491789908154459,0.205479350016529199729476,0.125437961860498742305836,-0.0418106011798174206917089,-0.000344974037438735821412689,-0.0019431120382566661585616,0.00289053433287022416495193,0.00481622764331255878711424,-0.1094633227975214812,-0.993974845946661633711017,0.0261761339857223065963332,0.0139225229722724427872116,9.75404115519708447834546,0.00365219684536954901712957,-0.021885167546693215512299,-0.00544484020538050974419297,8.39319385893265845766109,4.97526451595818564044293,1.22261073450013801888758,1131.85371081643143043038,1122.21095296136013530486,1118.86324101796617469518,1125.20185045381617783278,-628.757437761434516687586,-304.960279845133811704727,-127.891880775203404141394,-196.397293419082643595175,155.213806258743119315113
7.80500000000000060396133,0.119495951329879876445794,0.105272119981975831315424,0.283639429237984574960763,-0.0413893672012771302037848,0.000500475599909708289761423,-0.00210137863331200320030079,0.00291628190299647940819661,0.00483617563174827420208191,-0.10946169419130730160461,-0.993974847436945974088474,0.0277671054230377925553519,0.0104802143669045291773934,9.75279774836521085035201,0.00369335943692058066983863,-0.0217079912453414305972821,-0.00558613019577153084582744,8.39321371552389550174667,4.97521145487592431067014,1.22259187836827298845321,1130.47295868339369917521,1121.68956667619522704626,1118.57368061277270498977,1124.69549260988401329087,-500.328019995287604615442,-105.008282722794746177897,-122.342708813178319360304,-237.201476374189553553151,155.211529804548320043978
7.80750000000000010658141,0.322740377300922143266604,-0.0361567360615400942847053,0.493060157891374251093453,-0.0391960614989327674195785,0.00158774492937699710989885,-0.00149943283175374376600675,0.0029449820617819403092974,0.00486517096381773508223523,-0.109471871585372720891982,-0.993973494854618722094131,0.0293976114875520375124829,0.00680797331768494273784853,9.75154494081035139174674,0.00373546362857731135964645,-0.0215397077584258793414573,-0.00572050884311546201099752,8.39323473203352321547754,4.97515859040311170247151,1.22257270685435703860833,1129.35207071645504584012,1121.68591154774617280054,1118.25152747390029617236,1124.01584307194525536033,-321.570130227844458659092,98.9971362095751032939006,-119.024609406144733725341,-265.409539811213335269713,155.208887903607831049158
7.81000000000000049737992,0.415578046668329648127838,-0.165552843428287133065169,0.66258337308236203710976,-0.0366375858475032345484834,0.00217965378397244656863418,-0.000286938781437519547026782,0.00297259408989544206269873,0.00490284286899587799790634,-0.109490137463609901735673,-0.993971212049703845003989,0.0310603250275960571236133,0.00303088504560473578908208,9.75025754945141898133443,0.00377640416060939180381562,-0.0213811351915471556384141,-0.0058472062764924059852234,8.39325708522439128955739,4.97510647071063871749175,1.22255371269951473855997,1128.86510803225451127219,1122.1845523572430920467,1117.97855756574199403985,1123.36844491082797503623,-113.59073633089124655271,285.340522211351242276578,-110.714861070712316859499,-274.847493656494805236434,155.206760004354777038316
7.8125,0.415720949666808059497214,-0.285963227751764470507823,0.796860559696170200894016,-0.0342187703150258204498613,0.00183611127266471423763461,0.00168840116327657104727811,0.00299898817595517855338905,0.0049429817774214734882321,-0.109513430944862238947124,-0.993968366922643564720374,0.032631845248596323683099,-0.000784677501367316704294907,9.74891401325326611981836,0.00381415203620555061728159,-0.0212333612609797960091296,-0.00596636749709439709321579,8.39328055410631357347029,4.97505507850216677212529,1.22253454766326585811953,1128.78411703480060168658,1123.1126141588028986007,1117.69795316854674638307,1122.64160560366281060851,39.0136832915694995449485,472.09607039568351183334,-117.832824567861067066588,-326.065639852647677798814,155.204707345773414317591
7.8150000000000003907985,0.325939444719632598346237,-0.385169734058227464235102,0.883283425381568565448731,-0.0323261747084822095854584,3.8350873089305101241997e-05,0.00497763421571974055968024,0.00302853454109891073037231,0.00497796958026911883637977,-0.109538989905198280716547,-0.993965288155333248631962,0.0339566842958193490509267,-0.0046522221732512476777277,9.74749714479184881099627,0.00384691690441778515879845,-0.0210977254148091847296698,-0.00607907831688194594255137,8.39330518022360827501416,4.97500405710065685127574,1.22251548837702705974095,1129.06017644871235461324,1124.54503270922145929944,1117.38939344290270128113,1121.73811671156477132172,151.423306232576180718752,546.769224345246470875281,-98.7454462027947670321737,-320.591046202441702916985,155.202330191245323476323
7.81749999999999989341859,0.203451930540135966785087,-0.408144313347842457861958,0.874945321116404106653874,-0.0317931801681158518468884,-0.00211415346910494685375714,0.00829539173429138382287462,0.00306331124435930881449996,0.00500516394873302093715406,-0.109563271892919575356551,-0.993962372529989535152595,0.0349845402020042620105933,-0.0085475432505328526044952,9.74599454439189116783382,0.00387328531535744953820388,-0.0209758760091511183010216,-0.00618711189311021200060159,8.39333042625155911764523,4.97495462816302946862379,1.2224969401552858716542,1129.5412335659634663898,1125.84646028052907240635,1117.20422593753278306394,1121.03865037265063619998,236.430371040210530964032,504.689229670986435394298,-45.0792793003084213410148,-244.241122619046763020378,155.20042057147955461005
7.82000000000000028421709,0.0686042947851358830835267,-0.358921804840583280604704,0.777910920376356562755404,-0.032240820353403372433565,-0.00414875738525615628260468,0.0115988209874218900496956,0.0031032243186344607432936,0.0050257915518715319189158,-0.109586278408564760655786,-0.993959613407454201094993,0.0357474182637042628418733,-0.0124099722682145981178525,9.74440022064399968826365,0.00389220603071478536694183,-0.0208697263649905845328547,-0.00629283055816520688757754,8.39335636770412207852132,4.97490753271616359398877,1.22247940855514491964584,1130.24232830391338211484,1127.06847885757633775938,1117.16399704640116397059,1120.51691109846956351248,355.752005324810227193666,482.83078691612109878406,30.8311424583286886047517,-158.380934934851865136807,155.198584991646100661455
7.82249999999999978683718,-0.0737077669175075916863094,-0.228878002069212493907457,0.579526762653487570453592,-0.0334510078668963095616107,-0.00584504969508954207862983,0.0145293963259744956378894,0.00314984665119768560137548,0.00503966911871661822630575,-0.1096087885298284436697,-0.993956920444664770997178,0.0362477028359529454548671,-0.0162063183035357528949394,9.74271663757561690033526,0.00390332724615223645298068,-0.0207811792769739232811244,-0.00639912738901643463051983,8.39338216203403320037069,4.9748628408855521954024,1.22246262913116199300134,1131.3199935925874797249,1128.26061421510962645698,1117.35838164982442322071,1120.24674569797639378521,430.205864932313545523357,375.447288876065442764229,118.432621417971660093826,-20.5646532280302203332667,155.196468409053721870805
7.82500000000000017763568,-0.163856452796205198652046,-0.0833068321030808328631068,0.376108284374061241361886,-0.0344637819845122622686162,-0.00633356595184283218541443,0.0155336028194607237568059,0.00320003964145603846808141,0.00504867720894230931349966,-0.109629872896307559160256,-0.993954394934755902646373,0.0365377049751357332874058,-0.0198159029219675993094274,9.74095511753089127182648,0.00390715007412536022290972,-0.0207118780200454058459947,-0.00650903776819592490981981,8.39340673350588595269528,4.97482064339583018863777,1.22244656982802157862977,1132.39335762857490408351,1128.94571530195662489859,1117.75616015349100962339,1120.41408783232941459573,450.554630785675328752404,207.427424566516805271021,207.118551162752197569716,162.880454764510432141833,155.194777084450294069029
7.82750000000000056843419,-0.224599313672309341960442,0.0679950669715711358831456,0.17449784896145806301071,-0.0350675127817650783557113,-0.0060039504386325019333337,0.0150301647316729847236871,0.00325175237197772087557879,0.00505523212164425608111662,-0.109648023392208388004931,-0.993952196463658843583744,0.0366763791470054931198597,-0.0231415509576782425782415,9.73913626899629036870465,0.00390498606223461334346903,-0.0206627954403296870689033,-0.00662579605700194460005115,8.39342985367091465320755,4.97478028874214484034155,1.22243107517496096825482,1133.57276674651620851364,1129.29775133794237262919,1118.39397440563834607019,1121.06114797179907327518,467.491203279051603658445,94.7106172737241820414056,285.798531888082550267427,339.68214962051928296205,155.193162266971569351881
7.83000000000000007105427,-0.266932072677084408773851,0.200661415239870993820759,-0.00215914808319050965934593,-0.0353853227822127150425935,-0.00538185192032442343695875,0.0137464014775285515296277,0.00330519891604257824019308,0.0050591802135728529063452,-0.109662802930050887195712,-0.993950373487414440276666,0.0366655195086301385898331,-0.0261279708770111897264687,9.73729037905565419919185,0.00389881298926786270392375,-0.0206339017588795421709325,-0.00675268939758303342324464,8.39345165034296769590583,4.97474092080946128646701,1.22241660554036579711124,1134.73081364497011236381,1129.41926838832523571909,1119.1851528129313919635,1122.11249858043197491497,420.785412203449482149153,11.2996785942871298402679,332.341230916797769623372,505.812391739356712605513,155.191611901947567275784
7.83250000000000046185278,-0.293272035309187550922161,0.287424459435153822894904,-0.140150833230131777185079,-0.0353308698009955554630857,-0.00441062329067558496487056,0.0125656878891786637220118,0.00336253945742348570036029,0.0050568951776839721895529,-0.109674641349559537362168,-0.993948890451725519668003,0.0364321424837516574801732,-0.0287558413846862696849893,9.7354569518383122783689,0.00389113727324064042484286,-0.0206239246217152366602576,-0.00689285676170945521556988,8.39347187284445972466074,4.97470177595194762432129,1.22240322902039810770702,1135.67669380753341101808,1129.35424973091380707046,1120.05568056022229939117,1123.59020993049580283696,315.274485905144842945447,-48.678179151785244016537,365.523357081300275694957,716.028487308828289314988,155.190140193662870160551
7.83499999999999996447286,-0.304093850538391885507394,0.315076552380844809864158,-0.273654349763478466073252,-0.0351283968715955241535198,-0.00276502627375293900946485,0.0120824231410927799418298,0.0034251597096772914280427,0.00504842955105213372218875,-0.10968271542403498775009,-0.993947833625165144688651,0.0359723173306661300752118,-0.0310064604425767630091482,9.73368230600269512819978,0.00388477435275819127369346,-0.0206302379029166746415846,-0.00704905601368159290959214,8.39348977098593884704769,4.97466097639059157131669,1.22239092899945189785171,1136.30718607449580304092,1129.17587749256631468597,1121.01276959833785440424,1125.69264101697604019137,115.909894100925811244451,-70.9910016561495069709053,309.030658716671723595937,792.054346015510077450017,155.188465835671536297014
7.83750000000000035527137,-0.282656190387889305615232,0.264591280956347152386599,-0.373569583394149473676293,-0.0353019952438571940622758,-0.00135588377754922704589158,0.0120082166569458470561926,0.00348903338718804540558027,0.0050353364289596530198323,-0.109687159826526992034701,-0.993947193082036495326292,0.0353187793523972656806187,-0.0327697705381380377520628,9.73201890170525985013228,0.00388246776036685467201059,-0.0206490020064336483873735,-0.00722322643193486994134256,8.39350582253763555229398,4.97461752449667482522955,1.22237954092850009679694,1136.25624327803802771086,1128.99929472263306706736,1121.60083385380562503997,1127.55048166057326852751,-158.238106170896315916252,-73.3170111449469175113336,165.457468570870219082281,718.839726253842741243716,155.187147180189867867739
7.83999999999999985789145,-0.202064833196185122954347,0.137392257307053344828063,-0.473402545576927291648417,-0.0363053274235861020424743,-0.000270847759582414657295729,0.0115143445420162349873694,0.00355317138985478033624821,0.00501915780906828958018995,-0.109687973159872317885366,-0.993946963107060987852037,0.034494070134299691099411,-0.0340063700757280984454667,9.73052305176053700108696,0.00388659936874153786809383,-0.0206752874745847886606143,-0.00741660042281157803889524,8.3935207718150515177058,4.97457079114696565369513,1.22236832602900191702133,1135.51599554364133837225,1128.80929243684158791439,1121.84005694119218787819,1129.28683964824517715897,-474.253331452529096168291,-94.8109935954127820423309,10.2963500720309113489748,684.395247631815436761826,155.185907983391388142991
7.84250000000000024868996,-0.00410497464627332386832848,-0.090516872628560451907731,-0.593995844340428069685345,-0.0382564215245323538394651,0.000465887928549387885651667,0.0104162227153716795829963,0.0036179945186570086450295,0.00500201137004168891464495,-0.109686621116686061627732,-0.993946969178193695526602,0.0335261866230981628311802,-0.0347187421879666391344443,9.72925264677269296953455,0.00389878876017491328778708,-0.0207034958090226706151071,-0.00762949802552563994401114,8.39353515472656397378159,4.97452028817191038712053,1.22235672626500524451387,1133.88497662077543282066,1128.52523975465601324686,1121.65231560416577849537,1130.97245789873227295175,-692.43668504247239070537,-123.220785544802211575188,-144.675750096897360208459,522.603357811305841096328,155.184512236473068469422
7.84499999999999975131004,0.256587457924090045491283,-0.325258298918085608786299,-0.68957058815881222546551,-0.039665890191418182175731,0.000502405869552271589287273,0.0093791308634003020539005,0.00368294144498254290634454,0.00498606367341694872025171,-0.109683977804502216790716,-0.993947106444408978731531,0.032444799266216330091428,-0.0349043557534902681993572,9.72826504928838353691845,0.00391973378806541230406912,-0.0207278697147362314656682,-0.00786116427996195153704573,8.39354970187009286064495,4.97446602132329029899438,1.22234432298839568176163,1132.05381211842905031517,1128.19318850911759000155,1121.11667819070771656698,1131.8998564373016506579,-775.034200523685399275564,-161.808267282052639757239,-272.862035104304936794506,253.595564081075224294182,155.183424469032388515188
7.84750000000000014210855,0.604794899422982146219852,-0.576476948200467464999974,-0.766403117555944701777548,-0.0396193365611669720549592,-0.000234417135201714030030146,0.00821989762221968060795785,0.00374549660610880470745787,0.00497156236854058228291642,-0.109678842544857921281753,-0.993947516507588613166035,0.031246803793013387673394,-0.0345325924689913188458945,9.72761510527580774976286,0.00394914703038611990953966,-0.020743032933283101632016,-0.00810971824829865781114613,8.39356529468214418443495,4.97440963100788557937904,1.22233069054914711415449,1130.00980561815708824724,1127.71619841824576724321,1120.28800542864428280154,1132.24043571913762207259,-869.918788866971681272844,-243.528328120472139062258,-392.537062874846526483452,15.9439605066356850926468,155.182413730894893433288
7.85000000000000053290705,1.08208075410742687871846,-0.853156688570524734949174,-0.810086725501636517599025,-0.0375525195248119295077238,-0.00227101555186561519794619,0.00574952437039118104816771,0.00379926530771217824122843,0.00495770945876716512962235,-0.109669213096358103554095,-0.993948449130535260920283,0.029918834905553824687896,-0.0335089415577462246265128,9.7273527138609505726663,0.0039856816213695691122898,-0.0207444719615166861537148,-0.00837215243837291858697292,8.3935830546135790086737,4.97435304676973188975353,1.22231594851110769717195,1127.70421817409351206152,1126.9755468685150390229,1119.15399287633317726431,1131.97957623983484154451,-763.252574146706933788664,-290.887521550218309585034,-402.993254339489283211151,-193.365321902369515782993,155.181288324438156678298
7.85250000000000003552714,1.48996647582243757490517,-1.0284760363894889234615,-0.783548238018277998229166,-0.0345187451629383121320949,-0.00506463183024508014490328,0.00254510204405583627743082,0.00383991670551621323489999,0.00494426703659638262788878,-0.109654867315627943535894,-0.993949947166025804534684,0.0284570302357360707667944,-0.0317924174240945267566616,9.72751973806218117601929,0.00402698941051437327848239,-0.0207286885696395320466401,-0.0086446812637457313976963,8.39360313158132420596758,4.9742976701950611939651,1.22229993304248019114766,1126.19354274742363486439,1126.26176081049470667494,1118.27303915694687930227,1131.27360910962579509942,-461.380300988922328997432,-287.447501765843071552808,-293.507019616624234004121,-358.543394493661594424339,155.180422270919990523907
7.85500000000000042632564,1.85943457436974890484294,-1.10993539877713076613475,-0.677033423866552852565803,-0.0304196725628780133277029,-0.00884990496586183020277794,-0.000755529906681817633833098,0.00386834720915645502090086,0.00493175383033068234078788,-0.109639585723204369127615,-0.993951587365570876642096,0.0268653285672663319494369,-0.0294556768486231614068149,9.72814786212622806260697,0.00406995314535149588230922,-0.0206931677088208476611442,-0.00892297170826955414468795,8.39362541204457457411081,4.97424412221020695312745,1.2222819502670398961186,1125.39731666914894958609,1125.53830935968585436058,1117.68645777825008735817,1130.18685926736657165748,-171.912067611177945991585,-276.01468973926466787816,-155.093275556240428159072,-476.754400850005538359255,155.179629481424143477852
7.85749999999999992894573,2.16097171624856665417269,-1.09701022703572070859934,-0.510949998383282921743387,-0.0253134530692700372711545,-0.012893129839090697666415,-0.00304232448712599265125411,0.00388821179897309073675293,0.00492209848236384913539032,-0.109627446222374552720069,-0.993952896260396179251018,0.0251744624309391470950992,-0.026636353797559773198822,9.72925740622886792152713,0.00411119115014247846207063,-0.0206362431421539156695122,-0.00920221338217823772720472,8.39364934120353467505993,4.97419233140661187775322,1.222261018747633265491,1125.33398240936776346643,1124.88168736179841289413,1117.49757277916569364606,1128.88983710537581828248,161.267701322552767351226,-232.998153159046950122502,44.9315378802121401236036,-545.647569521190916930209,155.17889658033672617421
7.86000000000000031974423,2.34042504761540426372335,-0.969929720969131103913696,-0.29920678171108744392015,-0.0188133249575679062370881,-0.0163274082559726613217421,-0.00387611139485471642429637,0.00390269800989200043098148,0.00491979915208118085551137,-0.109621741651514614801499,-0.993953476317157691433124,0.0234718579966442728035325,-0.0234749575910739617656819,9.73085666109006375279478,0.00414740324025355232284706,-0.0205569511510178409841032,-0.00947727410716194505757581,8.3936745787182456268738,4.97414200612327217498887,1.22223691258242861401584,1126.20365517576169622771,1124.37331859389064447896,1117.91111546765114326263,1127.45862141976067505311,578.092738473618283023825,-181.961846643165927162045,326.352655364332917997672,-635.67572745143013435154,155.178234929909166339712
7.86249999999999982236432,2.37793351898501192920321,-0.707611186699007577161069,-0.0321054350115084208283633,-0.00993474647691726560350123,-0.0192150639142121028302146,-0.00390224750743988543083551,0.00391369705137609939088472,0.00492706817495653162652935,-0.109624362055813009964034,-0.993953101256911608629707,0.0218096129916917000346466,-0.0200862748768462044679506,9.73294266518687400946419,0.00417574347005144133615495,-0.0204548818505117559196638,-0.00974296297803061914222233,8.39370072479409756738278,4.97409246219882739126206,1.22220955950206766615906,1128.22444610173579349066,1123.97187812858260258508,1119.12933605598732356157,1125.71145846811873525439,867.790236867195176273526,-112.78761102680859096381,547.490952536339023026812,-632.157268111054577275354,155.177522179194340878894
7.86500000000000021316282,2.25446244728203382123866,-0.423191156119381794997736,0.175672214392809583616284,-0.00273570020988059747421572,-0.0206087466649996220446894,-0.00340586330034305670780292,0.0039192055872285290821222,0.0049441072534946598274197,-0.10963364423020052762503,-0.993951961692166818806982,0.0202149939771775130625819,-0.0165073280395414100085727,9.73550165555226421076895,0.00419408687280045308631848,-0.0203301107962267912920851,-0.00999432149238663886103851,8.39372699690239798542279,4.97404305473035535101189,1.22217907086327115528945,1130.5426063600975794543,1123.80938053875661353231,1120.64857023033277982904,1124.2978350792054698104,999.326475552268902902142,-30.5514728978730545350118,663.406701314203019137494,-544.787096893065950098389,155.176995157505444922208
