t,ang acc x,ang acc y,ang acc z,ang vel x,ang vel y,ang vel z,quat x,quat y,quat z,quat w,acc x,acc y,acc z,vel x,vel y,vel z,pos x,pos y,pos z,mot 1,mot 2,mot 3,mot 4,dmot 1,dmot 2,dmot 3,dmot 4,vbat
3.51000000000000023092639,-0.184467847839368953577477,-0.0112898175420478273645042,-1.26286708426121485615568,0.000205950048798079663695676,-0.00977244115387367398573026,-0.000354896162490149318091692,-0.00025904000478767111401851,-0.00263876344093931687606602,-0.125091995192015581483957,0.992141364458558827621459,0.0580030035201787863563538,0.00833431014550722014389006,9.84231822185302007710561,-0.0117281508705404796666372,0.00604621594347048377932063,-0.000129240887664044322392584,-1.4797845557215469902701,0.65431737736293948959343,1.21339578380196289053572,1098.99684925301721705182,1129.8995741219378032838,1120.14788618058628344443,1097.54336901871465670411,-241.445185026992163557225,351.781345775869567660266,-58.0165313957435131442253,216.783610565112297763335,162.855064888785733501209
3.51250000000000017763568,-0.116992225229922197637933,-0.152018358584767643293389,-1.05082297076536845814587,-0.000648016658093594549380767,-0.0096708121740894312234893,-0.00547758357351606130908328,-0.000296445950138038503540033,-0.00265082728153875034349252,-0.12508642164045521982807,0.992142028512712048637923,0.0602552821936099131105991,0.00533943528204308508200437,9.84137791295342267972046,-0.0117550935168707609140837,0.00605990382612029386544261,-5.46775967637126088000295e-05,-1.47980532611383774899139,0.654350753997893108682149,1.21339433848513356117849,1098.32027773606205300894,1130.80073731509128265316,1119.86104102329204579291,1098.25724697069745161571,-288.234885637354409482214,332.443347049736814824428,-173.099764993006886015792,345.098991017319406182651,162.855379310803442649558
3.51500000000000012434498,-0.0324867004366569539497434,-0.303716045442267934539871,-0.665045628180589765143793,-0.00147481832770224416569171,-0.0101757883229419716225594,-0.00960804383335717160363743,-0.00033049766120555164545039,-0.00265262322230896529368094,-0.125074321505160235279419,0.992143547697322270018105,0.0623866788031168101325008,0.0023519587213525362107136,9.84052414406454367679089,-0.0117770246454063903102094,0.00605004323370639598977938,2.00171020413271819884341e-05,-1.47982714601852216596001,0.654382956945215865651733,1.21339485392029700072669,1097.55567482483047569986,1131.56179085718645183078,1119.28238735562126748846,1099.26886397380121707101,-333.625377051119187399308,254.257627479870251363536,-300.79824344680406511543,471.060122537856898361497,162.855657857125692089539
3.51750000000000007105427,0.0712233047342269581791996,-0.456482899883908110894026,-0.0864762569570130534835073,-0.00170550783585285024510081,-0.01169670303663311594633,-0.0116884114060762604042631,-0.00035702380370107979559724,-0.00264594780371301069657464,-0.125057647369264529624289,0.992145670286727288100792,0.0644020300708610660134212,-0.000479705884296575610359348,9.83976096861651150504713,-0.0117934185048834839354415,0.0060196268901597793643532,9.39163616884944351444892e-05,-1.47985020986199256043392,0.654412244053870328919231,1.21339662804432357745554,1096.65215085080649259908,1132.07202545249060676724,1118.35704980605805758387,1100.61254758338668580109,-313.30961613280788924385,93.0855612168690527141734,-360.649848453711854290304,479.182432484013816065271,162.855944875030957064155
3.52000000000000001776357,0.140533950672693946915004,-0.53100334087495804080703,0.40927137246347716770245,-0.000910685598029922836575689,-0.0136744962020440650324327,-0.0103675962777889565241685,-0.000372285262253146476477128,-0.00263770975465258501399535,-0.125037096129789998544268,0.992148289279350281688608,0.0664073432923452111609208,-0.00301220135587434469093271,9.83909156733429846042327,-0.0118037201706135685963517,0.00597307797704565990315473,0.000166393806809525551413873,-1.47987475185617700645935,0.654438658361860658985165,1.21339902117611297960309,1095.98912674416646950704,1132.02721866327078714676,1117.47913811335274658632,1101.66477613622123499226,-230.790928842412000676632,-130.2396443637945253613,-355.12668212964700842349,368.210335645707004914584,162.856140658456183700764
3.52249999999999996447286,0.171904368051958633678566,-0.526611556664947966233115,0.82203288644458960554573,0.000442725432590594355011793,-0.0159772701067509015349088,-0.00660832175526978454760396,-0.000375278792223436477148296,-0.00263045446269507014400157,-0.125012580425070102263518,0.992151408360797515406659,0.0684305019048107587842367,-0.00517747472658055402083832,9.83851926159367984325854,-0.0118074425319753453095251,0.0059157776130083000384885,0.000237062084078503018062106,-1.4799009618205765104193,0.654461964185763300783094,1.2134007783928266732687,1095.49819620659445718047,1131.42082723067164806707,1116.58141639540986034262,1102.4535992616151816037,-163.573190464197836035964,-386.075646818434563556366,-382.839552974482103309128,254.049560951039865130952,162.856286818352572254298
3.52499999999999991118216,0.158150954439873286938578,-0.421514212969022916688289,1.14282133455838907920565,0.00176694502337210439940618,-0.0183803192004474494347654,-0.000994656812604375294151193,-0.000369547419475879939006202,-0.00262197488493573754170241,-0.124984161754442935077236,0.99215502338710470642269,0.0704182677224126502002477,-0.00702024619498071988932253,9.83804757784635341977264,-0.0118042835946451114131905,0.00585354592144475202597498,0.000305760755769193511358073,-1.4799279465946475475846,0.654482103679689397601749,1.21340140475574109757417,1095.17126079184549780621,1130.09684042917865554045,1115.56494034848037699703,1102.93502394097640717519,-72.2622095534022150786768,-557.71067136812519038358,-352.558044780524369343766,87.7899844331314511691744,162.856400213495760453952
3.52749999999999985789145,0.110156415969089163664485,-0.257770570679152211113205,1.23942993298155523795856,0.00224507699412212179124193,-0.0197967915276023344317569,0.00375001511554897163855382,-0.000358803709659497819389751,-0.00261388699783362014536503,-0.124950187540961321630562,0.992159335965399291623612,0.0723931477315116478354895,-0.0085919756903470763387265,9.83767928249789491701449,-0.0117941564935584684847836,0.00579220127407050790202536,0.000372535344288516001055867,-1.47995508486375459966666,0.654499805831855852034096,1.21340147021030153595689,1095.13688515882745377894,1128.63227387383108180074,1114.81862617150727601256,1102.89254918378082948038,32.4294855807216606535803,-610.16179313315183208033,-267.0440785308803128828,-106.602422446796566646299,162.856440461642932859831
3.53000000000000024868996,0.0388575921734000961915712,-0.0353704346762925697644775,1.16399631902358757784555,0.00207723113896147006454673,-0.0205081932242322934056844,0.00783222910697520605105559,-0.000348240456382583945735276,-0.0026086543948544084654817,-0.12491482724058347586471,0.992163811867358247376103,0.074398661185155867681118,-0.00998294369443491862170514,9.83741655306133466751817,-0.0117772566325978367968164,0.00573696590851965285834391,0.000437446068919644323342438,-1.47998261722354285119252,0.654515591300496080151561,1.21340166293819784470998,1095.33340821974911705183,1127.04603146351269060688,1114.2297199558258853358,1102.40201182874238838849,125.561683556352988944127,-659.301572283858263290313,-211.647795316761659023541,-299.133630853182523878786,162.856422354027273513566
3.53250000000000019539925,-0.0586261087551167778264549,0.265461416101057445793288,0.913477094782151333163256,0.00155102995530142584792999,-0.0204956643628113888144782,0.0115761223680513180428475,-0.000340821253028875841614015,-0.00260923143911523380822359,-0.124884288809909843598334,0.992167660431172548918255,0.0764835718472662851041832,-0.0112496474926878659711393,9.83726088440538504187316,-0.0117539855090028604739372,0.00569223101831389799443173,0.000500456368943067754495591,-1.48001083009821132741024,0.654529447635077588074637,1.21340337803088571533294,1095.76469357660926107201,1125.33576601241156822653,1113.76038719492339623685,1101.39688102951481596392,174.713901140106912635019,-553.099618934323189023416,-125.58349125579564997679,-415.372925908568277009181,162.85633209213386862757
3.53500000000000014210855,-0.144221318156734557014431,0.515250631196994213212292,0.612539668359134203967642,0.00109610360164212453960852,-0.0196783890643704890976995,0.0135987044627065688934264,-0.000333929336972276261889109,-0.00261970167608746367857164,-0.124858652544225942615519,0.992170860216649574958581,0.0787063480800428150185866,-0.0123464528857156509433768,9.83721288101742175058462,-0.0117248571566817665068339,0.00566145635596145002654822,0.000561497386661848475568337,-1.48003915868546953582552,0.654540933149180825800784,1.21340680798689026786974,1096.20697772544963299879,1124.28053336884113377891,1113.60180249954692044412,1100.32514719919959134131,172.389296664236127298864,-314.753279521671515794878,-9.49366583026878529949499,-446.426251681269093296578,162.85619984950972138904
3.53750000000000008881784,-0.233121181822272788286554,0.726499153945215470074004,0.271297565983067034967036,0.000716083316751915774540926,-0.0178690077311821973737871,0.0142500342135626692496864,-0.000325890581323010574375798,-0.00264058995554245249867686,-0.124835347210032476805708,0.992173733298261195656664,0.0810597553143979354661752,-0.0132618685832601203300474,9.83727251606256736238265,-0.0116905187732398840178005,0.00564677403578365579017717,0.000620656899610403343936493,-1.48006675100102547126824,0.654550954224726755370511,1.2134110014737242710936,1096.6266400599304233765,1123.76199961480324418517,1113.71291886577205332287,1099.16474977110851796169,149.041492031031793885631,-113.432778804738205735703,90.4997939649566660591518,-456.133975483736037404014,162.856009546130280796206
3.54000000000000003552714,-0.325021593088812288385725,0.87880348475603542457435,-0.0630353825898858216580933,0.000350889716634357657926852,-0.0151635479875129181026594,0.0139196480061453530668869,-0.000318238652074884686895423,-0.00266722659449123138813986,-0.124813458805952140484585,0.992176406066889837731537,0.0834445402461903712465485,-0.0140636777357810993649423,9.83743905085970915536109,-0.0116517110989793441777618,0.00564863973429374430224037,0.000678324407848385603839181,-1.48009392164565456440073,0.654561169788551500126061,1.21341453746446226169553,1096.95218518560477605206,1123.71336947481745482946,1114.05430146937169411103,1098.04447732178095975542,93.9394654469217158521133,79.8382829222663303880836,189.427530713332487266598,-414.278699397854950348119,162.855772705465824401472
3.54249999999999998223643,-0.418091035682187805999632,0.935989469940376572765217,-0.34779252645148089895244,-0.000141935334000272035670509,-0.0115697979970074242561662,0.0126754395209666501781465,-0.000312452217293620010223065,-0.00269772519002640931429227,-0.124793846850645373525168,0.992178775816711544521809,0.0858171496146773321589407,-0.0148126533718738670475368,9.83770981591900017804164,-0.0116091710344517415332,0.00566576243990984593223992,0.000735301061606590867537891,-1.48012054343484567020539,0.654572359476034426606361,1.21341619007099366100988,1097.09633738716502193711,1124.1611910294145673106,1114.66005651933869557979,1097.0933562741192872636,12.6191459779877686031568,276.718569969222244253615,318.771880642414089379599,-354.658627203578646458482,162.855482605947116780953
3.54499999999999992894573,-0.521057152186170879915039,0.885980332570367457023508,-0.592268061139797241665406,-0.00111441420632367362703041,-0.00718815588089777041808093,0.0101532573116944729169076,-0.000307884603334879799856061,-0.00273241250001841906591693,-0.124778348051144682973046,0.992180613140213996103967,0.0881734393040304459399081,-0.0155207346079773711444716,9.83808002951080950992946,-0.0115635725067485990724681,0.00569522721251268081860131,0.000792554485979404181421326,-1.4801459193250956491994,0.65458539898036915971602,1.21341591329164510959515,1097.01528091549471355393,1125.09696232466353649215,1115.64816087258373045188,1096.271184185763104324,-71.3387535951839453218781,379.377091182649451184261,395.430913490926513986778,-236.133431210105783293329,162.855077190121903640829
3.54749999999999987565502,-0.587192340568916004706068,0.759506253466447067701495,-0.697803997217737559388695,-0.00238609880074739299712916,-0.00438790255163953868411397,0.00741741460284030002664268,-0.000303147924775116052540508,-0.00276716571520183940782744,-0.124768260295636507217765,0.992181768904733751845981,0.0904218375801171675432144,-0.0161920263012994489204566,9.83854353073567011733758,-0.0115154564955784206176093,0.00573277531425329858055795,0.000850804124224504524504065,-1.48016986693958574328178,0.654601413463423487115733,1.2134147862752207025494,1096.73964361918910981331,1126.05807648532777420769,1116.63721108679328608559,1095.91268911806878350035,-144.530001491456715712047,389.647825828588850072265,411.726942345803252010228,-69.9177570725121881878295,162.854694251543151040096
3.55000000000000026645353,-0.615141052229760010305881,0.580896481596106295519633,-0.699082078603693868323887,-0.00415628855443595911917098,-0.00294146152366498618915824,0.00464246939524377670582833,-0.000300494197199142269293776,-0.00280172757814094652503711,-0.124764661097935561362426,0.99218210978225129803576,0.0925562107044122645005402,-0.0168859744852455952168757,9.83909148590528381816966,-0.0114651462429235812684469,0.00577320341269844331671957,0.000910544808523468989294725,-1.48019269880959281060484,0.654622074391888464361955,1.21341440393555877186316,1096.29263090803738123213,1127.04520145380661233503,1117.70679558431288569409,1095.92159540040051979304,-218.631851438598260983781,412.600797639124152738077,458.986337688853325289529,82.4287816715640246911789,162.85426661669723102932
3.55250000000000021316282,-0.586939367464774708338382,0.355014907141011581970247,-0.60153777082426862499176,-0.00654345183084862475064725,-0.00253389174220081765318002,0.00204338620385497837100841,-0.000298909042463713623717647,-0.00284015734374593606728632,-0.124763403289306393229019,0.992182147787723067722254,0.0946474455918015905586671,-0.0175807301081359890204681,9.83971239506342953973217,-0.0114126709333470088142404,0.00581108375912242278160669,0.000971926006805848546193927,-1.48021535530972259131488,0.654647385863586950272008,1.21341592872440373618304,1095.64648436199604475405,1128.12108047352353423776,1118.93214277523770761036,1096.32483302642663147708,-240.120115887253291475645,362.062370409656523406738,412.944382612122069531324,199.915965938866690976283,162.85370285981940696729
3.55500000000000015987212,-0.505331670883424344253854,0.186187369043677858337915,-0.465256268531372862984341,-0.00842722348281999683594634,-0.00278501332143009936240241,0.000719548779812156555878155,-0.000293025191889975406694946,-0.00288254821606299818995134,-0.124762262441281940317239,0.99218216587304675080361,0.0966788966719959869111634,-0.0181712486739734543905733,9.84039336250774887560056,-0.0113579552153148227028323,0.00584126189249104671441515,0.00103471482046319342498752,-1.48023853702986185609802,0.65467503810627369897901,1.21341882432322067941755,1095.09203032860114035429,1128.85551330585485629854,1119.7715174973734519881,1096.92117523009483193164,-207.694427382061689968396,246.648201232170123375909,267.050353965538533884683,268.521129462720921310392,162.85319078365304790168
3.55750000000000010658141,-0.364733577630271921243832,0.057844696861166361445683,-0.309936632929405875280793,-0.00973850008477342328483406,-0.00300464955577381398477144,0.000240592492299308960456219,-0.000282626853994780017406002,-0.00292368803454798494023681,-0.124762895046395649867321,0.992181972750205254385492,0.0985434003779684097867886,-0.0186583797417016472586226,9.84112010840449791260198,-0.0113010013267357701388649,0.00585929496440497875331399,0.0010986151296701921701443,-1.48026144663044512128636,0.654703959115447431393875,1.21342232578898689965285,1094.60801222508575847314,1129.35432147968435856455,1120.26739454506537185807,1097.6674386737402073777,-180.824024848474664395326,151.520229497012735464523,115.430500037157528936405,330.019016880721892448491,162.85263361627067979498
3.56000000000000005329071,-0.138366678684661903453446,-0.0406719556431081596947763,-0.141378542770707743558845,-0.010771999493429848179793,-0.00334037380055918079260757,0.000454595747661655589372254,-0.000271692288700761078613227,-0.0029552866359974418880574,-0.124764785663083271893825,0.992181656726225824627363,0.100084200758526947749871,-0.019126533301960894906113,9.84187662129007101441402,-0.0112419128950345410117295,0.00586188086640585144515558,0.00116343982118540705331111,-1.48028318675355419209438,0.654734105097947272078329,1.21342625992866115502977,1094.18791020435878635908,1129.61311445333990377549,1120.34866999755922734039,1098.57127031449840615096,-120.413761416605510135014,31.2584025796247573225628,-57.7096207934585905263702,309.491122820015561956097,162.851910138911534886574
3.5625,0.0869734636553876477860214,-0.0756884974321523074092255,-0.0367068384201960640211837,-0.0115719659842200058713635,-0.00390362281585324372504275,0.00111541283602783060195651,-0.000261023626084178679996467,-0.00297643015225905254936278,-0.124768476663997415765373,0.992181149449364419012909,0.101280967973783123103892,-0.0195755795735849703886888,9.84264358700981745187164,-0.0111808776223347415557097,0.00584701990462298520218054,0.00122927886147229290490779,-1.48030318986402198433439,0.654765126577528056017741,1.21342987332533391864331,1094.00594341800274378329,1129.51061349258247901162,1119.97884644109808505164,1099.2148942878402522183,-36.2470337432122065024487,-107.640973203299395777321,-220.352677250734956260203,212.686499627902776410338,162.851258658102125309597
3.56499999999999994670929,0.32901542390667121162906,-0.0667620366336763304548896,0.0193160048835263747912805,-0.0118442971082135962285209,-0.00460342612779215953899836,0.00200182950603957580254511,-0.000254170918396417740234977,-0.00298514166689723423400715,-0.124774681645852564271237,0.992180364725339103415536,0.102099500765820805359141,-0.0200595846019676823934752,9.84339937766838879440456,-0.0111180423707675293809594,0.0058142222570042078125252,0.00129639283289200639252836,-1.48032280995276854795861,0.65479655821442095398055,1.21343335280591935187999,1094.00667503564272919903,1129.07490958732341823634,1119.246906611305576007,1099.63470281263789729564,27.3390874719558638616945,-221.748667268052656709187,-326.739864971939539373125,121.330660312289950297782,162.850553134144092837232
3.56749999999999989341859,0.559545228942296746232898,-0.0309440753237059246183449,0.0376082480538969810002214,-0.0109579798953888113421939,-0.00494231383335097095715893,0.00275882763582615533545783,-0.000255363423306797533967466,-0.00298285055637232884850896,-0.124782994032930721894914,0.992179348141487227330515,0.102573915710098703679698,-0.0206380224439185119833517,9.84411928523017643044568,-0.0110534055132356489464796,0.00576467302383593289960562,0.00136523044402602411126479,-1.48034395840531818322461,0.654827658835861803332534,1.21343737517126970537618,1094.14263885536252018937,1128.40187015624223931809,1118.34514711623842231347,1099.82154758940168903791,79.3185996135836006715181,-307.016272196485431322799,-364.361800216804965657502,17.0184376499025695750333,162.849801037192861485892
3.57000000000000028421709,0.738722553245258040099941,0.0204294789086561720536928,0.0254295704517151291423893,-0.0085389485878367196031169,-0.00445221794902033417284937,0.00285313433260952521719478,-0.000260903152583933110788411,-0.00297624524594309290692618,-0.12479314650942432973757,0.992178111385156213941627,0.102821774921908595801234,-0.0212053543917568518284433,9.84477548160306170643707,-0.010986924693582620499166,0.00570121207424931827206782,0.00143634280898912065904671,-1.48036704938928154184907,0.654856746742080608747472,1.21344173414935374566426,1094.40326803371067398984,1127.53982822634088734048,1117.42509761022142811271,1099.71979500088741588115,132.20779777924707332204,-388.775813862886138849717,-366.508874665780979285046,-102.695490353782929560111,162.848992364973952362561
3.57250000000000023092639,0.853982003605558204206716,0.0819178647983263286125322,0.000997979325686848550702734,-0.00481331077961466742565211,-0.00348199896615936912644407,0.0021909635888626563179904,-0.000265456916069921431289985,-0.00296829404633604503754851,-0.124804622088371355848047,0.99217670873865482228382,0.102884223007698172303037,-0.0216381345419723279677182,9.84533837542670475784234,-0.0109187465701548313407043,0.00562810019350666948523276,0.00151031641329213146655863,-1.48039181991694124285175,0.654882414198618589828982,1.21344570869532875079244,1094.80367784425880017807,1126.45799108692767731554,1116.51260274290939378261,1099.30807013763273971563,154.614171175993419637962,-376.49194978895030772037,-281.473068285828617263178,-188.012698447577719207402,162.847958227312346934923
3.57500000000000017763568,0.851833196897581412798672,0.128218929100954670552426,-0.0131522834473271812288919,-0.00177784400805448199005265,-0.00282211976050769424925746,0.00143398600675468355925002,-0.000267665391689769153592965,-0.00296225213412055696227121,-0.124818105899093409472123,0.992175042149035069094509,0.102818191005061287945921,-0.0218962225382327291267615,9.84577590740761365850631,-0.0108493862367753535896897,0.00555052866125329679575229,0.00158790554062228752088548,-1.48041693816131791905377,0.654903573403422423204745,1.21344913773819773616935,1095.17633888959062460344,1125.65736847739617587649,1116.01773226879231515341,1098.77973150864954732242,152.766616251441149643142,-267.411381961261440665112,-131.515913105616249367813,-234.365474265001012099674,162.84704615308854158684
3.57750000000000012434498,0.748171614144686136782525,0.17300203385983606296783,-0.014991833764361632563844,0.000831638800579396391191023,-0.00242054953321133980298496,0.000823927437282291879466767,-0.000269019326252129160892412,-0.00295792005851203219229939,-0.124831767391536230249471,0.992173340274554282913755,0.102620600771456460531539,-0.0220114147753097746940121,9.84605449268043209087864,-0.0107797147956277122871072,0.00547411153295675710628299,0.00166984500101334965710409,-1.48044097323354884032653,0.654920306825308440323852,1.21345189508152850876854,1095.5675109255159895838,1125.12093417712139853393,1115.85502317738132660452,1098.13624276630775966623,175.914558527123631392897,-147.617488866356751486819,3.7447586503731944418405,-291.334120114021800418413,162.846087129769131252033
3.58000000000000007105427,0.524932029058275184674187,0.234095590553541149647643,-0.0101431404952521085627293,0.003379510662269112446221,-0.00196073116521000654494111,0.000428519970903350102663792,-0.000269698965475563339714432,-0.00295260686662797812787606,-0.124843319485485590436546,0.992171898575047950252781,0.102237077865471912008211,-0.0220037401329135628991196,9.84613946578592447167466,-0.0107108112326523546159462,0.00540423037228210390026106,0.00175669255031066966557529,-1.48046441384123883544532,0.654932879127127942631148,1.21345427450093690247002,1096.05591168222622400208,1124.91928103306440789311,1116.03645606204418072593,1097.32306090807946929999,183.093492398806375831555,8.36400295352195399800621,122.333778293298450989823,-291.328833593349202146783,162.844890514551764226781
3.58250000000000001776357,0.279149465671865881777336,0.297376639315911239780377,-0.0116768522918118625858463,0.00484660932419865141812521,-0.00151790230440250147915526,0.000406033601227515127465861,-0.000269019314944300951941009,-0.00294312475202524164580309,-0.124851452230792123176961,0.99217089327052498948234,0.101602058826154945103681,-0.0218844747198435538027006,9.84599533881688415704048,-0.0106437310185957933333922,0.00534541239005738473555329,0.00184876157629043028768345,-1.48048764745775818241214,0.654941617729604907971463,1.21345617763061852656392,1096.48297838751000199409,1125.16275419188900741574,1116.46669206884780578548,1096.67959859834104463516,174.02354105757157753942,176.198823749659027271264,218.549243523698464741756,-234.372511371116615919163,162.843862919459070326411
3.58499999999999996447286,0.00706017988965046416893756,0.37854553422923142846912,-0.0351234052699253701534943,0.00510446414434088079070673,-0.00108250945358482394270672,0.000667888961331139854871175,-0.00026689472405687028350868,-0.00292693647743447584244625,-0.124855013769551714819528,0.992170479692568441087985,0.100664718825720853057071,-0.0216806976539483629851102,9.8455863077392429261181,-0.0105793025848613612277527,0.00530080085255502098107172,0.00194606091165987963968742,-1.48051071383642174339457,0.654948191316002126249884,1.21345783729514367088598,1096.92602938751406327356,1125.80027515181268427114,1117.12920227966264974384,1096.1511983512239112315,175.887702134154210398265,303.105639721349803039629,294.030893520272798014048,-182.227742010995171995091,162.842814019036609352042
3.58749999999999991118216,-0.257209532791811468221965,0.474925817640900416183314,-0.087031052570422692826746,0.0040413055071202297341415,-0.000592748069913765353138035,0.0010941757104118759926642,-0.000269337732737918653103115,-0.0029030259823731138953129,-0.124856363487912333520846,0.992170363961214163417424,0.0994194060060092782427077,-0.0215383430549090822136993,9.84487678952974576418455,-0.0105180247102305505363384,0.0052716721598366021034332,0.00204828852655799305976236,-1.4805324074642722820272,0.654955226684935887249139,1.21345905047895352701914,1097.36241689818075428775,1126.67828239049572403019,1117.93684653644913851167,1095.76845988828608824406,164.237553783326660550301,376.754899729129476781964,345.854037136821830245026,-110.951421645770636814632,162.841754794298594788415
3.58999999999999985789145,-0.48278356347893952582595,0.583326383975557027916636,-0.178968815903591454974375,0.00194505457541442930945175,0.000167796359488430943656539,0.00154708244487575556289083,-0.000279063335274973333202664,-0.00287253494755806320151703,-0.124858920456057106984638,0.992170113610604365028678,0.0978947197631332699518936,-0.0215351417616833559764977,9.84383265313556776732185,-0.010459916052223027643775,0.00525745320109660858876044,0.00215462726358003030247001,-1.48055256592226380796262,0.654965260636553581186092,1.21346013637751704017376,1097.74721715643067909696,1127.68404965045829158043,1118.85847246534672194684,1095.59644124299506984244,144.29590617582042000322,421.399022236590781176346,414.849806218916626221471,-27.3385582585415001233287,162.840691061535636663393
3.59250000000000024868996,-0.69066402836526274988671,0.709163789455653170712424,-0.32959877103454682245598,-0.000340582505717155624609671,0.001735271715346407795863,0.00174858272325343917091844,-0.000294153658015471552132636,-0.00283983086340047026149835,-0.124860702186903274601981,0.992169967606808977933497,0.0961707821547232305503528,-0.0216503585028522890776337,9.84242210557702001949565,-0.0104043414423300156074204,0.0052561671777670597102694,0.00226367905325399907875972,-1.48057272283303387183651,0.6549792546706210139007,1.21346212337052583585262,1098.083896429059905131,1128.78527750167882004462,1120.01109556754386176181,1095.63176709699337152415,94.284167238713962433394,347.402895581512154876691,417.444429474079697683919,46.304098631386807483068,162.839418412577089156912
3.59500000000000019539925,-0.810161067254954070371298,0.791977622083613552739223,-0.47341462799041433839875,-0.00172332772031729580287929,0.00380002833129866037994993,0.0014419740842699368954527,-0.000311983240604271638580364,-0.00280992937148623811091652,-0.124856680056294605529743,0.992170547627397203527266,0.094338486082300540558343,-0.0218454970496394229595438,9.84061692264242360295157,-0.0103500995579516603256609,0.00526489385813310849931979,0.00237350056462204677537597,-1.48059452567176652593162,0.654997392623057561600319,1.21346659242781163001723,1098.21863799262428074144,1129.42106412836596973648,1120.94569461271726140694,1095.82796173615201951179,17.5737957662026111904652,154.032557250824197581096,354.177096802421431220864,99.8089107667077257701749,162.838366787477383468286
3.59750000000000014210855,-0.872961848420049868479964,0.830299792060034014262726,-0.606163454289491587800853,-0.0029740186723179917911708,0.00666952341218722370708161,0.000641529322763315372653292,-0.000326182231621862262632705,-0.00278484015993427959367867,-0.124843737762997425422284,0.992172243284019095277415,0.0924208818705606199861435,-0.0220118350345117966271324,9.83839392204288465393347,-0.0102957856010618218484121,0.00528023901957324660882964,0.00248169926503084012706091,-1.48061917278079668847113,0.655018812573468389715003,1.21347329170126627673199,1098.17176540789091632178,1129.55544028793292454793,1121.78198105155593111704,1096.13081165082689949486,-63.5676652537326773995119,-90.6952313123857720711385,332.248026127452078526403,140.784919725550309976825,162.837330215201802730007
3.60000000000000008881784,-0.869668271764981293259211,0.812648434118071083531731,-0.705956104705613540772902,-0.00514065845434686329029628,0.0104133939429674800963843,-0.00153771190420033958441703,-0.000335891453187127364803793,-0.0027688927556093166637563,-0.124823710704755438949398,0.992174810693244202397523,0.0905003543622416167790945,-0.0221366653904473305314315,9.83573445500045728806526,-0.0102402611260443004992382,0.00529869489847634416584965,0.00258594795598948365422665,-1.48064581334333600359798,0.655042299367512459440377,1.21348103348722191618947,1097.90079966635562414012,1128.9675879718040505395,1122.60693474335448627244,1096.53188633477975599817,-131.94017221649400539718,-349.973078783849075534818,265.498503511668104692944,141.372539987153970741929,162.836109161891329222271
3.60250000000000003552714,-0.7842371966344772182822,0.7507949368796716926866,-0.703499410803984814855028,-0.00792072986523672910308402,0.012959303968665658243764,-0.00481651475553923277828083,-0.000339310499114707790797862,-0.00276479813536077093788501,-0.12479947302998901925708,0.9921778805301019188434,0.0886264042223681436372118,-0.0221867382290811543388287,9.83262565270049826438026,-0.0101830874944392954506434,0.00531705944881022754544553,0.00268403919799743272828207,-1.48067270202154865899047,0.655066641356658041495109,1.21348945899923688074296,1097.51206454680846036354,1127.8055748940137164027,1123.10947356911424321879,1096.83767435076265428506,-181.32202767929288711457,-592.881183612384006664797,154.991978565252452426648,102.290565460909775197251,162.835113767326447486994
3.60499999999999998223643,-0.59662814371933148294147,0.662423840945113751033091,-0.584561096837555860261659,-0.0111013583910924452935465,0.0144655331050081818744513,-0.00885826657337363682076514,-0.000337144433132146030974302,-0.00276727819364236665017343,-0.124774536864556473414467,0.992181023000958672852789,0.0867006892147718366548048,-0.0221910270611685826736004,9.82906136026101862057658,-0.0101247976032661536616164,0.00533260321096414545427589,0.00277391047168462157382351,-1.4806983100187209867471,0.655091233931372474152965,1.21349761618195173262791,1096.99418952795917903131,1126.00318205374219360237,1123.38189463618073204998,1097.04333916208429400285,-243.910409115192777562697,-898.143998130009094893467,57.8433767651416559374411,50.5586897171735358824662,162.834144333312224262045
3.60749999999999992894573,-0.258764601402982186151291,0.557067335650457851059514,-0.318231898289332737483903,-0.0139571810070168826622972,0.0155887990746205115644152,-0.0126761673471030844595475,-0.000331722242055590692700467,-0.00277255893801954750657601,-0.124753308246533467507078,0.992183691285086211131272,0.0846611148304479421700108,-0.02220036640182412521205,9.82504087109175117120685,-0.0100668307205174813179216,0.00534317473471223464143165,0.00285381680195623569848418,-1.48072176164440261203481,0.655115480582549425392358,1.21350574851557690969628,1096.29251250123252248159,1123.31485490336376642517,1123.39869045293994531676,1097.09046779934851656435,-258.535582028303963397775,-1026.5983896959587582387,-50.3195495603005653606488,-26.809009025192271025162,162.833014066741810665917
3.60999999999999987565502,0.0925023600012352398280768,0.4878370866614860634769,-0.0338263044763389142399745,-0.014967872365554829583445,0.0163005271107609824021711,-0.0138717861520616884268842,-0.000321499975221958627594893,-0.00277707391958621286134901,-0.124736000619683248813452,0.992185866810922911795956,0.0824437863014127886307492,-0.0221844115856706658451714,9.82056927681680136288378,-0.0100112668413338112144428,0.00534736973163661265945334,0.0029221952628125402208481,-1.48074329749656929955393,0.655137840773824642326417,1.2135144895472245174517,1095.70151161781768678338,1120.87019010526250895055,1123.13029688837923458777,1096.90929411695833550766,-222.698496159622180812221,-956.120086452282521349844,-164.786904317941463204988,-124.799253450410773780277,162.832101809924438384769
3.61250000000000026645353,0.469514149239489086973265,0.450379184526876252814276,0.243451736523640632769983,-0.0145859473399528715570339,0.0168291606683920805243027,-0.0125930764436100687403419,-0.00030641330167675568784541,-0.0027775842995890042547158,-0.124722034418399310706782,0.992187631037167783176756,0.0799991769955565867888936,-0.0221362605829915071176117,9.81565715921080617079042,-0.00996054413659168240424702,0.00534433449402133605582454,0.00297774185907222297547969,-1.4807633001279862927646,0.655157781594902677291259,1.21352346334458882637364,1095.1790200204343364021,1118.5342544711020309478,1122.57475593135018243629,1096.46647153209642056026,-187.696215622860165694874,-869.758325121152211067965,-260.390076028516602946183,-217.250973451094864685729,162.831222652917944060391
3.61500000000000021316282,0.825826362044244866034148,0.441536734935797869905372,0.461392020021588411538005,-0.0129694049316836715335377,0.0174256976195932798689991,-0.00962317435069703734640267,-0.000289299634021808168074519,-0.00276922740875284361175557,-0.124713484169460972483812,0.992188736889529576679081,0.0772580131225410055018088,-0.0221055785967120069224201,9.81032063249860897258259,-0.00991719496207521533648332,0.00533345988201010950957581,0.00301940937087313496234309,-1.48078229603301458894293,0.655176606564193853010636,1.21353163953725484702773,1094.7630305397033225745,1116.52139847965645458316,1121.82834650823656374996,1095.82303924970278785622,-132.588658779380324403974,-681.683734858930620248429,-322.419238184427342730487,-289.793611608599178453005,162.830372586829923875484
3.61750000000000015987212,1.10489749083513633109987,0.462050983166777395894087,0.566950772801156910318809,-0.00958183355795714890301706,0.0183284865439255484353964,-0.00588118669762031139741643,-0.0002742019759592168840108,-0.00275039734858445288068207,-0.124713680554158296009959,0.992188771219584153548965,0.0742221599770171713839062,-0.0221547003930788327652479,9.80458067585010617506214,-0.0098835616378631294121071,0.00531422474194525717300364,0.00304640928381687270398714,-1.48080036865443775973006,0.65519519953434179893037,1.21353886857795467690835,1094.51607672653744884883,1115.12583579680745060614,1120.96265974042808011291,1095.01750347405345564766,-66.4374216968113273651397,-435.341907873962725261663,-373.666586005637100242893,-359.921511875389512624679,162.829559463614543801668
3.62000000000000010658141,1.29556111271042473376269,0.508177147388865990684792,0.556703669631716246968267,-0.0039653008320489676469256,0.0198156970082452102421833,-0.00242635339402022922120072,-0.000264603537319539855281192,-0.0027254306786113672265992,-0.124724490229728257606467,0.992187487617812169382603,0.0710119874168844977813109,-0.0223189828571751548713653,9.79846288459515335489414,-0.00986158122008772355937545,0.00528619055587826493225467,0.00305808975646491626107504,-1.4808172281317792950972,0.655213681689313709455291,1.21354476259042542984901,1094.4308434312192730431,1114.34468894028668728424,1119.96001357820841803914,1094.02343169032587866241,0.291317631217686390243671,-131.561994715414670054088,-339.89686468172106970087,-344.103681738450234206539,162.828628685797241359978
3.62250000000000005329071,1.31438556090203095827462,0.554883390413181132316822,0.457280547979925622303909,0.00112979113580471382700943,0.0212330314794295059444007,-0.00111648288824709764066601,-0.000264023856166658134683733,-0.00269521925939379637313098,-0.124742086035203647575997,0.992185363543877540948301,0.0676843543729849506096485,-0.0226427107374745986700937,9.79199845974272697901597,-0.00985264248471210898894235,0.00524909771906678992992035,0.00305358365770899394323057,-1.48083296372947437191669,0.655232926958863037825154,1.21354940337590444521254,1094.5175333146935372497,1114.46802582323039132461,1119.26317541701951085997,1093.29698506536124114064,57.1646196677205225000762,192.317245688222556054825,-237.898975287503674280742,-247.232988836600071635985,162.827892048459290208484
3.625,1.19585891288810297616862,0.600815597027130610108259,0.304629252459898358651458,0.00570333575966319727967857,0.0226589512512283541845193,-0.00100570092260191109798106,-0.000271983705703012141642605,-0.0026609273005729324260149,-0.124759992365134270153604,0.992183209610337790707035,0.0642943337501710732162508,-0.0230925648802382185720283,9.78522381865528778632779,-0.00985745228432391776274279,0.00520293526325923440245536,0.00303163496830461233824683,-1.48084773544799142008799,0.655252957300853977606891,1.21355375049296232425888,1094.71666652955786958046,1115.30627516872777960089,1118.77051870177092496306,1092.78726674614290459431,97.883448064251112441525,488.502243588947237640241,-177.534932814800555433976,-165.25684986982366808661,162.827197403681793730357
3.62749999999999994670929,0.94152464093003629397316,0.646321048181034640833786,0.100312767655427764745824,0.00955699755404178924456104,0.0244466477881431568097703,-0.00153861796540867481336567,-0.000286813737388510515448348,-0.00262235465293000425193726,-0.124775374721721510340444,0.992181383179297160523902,0.0608694304765751981189936,-0.023617368390047771553597,9.77818053806528908467044,-0.00987598446808980734434869,0.00514796904796720796587683,0.00299050910263733062816049,-1.48086150423943507803415,0.655274452323715839163754,1.21355960491728254169175,1095.00695055501478236692,1116.91053704117507550109,1118.37550075294552698324,1092.47070081601214042166,103.595742955624174896911,646.37827469661272061785,-129.090216522038673474526,-72.2776479738074044689711,162.826413148683059262112
3.62999999999999989341859,0.68593201499733025272576,0.670249019781359867131698,-0.0702611742737632299915518,0.0109451407087191743966459,0.0260122234171194233187663,-0.00206452865083075554411551,-0.000302962872253829810283848,-0.00257696454043845370185384,-0.124788286324797353943339,0.992179885181644904967868,0.0573832032299967098598614,-0.0240997866141348035529113,9.77091524416705681232997,-0.00990739200084927822131942,0.00508498608048045530605208,0.00292804237281031913206486,-1.48087626432686603195066,0.655296955830798166786622,1.21356772928619549567486,1095.23464524433597944153,1118.53816654221077442344,1118.12506761916074538021,1092.42587850627387524582,76.6590623666564283666958,663.841317453626061251271,-107.273414849252759495357,9.89315207216283454272343,162.825800465540538652931
3.63250000000000028421709,0.444702392346418839963462,0.672514913603248332130136,-0.233263927059784520468,0.0106003642727896876807314,0.0276253227147833964327805,-0.00218535861336354841205631,-0.00031599136594222601570614,-0.00252800393501865106743454,-0.124801323751310783150004,0.992178379504247032194542,0.0539239638481162492089638,-0.0244349016707706770401565,9.76347841503247337868743,-0.00995000386779986041585477,0.00501545365432908528402489,0.00284213719744859719118502,-1.48089371583691198352994,0.655319184022320921911842,1.21357758514963665064101,1095.39024586684809037251,1120.22974362844342977041,1117.83913367869922694808,1092.52016657637295793393,41.6874277191681414933555,718.319831992900276418368,-152.82532198670074308211,45.597317698999738411203,162.825228961489756329684
3.63500000000000023092639,0.217205198831594503694475,0.641971017614270778040009,-0.414379316620232140966351,0.00926968684734265531421915,0.0294622429801885341027479,-0.00225698850413155347946481,-0.000326132130787685939159182,-0.00247863307931948462572991,-0.124815976216148205590883,0.99217666812339710968871,0.0505884494002277057544958,-0.0246146733599964286087758,9.75592418363287094962288,-0.0100015832642391683943162,0.00494157893777739422314088,0.00273101975919436612202928,-1.48091451779467275784441,0.655340626018220517856605,1.21358851188379190944033,1095.44308238293183421774,1122.12976570217551852693,1117.3609410092271900794,1092.65386509476888932113,-8.82962551218061619806576,657.921490206322573612852,-202.279916922320580852102,32.2307205192835297680176,162.824588129831624883082
3.63750000000000017763568,0.0871964023920833303238354,0.582542087324913304691165,-0.542106435212052928385162,0.00832988756952962421109543,0.0309190850590863840208211,-0.00284000448653515388461321,-0.00033516632608830725830254,-0.00243002651209483621491669,-0.124832868577410743826661,0.99217466741296156396146,0.0474368661477368863677029,-0.0246725850570350679902276,9.74830965805109350696966,-0.0100597458583886988081613,0.00486616704632275055841806,0.0025934237640811309139055,-1.48093875004006547690949,0.655360740394073437720124,1.21360034780509873364451,1095.34609773928718823299,1123.51935107947497272107,1116.82773409408764564432,1092.68132017896937213663,-74.1674932629864400723818,506.426639892117123054049,-238.247111745300202301223,-23.6960001910579691752901,162.824088868565098664476
3.64000000000000012434498,0.00156531977096133027849145,0.479926900949952994768211,-0.621850678795782152441518,0.00830913313406704892583043,0.0323938302130061667183369,-0.00439004459475797817469278,-0.000342989778461446216239333,-0.00238235042702153974880641,-0.124851534463189417500928,0.992172435205820102410712,0.0445032764280050563421298,-0.0246152329933424507402151,9.74069384182080355571998,-0.010122383987125541451868,0.0047923909955473404168047,0.00242876207660199308624449,-1.48096524175726895755645,0.655379177669776602499496,1.21361215937527044950173,1095.07224491661690990441,1124.66189890163605014095,1116.16970545050071450532,1092.53538509381360199768,-142.490895386802861821707,411.891855426356073621719,-279.875589989802904256067,-90.9105652934632644246449,162.823621520453684752283
3.64250000000000007105427,-0.0701682735294328480124548,0.33667356106508622426432,-0.6409155461332174397171,0.00893154916614176223876864,0.033871661609146078153465,-0.00675914842074449868231101,-0.000349601617736937397319663,-0.00233597437746346824408161,-0.12487061092946184770458,0.992170142607125660205725,0.0418239261236660261888964,-0.0244579675926140487074445,9.73313629500946575490161,-0.0101879973117090221607084,0.00472348038973431031545269,0.00223729255893117271250525,-1.48099281012059069695397,0.655395955788161788113655,1.21362335548884670011205,1094.6336432623531891295,1125.57881035660670931975,1115.42835614413866096584,1092.22676735250206547789,-217.022777509196288292515,304.129812109301497002889,-314.26536113872987243667,-153.727828832009976167683,162.823176824002757712151
3.64500000000000001776357,-0.148518808913073147026651,0.143906758614409630014919,-0.56921099165891664295458,0.00980367230233461679766993,0.0351184665128379952525606,-0.00959888604135029216424257,-0.000353989712587964467250395,-0.00229425115445398451405334,-0.12488839309067932548114,0.992167997093051257095908,0.039488375772656257589599,-0.0241962265317966322697441,9.72569584400078923636102,-0.010255851769209430382479,0.0046624334778018307681724,0.00202017058411988522509395,-1.48102008178664279469672,0.655411135900054842018392,1.21363283222152373852509,1093.98713102907095162664,1126.18254796218252522522,1114.59837864480709868076,1091.76674594965356845933,-330.198858014053030274226,176.925312930101569008912,-387.144821626369832756609,-211.299946597732684949733,162.822754123687047922431
3.64749999999999996447286,-0.261573568933240352407665,-0.133567585137170513620575,-0.378132134196961566807715,0.0108884386304507405074382,0.0360211780372373668868136,-0.0124720111568366875953728,-0.000354239214967267030970827,-0.00225893292355576653929194,-0.12490604602316182636379,0.992165849071439787110194,0.037551494289794873360222,-0.0238180435030335702073501,9.71842965766549049533296,-0.0103260072161291023562502,0.00461171716241474179825977,0.00177925002428259656540865,-1.48104595084220869161129,0.655425352725793275432409,1.21363954626032777284195,1092.98264897228295922105,1126.46343692125719826436,1113.49263203600685301353,1091.17026761951342450629,-401.230484414426769035344,16.0546448555127199142589,-426.390654423730666167103,-201.662001532444918439069,162.822265286389324501215
3.64999999999999991118216,-0.361948168644746159916536,-0.385129139312312573917296,-0.149908675303448979398979,0.0112560490053178387931387,0.0359023247467339309824119,-0.0140491319536899025161025,-0.000349121601117880007558031,-0.00222947499220584217927144,-0.124923550767456884025286,0.992163703764370796811534,0.0360241626348428642390154,-0.0233351881628092519549433,9.71139222085526299110825,-0.0103990917490445772958241,0.00457320713685857929697853,0.00151682788462400870016511,-1.4810703205610269428405,0.655439157292784235764316,1.21364299375700501748554,1091.98097860699886041402,1126.26282118646008711949,1112.46642537268849082466,1090.75843594199136532552,-425.715229550278309034184,-180.697620046843667296343,-433.448002838722629803669,-119.713818250923225150473,162.821868375214876323298
3.65249999999999985789145,-0.436209235302532305489365,-0.626116914857186235288111,0.109803591608543277269305,0.0101938526519000302594797,0.0344873442474634903098796,-0.0144333469372390707508025,-0.000338210936204259653668769,-0.00220444048542229979747997,-0.124939354792312135034038,0.992161761852333290434558,0.0349008290482645117114302,-0.0227803402654701489526978,9.70463454952130710751135,-0.0104760385455172980173622,0.00454816178896107550788663,0.00123531369351564598857429,-1.48109374591892906103396,0.655452969459378032013319,1.21364377841604187402424,1090.85407282453161315061,1125.55994882102299925464,1111.3253920218132861919,1090.57169852825882117031,-513.281446141592709864199,-421.498128775391421640961,-523.536121541438774329436,-10.1893600088253553082041,162.821476834370344022318
3.65500000000000024868996,-0.447080854763871049506463,-0.863392185478665252773567,0.397979176998843109380743,0.00743870279570449897954543,0.0316159441725069878526,-0.0131133094762173850467146,-0.000318724014264971954903116,-0.00218121168575176414133887,-0.124950069634161012310791,0.992160457434725584491275,0.0341461761234085614535871,-0.0221450913425099982223543,9.69820384325813300563368,-0.0105578602944200721641677,0.00453725454038742762735703,0.000936848553187503291228566,-1.48111626639635463043021,0.655466177659447701842055,1.21364329867610587498916,1089.41457137629072349227,1124.15533054258298761852,1109.84874476498112016998,1090.70748914194723511173,-535.252229940679399078363,-590.770383652494388115883,-550.606265396944877466012,112.152885458400916718347,162.821007275345266407385
3.65750000000000019539925,-0.365341620766032548761615,-0.994517212275936812737598,0.575869274911545381279154,0.00483639994892208751470219,0.0285587889777245730604793,-0.0107069300090650368351142,-0.00029191352064384751491613,-0.00215888783346238023394537,-0.124958072841418646459211,0.992159491228773893212178,0.0337660954928744178049627,-0.021494131643914157758779,9.6921430847363900795699,-0.0106455174530811925298623,0.00454038612253747017599714,0.00062324183752337516083164,-1.48113789946556972942915,0.655478050123744715449448,1.2136424267505971918979,1088.17781167482803539315,1122.60609690276032779366,1108.57236069482837592659,1091.13246295555086362583,-496.474243191015943921229,-658.536960290044021348876,-504.938728645776620851393,221.478042207813984987297,162.820612191571598259543
3.66000000000000014210855,-0.18286297893728448160644,-1.0410348129827768914879,0.653067387640201224563441,0.00291608444365634798117748,0.024996948219078555381012,-0.00754503612983246918499702,-0.000259383180304012896967569,-0.00213637588035270635164475,-0.124968035303259381030294,0.992158276244471615257225,0.0337611049917590361202357,-0.020896727882981771390325,9.68649121878796570683789,-0.0107396948013817796624414,0.00455667408653651594130363,0.000295860619961417384109204,-1.48115883127179426281828,0.655489071228023134629836,1.2136412783230978718052,1086.93220016033569663705,1120.86264574113283742918,1107.32405112175229078275,1091.81487935298628144665,-544.123951723497839338961,-749.391654893377221924311,-522.515655048448252273374,327.052394138452370953019,162.820208723575575504583
3.66250000000000008881784,0.129618559938997152114482,-1.00211033152989781314091,0.618415511697717024119925,0.00181781121705634762797388,0.020569194100902073868431,-0.00404334226505178792598905,-0.000223124961869224379450508,-0.00211332240792495807887863,-0.124981956145506944988455,0.992156561791163071895028,0.0341432604228236874499558,-0.0204230558798467742853688,9.68128324281774688131463,-0.0108405641415330183940924,0.00458443953203088814390975,-4.42886758532401876011994e-05,-1.48117913891281594018778,0.655499714986748527323357,1.21364015188901497310781,1085.45719191621060417674,1118.85913862829352183326,1105.95978241958619037177,1092.76772492624309052189,-530.195877711605476179102,-672.415725935675936852931,-464.193329740929470972333,341.184976201482641045004,162.819710144431951448496
3.66500000000000003552714,0.436285803306743547036461,-0.909713077886702969898636,0.497140633005741905403596,0.00187601373403509762149977,0.0173020430145238608699021,-0.00198803075093738085971085,-0.000185466956620921762013271,-0.00209143460312434959630368,-0.125000539099115459684697,0.992154257527670613292514,0.0349601690429021394468379,-0.020138094605402397097027,9.67655030075611044537709,-0.0109476275893330959182448,0.00462110812871819286173913,-0.00039642627112054085571427,-1.48119807735248532054584,0.655510339068135050588637,1.21363905561161034007966,1084.28122077177772553114,1117.50056711145452936762,1105.00308447304769288166,1093.52080423399365827208,-442.745446060062363358156,-432.98689884619318490877,-333.053142816795855196688,257.253232243334423401393,162.819279548323351036743
3.66749999999999998223643,0.741434138935479603027545,-0.7962173124271548774189,0.313709383511905803842978,0.00292388619865517271345645,0.0152161623846391990538818,-0.00101734679060773609837742,-0.000148466396062750803945193,-0.00207270692160718607993664,-0.125018611401823437345726,0.992152013590070880333371,0.0362579872744014583552108,-0.0200926025079388066718611,9.67231982001973733531486,-0.0110594873777304959772128,0.00466332021460938179330258,-0.000759905688751533301035501,-1.48121604628281100524134,0.65552218731575939703049,1.21363815689197096503449,1083.24346468591033953999,1116.69420413406260195188,1104.29451670550224662293,1094.05399108745973535406,-373.312507275303460119176,-211.382805862745016156623,-237.34686284793093591361,157.472982955917984781991,162.818830196282959832388
3.66999999999999992894573,1.00207238636978535062383,-0.70314074300390405625194,0.108981188198544895473496,0.00533493051288108643959163,0.0145530660634679929327229,-0.000852663535789290245349437,-0.000116548707507514159582677,-0.00205546711659895927834518,-0.125029613259866417829258,0.992150661708832926066748,0.0380106478239576744959649,-0.0203821791656935633052505,9.66861559324115482638717,-0.0111737101104872182250061,0.00470697450467209409924463,-0.00113411107543378002898704,-1.48123412836097934075497,0.655536805147912016167311,1.21363731280825826175374,1082.41465823540124802093,1116.4436530821408268821,1103.81635015880806349742,1094.30816914877323142719,-254.31282577074486539459,36.2210564180266842981837,-134.806734892347918730593,25.3852280916367760710273,162.818363565580597196458
3.67249999999999987565502,1.15697373274549963895197,-0.672215752941030419975732,-0.0874518212675526318555796,0.0096858400712356816641968,0.0150702969236686714488149,-0.00140550922419067046698071,-9.0938243813493797266384e-05,-0.00203619656191515643189893,-0.125035327996479289636156,0.992149984485005465018048,0.0401403625110460932079448,-0.0210352552440754118900923,9.66545775938542561789291,-0.0112868871760288969757768,0.00474729389947101555052855,-0.0015183462572427651286755,-1.48125351087976597774798,0.655554789421007200189706,1.213635246252521504573,1081.97190055705664235575,1116.87530941615273150092,1103.62048303104052138224,1094.18091722791791653435,-75.0716373717699951839677,325.863252301201839600253,-25.0280457805257725567571,-136.159274215187821255313,162.817874714823858539603
3.67500000000000026645353,1.1756475786508715497547,-0.722118993757501659302989,-0.279011144204134864388323,0.0157125204625507795819228,0.015415407655374753492783,-0.00249215579011924197316841,-7.03709879943414826032264e-05,-0.00201180862300001390280402,-0.125038945860587336067482,0.992149586959435225708148,0.0425620482650814410674478,-0.0220211083881476019086243,9.66286256263322229642654,-0.0113947537588298848654222,0.00477937084891347577220166,-0.00191172230206619196864193,-1.48127558224759092730949,0.655576545954825284923118,1.21363208447670078982128,1082.03930004854237267864,1118.07296934364694607211,1103.69120992990542617918,1093.62737277769724641985,137.410456935722152138624,522.45916197099290911865,70.7453882534034619311569,-252.019768177598308511733,162.817261514435443814364
3.67750000000000021316282,1.04710932205918871851225,-0.818463658694004281279888,-0.38383032656341425914448,0.0202012622988697598813701,0.014559266532729807711033,-0.00365814676580462775148939,-5.82648947188377450416737e-05,-0.00198541253706106118892549,-0.125045365603522834474504,0.992148843480117781368222,0.045310645471917349036417,-0.0233738845836670809663627,9.66084164604682449351003,-0.0114925958335251876540895,0.00479862288043977555651587,-0.00231296058600048010100991,-1.4812998158186527764002,0.655601976431103961040492,1.21362762061985485217974,1082.65895284173529944383,1119.48760522600787226111,1103.97420997230756256613,1092.92081838702983986877,363.556734782567673391895,606.264901619319289238774,148.995522995349801931297,-304.203606755852092646819,162.816728361827529170114
3.68000000000000015987212,0.797204330708457420406887,-0.926188332211000941995849,-0.41735923194829926963223,0.0234385123631248477871214,0.0120671623025494674508185,-0.00512711888484162527090948,-5.18470528703062776454576e-05,-0.0019640021839107181002293,-0.125058123704789581065455,0.992147291182827073541262,0.0484704333847823173875291,-0.0249908176578079038732128,9.65940196333219702751194,-0.0115756685902539801363842,0.00480126371003573599455239,-0.0027206071876219825068921,-1.48132571359106801622829,0.655629842602191592604299,1.21362173788049787503951,1083.85708372245517239207,1121.10429385174347771681,1104.43618754488215927267,1092.10635474391801835736,636.521710455021889174532,700.240451621008446636552,228.602083429000543901566,-348.811839724438129906048,162.81617298213151912023
3.68250000000000010658141,0.419971454588728143608733,-1.01004517400390092518592,-0.368007720565162788073366,0.025450278204442528667828,0.00763576597697288462357479,-0.00714048863978415312980808,-4.56045224836320624425476e-05,-0.00195280390993463883950176,-0.125077591190547010580048,0.992144871137908390679172,0.0520756420816167742149361,-0.0267138510407919985145675,9.65854565305708590017275,-0.0116395276144235972765051,0.00478470740078267443157189,-0.00313316380868330609035799,-1.48135302318283823552747,0.655658501208312705088588,1.21361456935592726402717,1085.84156139401034124603,1122.98880748411284002941,1105.11722038945254098508,1091.17675918840768645168,787.75718384687797879451,641.826869458113833388779,258.059865797355143968161,-313.139913665515734919609,162.815482680005800375511
3.68500000000000005329071,0.0960461024446028072132364,-1.01204304911207976225285,-0.255625844844486971307873,0.0254845570827006741299048,0.00365662914839886979759265,-0.00883998592758993700924108,-3.64066749342721642239591e-05,-0.00195633539088568148001102,-0.125100640596995493769583,0.992141968277450159163777,0.056144387102198309302814,-0.0284274194729337362219646,9.6582695063380121780483,-0.0116802992762707648355391,0.00474778371488896594465601,-0.00354904342087470009783901,-1.48138177725638597870272,0.655686557702027328353722,1.21360685087642750090708,1087.79586964168947815779,1124.31342819903397867165,1105.72648687386890742346,1090.54065517559047293616,796.876755372858156079019,438.69509959855378156135,239.133520398359536329735,-212.125625471758183948623,162.814889328578743743492
3.6875,-0.175910650287066899766231,-0.93265476735815844300248,-0.0872781480979926693741788,0.0241451067067465011128924,0.000299916263253214101808936,-0.0101215094452521484069685,-2.25467091192649021368002e-05,-0.00197384625396450743076149,-0.12512048450062868143462,0.992139439407543011206769,0.0605907546756561388168194,-0.0300535254551617322937851,9.65856498093132564974894,-0.011694846370933657114799,0.0046907342187316701520583,-0.00396666676224937102962498,-1.48141195189446128743782,0.655713942503384106252895,1.21359865905918473671932,1089.82594517087454732973,1125.1822829821055620414,1106.31288799144431322929,1090.1161310610489181272,852.364532188603334361687,244.624421655503937245157,243.773172874130722220798,-135.62349228682541024682,162.814278947937907560117
3.68999999999999994670929,-0.389833817523690839834671,-0.7580508851313579876674,0.139464285496727291580044,0.0214446300894497350608692,-0.00250714842323100130239144,-0.0105943134991924453602863,-3.05759690901406992551669e-06,-0.00199940519113656848398941,-0.125134195347759741290261,0.99213766472256870176949,0.0652273475389893719889045,-0.0315405501020011094781559,9.65941808655491485069433,-0.0116810051875911192348356,0.00461490557820322215565323,-0.00438439790136525234937048,-1.4814439803609682488883,0.655739965191552975909417,1.21358995350211928965223,1092.05769230263240388012,1125.53655030731147235201,1106.9453527382395350287,1089.86253771415636038,745.926409979863365151687,3.58569569998515724762456,218.520202209633794154797,-57.1174466736022949930884,162.813527756157554904348
3.69249999999999989341859,-0.45581777012227808754119,-0.566763901162945615830324,0.310317940181276563649249,0.0187224470999893186085039,-0.00372911182454165046618044,-0.00953156960732326127838654,1.90159422781597823508097e-05,-0.00202628957637153829865473,-0.125142646581779093395426,0.992136546521361850636822,0.0698599656789568174142246,-0.0329174795269301517786076,9.66080874013733925664837,-0.011637809131529692346918,0.00452258757008446640041077,-0.00480032205959639822479001,-1.48147761728351579080254,0.655764699953790164421719,1.21358070973637044431825,1093.5555772207737845747,1125.20021146060548744572,1107.40548900249245889427,1089.83054382768091272737,490.004971444580974093697,-263.343419114772075317887,173.036366260828032181962,8.23264527034497284319059,162.812886084224203386839
3.69500000000000028421709,-0.410532664728833873724057,-0.351530533661484234642103,0.417003076840831377047891,0.0162193772249920459271877,-0.00414804926531764459746165,-0.00712384545305332333303694,4.24246542370087172959224e-05,-0.00204918860661412911838841,-0.125145810270322982438174,0.9921360985701195289721,0.0743184202477609329173802,-0.0341794701318526503164286,9.66271062966219140832891,-0.0115656588309212497028833,0.00441684633208408970739267,-0.0052121830265315846619778,-1.48151201417913869207155,0.65578771799750434912113,1.21357098861654066901394,1094.50771715985547416494,1124.21983321173752301547,1107.81053456954373359622,1089.90370094050808802422,276.591058909916228003567,-484.744956198450381634757,156.705964742685296187119,31.2579645955317388938965,162.812227159663507336518
3.69750000000000023092639,-0.297080804622458505281912,-0.127702592989306001891592,0.448883135395928112298947,0.0146277672006974359536491,-0.0043840123842529216471875,-0.00442167334649484159575517,6.68800278014842152461694e-05,-0.00206779156507400172643196,-0.125145988564776933227307,0.992136030586718731250073,0.0785303713948496268093535,-0.0352965380003156040111811,9.66509065556066104818456,-0.0114665162185518844373266,0.00430120664582751572463382,-0.00561722110322015587974276,-1.48154552662703897780716,0.655808641932689728726302,1.21355979621888065977942,1094.93853251532345893793,1122.7764866796130718285,1108.18901882620593823958,1089.9868336506585819734,45.1906513754248067016306,-656.762296587990363150311,148.677917189209892967483,18.395992583191791425179,162.81155252707827685299
3.70000000000000017763568,-0.146910912486982681013359,0.100393096180935864625283,0.38844366642679767354096,0.0146624848732215540270118,-0.00469151234468829277796109,-0.00219247927265826423812167,9.25660510329684676870954e-05,-0.00208190708218251125868892,-0.125145884430965942391012,0.992136002677590056464396,0.0824316329990262414151303,-0.0362359163845746568011208,9.66790943115222844994605,-0.0113437907970224214487809,0.00417945768657359585651623,-0.00601227896079048040184345,-1.4815772014891590568908,0.655826769382649277240205,1.21354618505705014186447,1094.73367041673259336676,1120.93602172879764111713,1108.5539241554897671449,1089.99568090342404502735,-221.424574193411160649703,-841.898008521747897248133,158.00249265512658780608,-26.5904293035879391027265,162.810856447513884859291
3.70250000000000012434498,0.0169776506780628944071054,0.370989672422844363186556,0.234195349631255073097336,0.0160176700441764761906338,-0.00485004077867281536973199,-0.000496481391612885137806788,0.000116608274311393524829729,-0.00209373768761107270988675,-0.125147322077596240275099,0.992135782130898924435769,0.0860206832843665031296254,-0.0370250270243739770803515,9.67112117001804350024941,-0.0112021222425933240224305,0.00405544631687590733520876,-0.00639385390437512482475491,-1.48160697894341963909426,0.655841791509834459716899,1.21352974114002831740322,1093.8314096443564267247,1118.56699663700442215486,1108.9790312894815542677,1089.85388150414064512006,-418.545078911174471159029,-841.492756786892414311296,150.37484801228268338491,-78.0403824289822551918405,162.809992095375804410651
3.70500000000000007105427,0.110176896876677823944313,0.580935380748229035496877,0.0691244885983084561553724,0.0174321076336160056541313,-0.00432433488923699566042202,3.6071962957009251038009e-05,0.000137678873056781267197532,-0.0021058369150151186148523,-0.125151713314823914702245,0.992135188610249185714451,0.0893102596469148857227793,-0.0376681947267067870899204,9.67467490350771441853794,-0.0110470237239547706964427,0.00393269695403329101746071,-0.00675844183998913685534893,-1.48163462019911906786263,0.655853684711202644663786,1.21351050086098943836532,1092.64094502217676563305,1116.72855794486326885817,1109.30579839555116450356,1089.60547899127914206474,-532.482066856493929662975,-639.307034245407521666493,116.884064165608592134049,-117.438203522308640458505,162.80924382666765382055
3.70750000000000001776357,0.144439649446596818371802,0.748408289520914093984061,-0.0895582385680800119320821,0.0185701746011259667679116,-0.00285824725740153103709096,-0.000328788623606905477600448,0.000158001149276758848715926,-0.00211761265174315212178602,-0.125157153329903014782332,0.992134465387098818389688,0.0922563771778619479135841,-0.0381164998567464288758977,9.6785162605774068822484,-0.0108844315537383121150761,0.00381411666276105848147338,-0.00710291908243040632370269,-1.48165928914039812802628,0.655863224967239144547193,1.21348823655649140640378,1091.1689993100740139198,1115.37046146577745275863,1109.56345161030958479387,1089.26669048652911442332,-665.638565465420128930418,-421.204715480334812127694,85.4193866930490912636742,-152.569540894458953061985,162.808461953014187884037
3.70999999999999996447286,0.123481119467717337379042,0.862130675374700450319665,-0.22315396332059309059126,0.0194022340217102004511496,7.87211910489979860457155e-05,-0.00175777329085190095817048,0.000178321501991292368166989,-0.00213329820193579756254509,-0.125164142398259098376556,0.992133541763455362172408,0.0949242684783824647309913,-0.0383435507056969701600302,9.68258757948784243296814,-0.0107204342297857416893558,0.00370165869251850264409764,-0.0074246292678912893109322,-1.48168043446833341825197,0.65587129227093932115622,1.21346337989037067472964,1089.31275219484973604267,1114.62253436746163970383,1109.73289532901640086493,1088.84263128680686349981,-660.715289765008037647931,-101.725871626651851897805,31.755498609664524423124,-145.269792789989338643863,162.807480393737620261163
3.71249999999999991118216,0.0671206205589175430858973,0.858904316241661081043901,-0.259070842612543705829609,0.0196584851133112283039228,0.00341407490364525195714052,-0.00368316492305938636073193,0.000197696477422177908098502,-0.00215466571160882226776412,-0.125173677724546600353861,0.99213229063932695250827,0.0973485760341476630275181,-0.0383663027395220387893993,9.68683068599919749885885,-0.0105606702767686907312727,0.00359628324047961888884628,-0.00772182651663067334824042,-1.48169780278957285979402,0.655879891190148445190289,1.21343695864906564452212,1087.8654228612490442174,1114.86183210764420437044,1109.72222910335790402314,1088.54034152257918321993,-522.593291813165933490382,268.395052935426349449699,-37.9896044990808974262109,-98.4621606691255806254048,162.806623768944632502098
3.71499999999999985789145,-0.0111748923479386679663561,0.738849496472474553954157,-0.201458227829973968159294,0.0195612900609259399153927,0.00711139817009369228084648,-0.00602377286962915616669312,0.000215344087117626470850515,-0.00217380433539640259207881,-0.125186620329658382377858,0.992130619550303238796118,0.0993887287619819731476767,-0.0382258599121594946912417,9.69119027439528935019553,-0.0104097086306729359056478,0.00349807799446657206876576,-0.00799403439536766451112282,-1.48171208010336674654184,0.655890383004657517851399,1.21340948127920977839267,1086.69978573578396208177,1115.96450963213874274516,1109.54294730652100042789,1088.35032048346124611271,-422.294736465227003918699,630.662887258952878255513,-110.460913992475795453174,-51.5746720144272075003755,162.805724775979172136431
3.71750000000000024868996,-0.110632040939950465618935,0.474493512504415015929027,-0.039693030947306730260582,0.0190099738948077481848209,0.0107544762431951695241805,-0.00829020394619267748936853,0.000234525900040376668407444,-0.00218531985022214943203966,-0.125203197235956575905647,0.992128508701081490706031,0.100951979448029388608532,-0.037882019079201210975949,9.6956146064008219553898,-0.0102708133501793821840131,0.00340649794438504334090356,-0.00824193563703837228651139,-1.48172457017084191477352,0.655901950069316730385083,1.21338088448921532780389,1085.75394917892276680504,1118.01514654393918135611,1109.16992453339548774238,1088.28246816250702977413,-266.329715018337310539209,811.314341414335785884759,-152.645068365871935611722,1.28669059877202429653664,162.804595443393850473512
3.72000000000000019539925,-0.1869384794245914360733,0.188557538981266453737007,0.137051240503340859833159,0.0179432213427236988967373,0.0121881997317642362665957,-0.00866851599829989577505884,0.000257051823265415640019232,-0.00218486824541421365691862,-0.125219357067808456651647,0.992126476722345107539525,0.1019761177199511176239,-0.0373217094956012976347814,9.70005739954459755836069,-0.0101456663787781592445114,0.00332083914520623843524838,-0.00846741326605028599150415,-1.48173700199027580381994,0.655912908820515117014338,1.21335189203889837195049,1085.36813716069218571647,1120.02108133921069565986,1108.77972196469158916443,1088.35675393645510666829,-79.2735424576693361586877,781.013740798033040846349,-158.118339103388024113883,52.1746217690190192683986,162.80361176974420800434
3.72250000000000014210855,-0.251751172324500560595339,-0.106007961476987724869225,0.298055032629346738914933,0.0165755748804536848228786,0.0116387298162479047719531,-0.00698220556413149326391299,0.000280060344894338239443016,-0.00217188270615709111410752,-0.125230996922817888750146,0.992125041520796169258745,0.102487593159850051693915,-0.036612899558538310185174,9.70447903572034142882785,-0.0100343868630701632538305,0.00324031332283925433551675,-0.00867347595175654850763181,-1.48175099050941261324965,0.655922909883397409203099,1.21332399537025725777539,1085.35758146663442857971,1121.92021524792926356895,1108.37933283787856453273,1088.54334127135211929271,45.0150567962746706029975,685.847297156639001514122,-152.229321462167320078152,88.4333194347637601140377,162.802584207821439576946
3.72500000000000008881784,-0.313320320105674621213865,-0.362465609721035530998989,0.404849571773327088219929,0.0156459700090152663276566,0.0096560025958456752182002,-0.00419230237778343405724568,0.000301777112929740571993509,-0.00214564742529081567759541,-0.125235291491362421556488,0.992124561191247922309344,0.102509589210679250004254,-0.035802372784520634929617,9.70884911131502903458568,-0.00993559722232326310298323,0.003163865702813889631273,-0.00886424224570753378771304,-1.48176737697635174662025,0.655933386461534428946152,1.21329836846821970119947,1085.59321244467355427332,1123.45031782499381733942,1108.01857535738076876441,1088.79892053362891601864,136.458431406484294257098,476.799558045751098234177,-126.645457570250954404401,113.545821474101700232495,162.801520999451980742379
3.72750000000000003552714,-0.386706519743831300672809,-0.533872262903873684436462,0.41992301568714246462477,0.0153872961229612522510157,0.0067631342872506872848648,-0.00116875029031597273479481,0.000319405677668155080130979,-0.00210858775181178154101147,-0.125230851167372647658738,0.992125207260303287881698,0.102128179079460909561838,-0.0349477027229806863628525,9.7131467745528645707509,-0.00984681015706548486143834,0.00309014560367110299385351,-0.00904450825427014111490553,-1.48178675162930084674429,0.655945756504195509606348,1.21327695512748934270064,1086.03987362366683555592,1124.30421303815796818526,1107.74610555002732326102,1089.11107037872261571465,227.237497025776349346415,197.900355053575026431645,-93.8849900137503965424912,145.808137344195898776888,162.800415679355637621484
3.72999999999999998223643,-0.504605315844540491809767,-0.62292286505960192677378,0.337110148072250592754528,0.0151408868094626003486525,0.00354988130569762559002323,0.00174376461004276572981653,0.000330021735997255169590275,-0.00206926872024262983526532,-0.1252213187986448983402,0.992126501269793070747482,0.10154628394867594443074,-0.034091951937848238851636,9.7173606657709292733216,-0.00976497543411082059849893,0.00301750888712477675912549,-0.00921913300727744342011327,-1.48180857143838662359769,0.655960231450398278951752,1.21325983244257318283132,1086.7293999298024118616,1124.43981960026167143951,1107.54915040731202680035,1089.5279612203498800227,269.423659268801486632583,-86.3019604605160708388212,-48.8521228014643824621999,158.403618437527001105991,162.799040867324379178172
3.73249999999999992894573,-0.629451842508819248145358,-0.608258924270169809567221,0.212807689714093278832152,0.0147114296071995196563131,0.0015537169868499840167525,0.00298340626528570190476031,0.000334557299633383455322172,-0.00203375328414422606657097,-0.125212602548696816384677,0.992127682397426768901028,0.100905842933063413791039,-0.0332081838823967759322109,9.72149019532731273329773,-0.00968680358016983829305691,0.00294423560889542313898093,-0.00939255167494305182041003,-1.48183244118532497779483,0.655977059059326128576117,1.21324481677250761713083,1087.38699192001081428316,1123.87270323585539699707,1107.5018449360200065712,1089.90308847091023380926,273.746289119486789331859,-328.905673663400818895752,6.79853645960989450003353,155.457174807682946493514,162.797854328006224022829
3.73499999999999987565502,-0.769201456606675382232652,-0.52629783013728193008518,0.0826478782088747587764033,0.0138058534372907798504215,0.000339614157701703602183774,0.00236165274190043138896611,0.000335060323093182234246296,-0.0020055374073246695978967,-0.125208254819809822189214,0.992128293046456333215133,0.100291927987966461577329,-0.0322532461805914785757388,9.72554426121929083137729,-0.00960919207888849720433644,0.00286894131867195282745153,-0.00956821095357624287758291,-1.48185776161114834970078,0.65599603444029308541019,1.21322959456773249442563,1088.0981313753998165339,1122.79529123194470230374,1107.58314308961007554899,1090.30524709438827812846,321.171484207412675004889,-533.097028547499917294772,68.7604385058829308263739,182.336883555023149483532,162.796623992274220427134
3.73750000000000026645353,-0.921760655834903852579032,-0.383148721678867099083021,-0.0249360761465116931301367,0.0114366703152828132206142,-0.000402758461213015988861691,9.78291349781290034588743e-05,0.000334607017118343421507864,-0.00198867573650733306389604,-0.125209535480341332958076,0.992128164501443032818884,0.0997928533828701253005633,-0.0311623520577215679105976,9.72953903779179185562498,-0.00952965894620824705008033,0.00279085818901603699079828,-0.00974828040401374759649222,-1.48188379896317945494388,0.656016500936982049907442,1.21321286367243752479794,1088.9928493410479859449,1121.20721809311771721696,1107.84564712854944446008,1090.81477288868541108968,333.288812035130149524775,-590.941400591651586182707,127.521532502069504744213,188.634253847600120934658,162.795094337224213631998
3.74000000000000021316282,-1.00688899634378170588889,-0.24623899772025104049078,-0.0544896299610658219059189,0.00827976112964679163142012,-0.000605972115691981037984004,-0.00160472745379841921775643,0.000336627222291822360798752,-0.00198476778036147218434171,-0.125214043832677812684295,0.992127595243977311589845,0.0994437242212228289517384,-0.0298703195801811385856617,9.73349628604664651732037,-0.00944654112589358649354487,0.00271012653734133525731953,-0.00993373946676369933006523,-1.48190985028351152053006,0.656037093879594968015567,1.21319439206618517879122,1089.76457543557557983149,1119.84058422898624485242,1108.2207507521204661316,1091.24841836362634239777,312.881792522291391378531,-518.385708456809993549541,187.474973528882770779092,168.798931405857700838169,162.793772647666855846182
3.74250000000000015987212,-1.02023252531049446467648,-0.105696354514407939162446,-0.0284715147448287228537644,0.00465861037992394786538819,-0.000549472486852315691527315,-0.00232630965284394940206791,0.000344044476491000953983362,-0.00199347351717825155975605,-0.125220718218925747278192,0.992126719864466100062828,0.0992391677352169460091247,-0.0283271170555745299690642,9.73744086708169120925049,-0.00935914517058235306823377,0.00262782813342352485411202,-0.0101245263002572392224687,-1.48193517567159083192507,0.65605528773300070266572,1.21317418682694433407221,1090.55725830365940964839,1118.61528955083372238732,1108.78302199619383827667,1091.65876754571468154609,319.420806694422481086804,-448.619074119197193795117,258.681573998370424760651,153.604138908307135125142,162.792398283180801854542
3.74500000000000010658141,-0.965665296617912338739131,0.0335107701776049676789526,0.0238212553720705370874366,0.00133930419473930512226645,-0.000349519346440828836391351,-0.00237073490970253703338799,0.000359591615337896827134939,-0.00201189315231996290744831,-0.125229403412254719496488,0.992125564424151229481197,0.0991212078071169455650846,-0.0264941371301265458926277,9.74139845475245991224256,-0.00926765646531531490925904,0.00254586656857935756878564,-0.0103197372725515133101704,-1.48195857805600761381015,0.656069753854965687089873,1.21315296303337882832807,1091.36167946904765813088,1117.59748885839030663192,1109.51415862211229068635,1092.01643905816786173091,321.945184310113802439446,-345.522219271250037309073,334.176634699049657228898,122.202116122073547899163,162.790976802307682191895
3.74750000000000005329071,-0.835143205019257317545112,0.171715382231749702501844,0.0787506094687777657981087,-0.00122536237271879378495087,1.43462745956932850692478e-06,-0.00169548629815957077257571,0.000384420272586885039198257,-0.00203846086749311745586755,-0.125236429945020544263201,0.992124596360053345733832,0.0990584973558437803520249,-0.0243627360668445883118416,9.74539255424480721501368,-0.00917292466867544904751686,0.00246671959149210619222092,-0.0105176792174752238573365,-1.48197968803284374494922,0.656080504285496801664124,1.213131406196883865789,1092.16698422520994427032,1116.887678454477509149,1110.45390516968905103568,1092.26977812632503628265,349.245446802440881128859,-235.987337428746769774079,460.107431301467670436978,78.9474171313048316278582,162.78949465412540575926
3.75,-0.611002184788938862425312,0.340782226565677803797882,0.116057166086239671454194,-0.00330567979344972839861327,0.000615992542175410572047323,-0.000398597053983718312315798,0.000419460231096309432447661,-0.0020722236904996142910218,-0.125240431316371997327863,0.992123991840943242337403,0.0990301230602559229287962,-0.0219293120330570495690736,9.74944259058639062232032,-0.00907607956440701323097553,0.00239287562556965904478345,-0.0107159411743481709777814,-1.48199905980919899306514,0.656088250884978463339792,1.21310896067521167829284,1093.10790670305982530408,1116.41755217124659793626,1111.81469577861957986897,1092.41117614382437750464,336.183438500218358058191,-110.543851489776528751463,534.656869333196027582744,21.1382621590478230189092,162.787642734224561991141
3.75249999999999994670929,-0.38570137814571459067281,0.487526264960849553542488,0.110121526470370337258409,-0.00443462916586647316191661,0.00129685993430470199692939,0.000647628445254400109121207,0.000459227124637640905790992,-0.00211137642021060620636796,-0.12523957650016637188628,0.992123990074973649555545,0.0990129340541733155012238,-0.019319034333914138212851,9.75356215225831135740009,-0.00897812130955571302548535,0.00232663624516942424066968,-0.0109114215228379735772579,-1.48201739589898084936692,0.656094151881375986512523,1.21308446739755360077595,1093.84790141771100024926,1116.33495919702863830025,1113.12718951635497433017,1092.37546943712027314177,282.110940375429549931141,23.5156836132323867616378,555.017367728863064257894,-46.4353372350625122066958,162.786037469414651468469
3.75499999999999989341859,-0.140697230122342809011116,0.640818638201091750339344,0.0636337527448712220179416,-0.00510153406903466558747207,0.00214332224581059976181718,0.001215504640489992269764,0.000495707194672140890982781,-0.00215042311185384546132204,-0.125230994823786856429138,0.992124970734818534268129,0.0989175935572985803867496,-0.0167175360269301957749644,9.75775834414850073983416,-0.00887958186999079912560262,0.00226977917746568535681262,-0.0111005556440397414735832,-1.48203542806818466814889,0.656099192228748684385664,1.21305765373995555478359,1094.51846140493694292672,1116.53513058931275736541,1114.58978261726383607311,1092.17899945764906988188,277.28780250361472781151,139.687356500271221193543,663.725028876479655082221,-118.266416808675074889834,162.784368542195693407848
3.75750000000000028421709,0.152901488876229729729772,0.824398268597936301205209,-0.0295000384194323735098653,-0.00509184979142877740254658,0.0036900426382237309572143,0.00131771645125651959071233,0.000524971293093174783302157,-0.0021805807841203221630888,-0.125217047325185376616119,0.99212665713358016983392,0.0985806235830751637072566,-0.0142405561842277941786428,9.76203105696984252404036,-0.00878043176203770203702703,0.0022231446743807489752065,-0.0112796039362766421787487,-1.48205456096300536295018,0.656104412812280601841053,1.21302821001002714140782,1095.23434043022916739574,1117.03339597953004158626,1116.44581466073759656865,1091.78413735307685783482,250.424307589793357919916,215.051448034850210433433,681.533984621318609242735,-163.69774707276323510996,162.782295236234830326794
3.76000000000000023092639,0.379852335150028086463436,0.96434977381756958880743,-0.128509713663690933183048,-0.00444546909586630758365322,0.00577517968229119150330719,0.001134547004335283073434,0.000547278667200738126556725,-0.00219503529098939373365162,-0.125199891284140329972274,0.992128791459745418279681,0.0978660286214672742177711,-0.0119188239229632078619581,9.76637165585512434518023,-0.00868025985695984776679968,0.00218665905473694162711173,-0.0114448581111763012657656,-1.48207602855926223739402,0.656110489348444292367901,1.21299681571558415349443,1095.77058294288599427091,1117.61038782948708103504,1117.99745254037065933517,1091.36051072228519842611,209.353943852288381322069,255.309159097492710088773,596.850722470766413607635,-175.826414449697153941088,162.780512312920563999796
3.76250000000000017763568,0.567973252266930628273656,1.07146822988339196491836,-0.237942729323323554080361,-0.00331421870245704550811405,0.0086684708669012566772949,0.000800709186117075995443859,0.000559814950925583126178919,-0.00219357565448294366053372,-0.125185128087320018952511,0.99213066646876268972477,0.0967734324455030298084424,-0.00982609340249303991887686,9.77076222938111094151736,-0.00857872000158328359975535,0.00215944582179347383671386,-0.011592791360337851430673,-1.48209952704281988644652,0.656117998975814353812552,1.21296412273668097192569,1096.28111014949058699131,1118.30994177501747799397,1119.43006827309136497206,1090.90500528082839082344,228.098716080380967241581,335.036640177266122009314,569.036090122575274108385,-188.026575949565454948242,162.77867823684169934495
3.76500000000000012434498,0.72519554736630231772665,1.14407809792873438325955,-0.366508531413980154223253,-0.00136766370511406118795628,0.0125955372135511979581057,0.000185124450993667431179107,0.000562720697799270141124806,-0.00218155383906569683497012,-0.125176581323631325171064,0.99213178406610369464147,0.0954038591960165716088227,-0.0079647729048083898417687,9.77517664831072607967144,-0.00847585862800257112958935,0.00213988946633467689087404,-0.0117203134883670841842607,-1.48212359146460492809183,0.656127272811096284854671,1.21293048053727314794514,1096.91107652328787480656,1119.28557103037337583373,1120.84263299098347488325,1090.42037784253739118867,237.652298248445333683776,386.234721569743726377055,441.964000746348006032349,-151.524560409237494695844,162.776427222731598476457
3.76750000000000007105427,0.782190544959378564193742,1.15241081334886019682529,-0.458278841034847506108463,0.000658532134525420509950366,0.0159116952103614331393011,-0.00062154410886339033198017,0.000557533211316633492762862,-0.00216127193160360869111924,-0.125174581849569088731755,0.99213209327263851555756,0.0937972561950981692513452,-0.00631671897439354482900464,9.77958311772923316596007,-0.00837219646365755347516835,0.00212591959060963540256717,-0.0118250301794702288721295,-1.48214648322431630234064,0.656138408534417627571145,1.21289588897935463052136,1097.4693716407327883644,1120.24111538286615541438,1121.63988827682305782218,1090.14738247878221955034,228.303089020214741822201,422.240374538168794060766,215.84639634143519515419,-64.4452438482872054237305,162.774516439039075521578
3.77000000000000001776357,0.744669661496841550629711,1.1099727777836985165294,-0.515371402480619744679302,0.00304533686939645505120655,0.0188048393462780065454876,-0.00189363872692359771002235,0.000546637989610516028711473,-0.00213379975755729426462048,-0.12517756362189652596939,0.99213178622784636839782,0.0919696209006889142667518,-0.00484887254902280524782032,9.78394551126686806696853,-0.00826883895493382529984228,0.00211527083957566749278234,-0.0119053112691830473984789,-1.48216677929006901415221,0.65615093342991293035027,1.21286037605052965382413,1098.05259196838892421511,1121.39677290306417489774,1121.92186497269062783744,1090.09815162329596205382,231.043158454172413485139,500.834468414415596271283,18.2432055682060543233547,27.0250586296248300754996,162.772576567070871078613
3.77249999999999996447286,0.620222745051659862802751,1.0330671536461275561436,-0.529101868392180874067776,0.00562800132945880798862603,0.0212245222578102098187625,-0.00360723425831561321855401,0.000530284518136753344613732,-0.00209855394480555797198651,-0.125182693067692057953266,0.992131220922240930626401,0.0899125928344259167657171,-0.00357213866829402849900621,9.78822537835772266134882,-0.00816730523185421608545198,0.00210586186025018195708269,-0.011960373396744796575808,-1.48218362205559350819328,0.656164719132752538577336,1.21282482893166387860617,1098.62458743300362584705,1122.74528772493817996292,1121.73110430466408615757,1090.28250777193034082302,214.115163299406987107432,582.570552720074942953943,-185.155924421091498288661,134.526404335113653587541,162.770617051424210330879
3.77499999999999991118216,0.391961166170834318656091,0.924249201214619287014784,-0.47727432626388210934465,0.00795953390830948966094827,0.0232572939546597558246877,-0.00567921894364363435275811,0.000509077133935587587687532,-0.00205309306573790923203249,-0.125190506193627315578709,0.992130334740545349880847,0.087583615311833937222552,-0.00249342112349887866373788,9.79238413762170445409083,-0.00806919248935726932114854,0.00209597355892592518075701,-0.0119903496229516928067715,-1.48219757654312345174219,0.65617896210755832786532,1.21278880092461616158062,1099.12316778488593627117,1124.30962566666448765318,1120.99608535058519009908,1090.77078364497151596879,184.77834354926412174791,715.683538551290212126332,-420.613872852991221407137,280.484285422250252395315,162.768638200810414673469
3.77749999999999985789145,0.0196706907891800314436281,0.764763796405405371636732,-0.33568935113892406363334,0.00957862551678427716350672,0.0255778555997567789981328,-0.00800838628659457027469948,0.000485351964694330463220839,-0.00199783818790507479087881,-0.125203454460023538841185,0.992128817172572174953871,0.0849943282372117997480743,-0.00157807109754936995826835,9.79638463240414125721145,-0.00797590340623600436986695,0.00208447586319364299572987,-0.011996251695437418899326,-1.48221043019481135694093,0.656193413229638089489981,1.21275267988988821876717,1099.5484791507499267027,1126.32370541769455485337,1119.62803494039917495684,1091.6849291990415622422,115.044227226909669070665,731.860302976015759668371,-549.141675633663226108183,380.230608084840923766023,162.766245506096566941778
3.78000000000000024868996,-0.342866131667116491588132,0.61096240770431176070332,-0.161823528553633272375478,0.00988251312549026650344786,0.0273648325075008837237167,-0.00955903991746757594749617,0.000460326535902853665755546,-0.00193687490710079627392881,-0.125223000077869267565589,0.992126475972305632566872,0.0822332010096010340705064,-0.000804353873279322825751159,9.80019331540268723301779,-0.00788842830782579898518669,0.00207108556243825641177136,-0.0119799651135637647003662,-1.4822238446161031255599,0.656208506237533906180204,1.21271696831662234572491,1099.69838892102052341215,1127.96892718154481372039,1118.250376972416688659,1092.67193668539584905375,7.21407277651402623064314,606.64112812274197494844,-553.44955125420608510467,425.772853697906953129859,162.764238693347579101101
3.78250000000000019539925,-0.711894655411611121387239,0.439640633173772721331574,0.042039583027462343323144,0.00925874354856779518962995,0.0287863940210851786127844,-0.0102088669288267035184514,0.000439290263390944854884901,-0.00187815661309217681908257,-0.125246665003043433639363,0.992123604663286640104047,0.0794567049251174994939362,-6.307676337885884110257e-05,9.80378233975880597483865,-0.00780732109677615814663509,0.00205635990879070307268961,-0.0119442491813654370902409,-1.48223899109210366376033,0.656223154006649433966913,1.21268239118988008229394,1099.58454951463249926746,1129.35691105830846936442,1116.86078718412795751647,1093.8137934675312408217,-114.345149817384196921921,500.980421222049471907667,-562.8747423902161699516,518.729102936469757878513,162.76221993857564029895
3.78500000000000014210855,-1.09302579592073678682596,0.221940330033297106293588,0.27374982753425591841534,0.00661793299388955483936181,0.0300634307984164461657883,-0.00914527943267426542128806,0.000426196660455732798025025,-0.00182495086113753680889804,-0.125269880536283684246968,0.992120770006748364799876,0.0767359358051504375497487,0.000715796687653128330119934,9.80713247571916646450063,-0.00773270784066185795646575,0.00204178308671844202862311,-0.0118927189831556211901953,-1.4822562698211338982901,0.656236340215828217736771,1.21264933694235366168357,1099.12666317193361464888,1130.47382928765500764712,1115.43600326046566806326,1095.26558220007814270502,-216.838703960870674336547,291.653259177980373806349,-454.142580784364895407634,532.924762293680487346137,162.759784060842150665849
3.78750000000000008881784,-1.30417012006923660472069,0.0396206306401458638322133,0.421311161350295115823883,0.00236477310143252223914589,0.0307208001107467099100035,-0.00693850361063029844044259,0.000420976070637346059134104,-0.00177829993547693127400877,-0.125289223796735793570178,0.992118401447844355800498,0.0741105740052403066941977,0.00151653852437660420504617,9.81023409571568194564861,-0.00766462907141484631884376,0.00202956377651109095769377,-0.0118296009145924876926337,-1.48227501012923612577765,0.656246923215500599368966,1.21261804302834641511311,1098.50035599482816905947,1130.81517735419834025379,1114.59007428020618135633,1096.47841727899958641501,-287.990340124730892057414,2.49937692351528184531162,-252.092649393813104552464,472.770872507008846241661,162.757743114644085835607
3.79000000000000003552714,-1.35127087968069492518453,-0.127668136477941646100831,0.496144202515967802646912,-0.00323034422357061515654331,0.0306683188480019464083881,-0.00444807254735602418393992,0.000422121051853905412259982,-0.00173736182523207818503841,-0.125302849978421865229095,0.992116734988213622159492,0.071588752218807241711751,0.00228847244160350869746079,9.81308789292998717712635,-0.00760324409253267281816324,0.0020222121580221507144981,-0.0117594963729885579328815,-1.48229385398043955746061,0.656254845191182822894405,1.21258955734985263141823,1097.68671147130999088404,1130.48632617227258378989,1114.17554001349662939901,1097.62943656261313662981,-379.137881114101105595182,-284.894047630092870804219,-89.4579313721825144511968,480.628160038223768424359,162.755691284658666972973
3.79249999999999998223643,-1.19622225954786820523168,-0.288498157466188343001079,0.50137863381054625921962,-0.0097313336493022734030589,0.0294973655304121180897869,-0.00204362981338544226483922,0.000430688489193185235041905,-0.00170033989096817742155132,-0.125308014892756475200386,0.992116122047896231705977,0.0691549499425095637317185,0.00302613831255671948683439,9.81570490420024555078271,-0.00754888048064507495571451,0.0020220824200937155892821,-0.0116870572587479456400095,-1.48231222426112085877037,0.656260960299190010402981,1.2125642114821362227417,1096.60466658925770389033,1129.390707116047906311,1114.14278462334527830535,1098.88155807919065409806,-396.882946185004868766555,-490.881217935258518991759,47.2562295411545250090057,431.679070402933689365454,162.753217937772205914371
3.79499999999999992894573,-0.908204299814077464780837,-0.375676064928912867291189,0.450286450879950728154455,-0.0140164358737723728637325,0.0277957667335689655174757,-0.000719311528087083324432827,0.000446650879731580756262094,-0.00166969750484985564840945,-0.125304009919372988379749,0.992116650730989646511659,0.0668800714530196765972292,0.00371193253009089417504551,9.81810563199257124722408,-0.00750209859195348060384445,0.00203107490035654052532021,-0.0116164720893100151949406,-1.48232969053729246589057,0.65626577993430335045133,1.21254149659974919117644,1095.70229674038500888855,1128.03192008259634349088,1114.41182116120239697921,1099.78783191462775903346,-341.931734335874352836981,-589.015044018391336066998,139.974671870462117340139,330.040514655099968877039,162.751149075880874761424
3.79749999999999987565502,-0.510258919514618436430453,-0.40971089805035088016183,0.367695581052291331491944,-0.016265700966399565530196,0.0259404634197234959525069,-2.425371851232518505357e-05,0.00046767137083261582381627,-0.00164581001808339214345644,-0.125289018935552887157314,0.992118554267587882122825,0.0648004440895164485203495,0.00427737301160789097631554,9.82031981599969050478194,-0.00746338792831869376337428,0.00205051608094068303286828,-0.0115511453570452515132727,-1.48234574498815585563705,0.656269673326672298152573,1.21252052672838250835241,1094.89500791757836850593,1126.44563189595601215842,1114.84265798269757397065,1100.53176065246611869952,-295.288125976438152520132,-632.528160284303339722101,178.181243817231717230243,269.780674222402012674138,162.749074645408484229847
3.80000000000000026645353,-0.0775788590443537845464661,-0.407754495389642535041475,0.278195092396226917319524,-0.016623162559210053618175,0.0244746050202072490398209,0.000298478748919335588451335,0.000489665939138001979347159,-0.00162166830463412667273637,-0.125265876094718814348639,0.992121488887968139280815,0.0628124571695762717871148,0.00460266563340362526435268,9.82238540313466934605913,-0.00743287642145183408831643,0.00208094641565253557838333,-0.0114934738039015500732365,-1.48236053080393470615661,0.656273297317653603322185,1.21249979126582574373572,1094.22585611050271836575,1124.86927928117461306101,1115.30272738028861567727,1101.13673528573986004631,-223.231447294286624583037,-583.323113786406565850484,173.069820992111232271782,209.307891127704778000407,162.746997901716468959421
3.80250000000000021316282,0.327329378119044056560938,-0.382611372451711506670335,0.19804164307582539095165,-0.0150262830219984825502744,0.0237529045051205200955735,0.000363089527175357545778211,0.000513291180979600367498272,-0.00159498149321725163525543,-0.125240352281723033023297,0.99212472912344096265258,0.0608917580037594274866564,0.00467432116622896152990929,9.82434531913763287036545,-0.00741038884758697408844386,0.00212190780412801951321233,-0.0114445902900911153365904,-1.48237488669188133272314,0.656276552659906364795006,1.21247779369087416156958,1093.77885068110686006548,1123.52901632702378265094,1115.70800708765818853863,1101.57830010810471321747,-134.226772179320647637724,-491.184973963992433709791,154.45305374828751610039,159.173488183799889839065,162.744921727544237910479
3.80500000000000015987212,0.708595020240353479223927,-0.353436823676569034091699,0.12608308418793373606448,-0.0114849305592543311782538,0.0234264426558128124877811,0.00034640926204689643976703,0.000537613709286703851143729,-0.00156658239955503311366392,-0.125218145362932603559258,0.992127556753952477563985,0.059077234742441087078646,0.00445937237726826314621054,9.82624577566992840615967,-0.00739529753027042772300925,0.00217210564541569150706635,-0.0114044417313245421280454,-1.48238990254634761534192,0.656279831802014324004801,1.212453938587116697434,1093.55472224960612948053,1122.41335441135470318841,1116.07499264903003677318,1101.93260272665884258458,-23.776012308690550156598,-309.201697915939121230622,113.298584427505062421915,103.733330679872267410246,162.742436012716069626549
3.80750000000000010658141,0.907092252513292951476842,-0.344358064262825058765571,0.0897872668350331304409906,-0.00776228323950443888090689,0.0231022025855174527320113,0.000362736420358907897271844,0.00055659329467682794410216,-0.00153733280919926313008717,-0.125202249622324568445464,0.992129596865091722968089,0.0574187885483701115907351,0.00383068018808830311472402,9.82813456066021373658259,-0.00738646919955174199173831,0.00222950974420652557606015,-0.0113720492238279478891538,-1.48240589613207562891262,0.656284618042598966169976,1.21242857827039984819351,1093.65997061956340985489,1121.98300783744412001397,1116.27450000979570177151,1102.09696676150406347006,108.102846362501196608719,-65.7372638226675434225399,59.4701792309491708010682,43.712247948043135181706,162.740373219590765074827
3.81000000000000005329071,0.973062066517610846361208,-0.358796045066941626799917,0.0768605455894869893374022,-0.0042701166301214602341596,0.0224925841176260299381084,0.000492103900709294612113298,0.000571867830969372188155975,-0.00151103854446253834352409,-0.125192160782072514635388,0.992130904533079727158906,0.0560021667154788072018334,0.00282490958963753889532367,9.8300584604637890606682,-0.00738243595229562486054187,0.00229114423578147654095294,-0.0113458123283354528343381,-1.4824226698271540936247,0.656291942122451787966497,1.2124019739288243169284,1094.09523648141862395278,1122.08466809224137250567,1116.37234354518477630336,1102.15116396639905360644,269.233036736756105256063,150.542197175130723962866,21.5363483970127198574573,5.33461684940459690551506,162.738323643677688323805
3.8125,0.920803767142137408185931,-0.404388348622318039016221,0.0837329809438788486009031,-0.00101049828526253568025672,0.0216543788891155157549928,0.000806187971641764318520007,0.000583309276835799572595576,-0.00149160146424039564277964,-0.125185709932223637741444,0.992131747941290553782778,0.0549162025373151757579038,0.00145278777269109045378048,9.83206192514600019194404,-0.0073815763316320628928402,0.00235352372454137714202771,-0.0113237147378030620498146,-1.48244044944977937383612,0.656302570468410229054257,1.21237484591770838804337,1095.00613580324716167524,1122.73571882331975757552,1116.3821817517807630793,1102.12363984575108588615,394.50895694909308986098,304.508819868585419499141,-13.0655542266143189777949,-20.7876165090969955429046,162.735883614682677489327
3.81499999999999994670929,0.795320144957073704716777,-0.463627925117862771386967,0.10482593944958988607663,0.000897780092853447844562786,0.0209044775546485955830533,0.00116108618281073462490116,0.000589920806054766190540395,-0.00148118128789739410960946,-0.125180829646034469382343,0.992132387824634642825572,0.0542144368624379452414885,-0.000286997937865173316507317,9.83418559160671357233241,-0.00738231776025006277558438,0.00241297422813387162435217,-0.0113035038833635657906651,-1.48245857121208857165584,0.656315763550743169751911,1.21234743471330874697856,1096.06778126616404733795,1123.60721219158426720242,1116.30701577405170610291,1102.04722588385357084917,474.149929476799229632888,383.775157502222100447398,-43.6760542982038018067215,-37.0170622283702570598507,162.733869027350948499588
3.81749999999999989341859,0.619816667352091399401104,-0.538177330807075748886348,0.139719570242006013716107,0.00210249958956477359800497,0.0199197182328436812881467,0.00145975953807000015730044,0.000591246859291391754949452,-0.00147286005498843339256432,-0.125177907437942437240963,0.992132784574353943085612,0.0537683383645945756068585,-0.00239784773835333142599779,9.83646547730559106526016,-0.00738318387164386014803741,0.00246595855692136826237126,-0.0112828883201676784253653,-1.48247673952259573226797,0.6563303892708334252859,1.2123194433978816686448,1097.37688545063110723277,1124.65459461083082715049,1116.16380148028974872432,1101.93855453460923854436,607.257960915380749611359,462.564932271939767360891,-69.0617742774473981626215,-50.4468447584679395845342,162.731876384856434469839
3.82000000000000028421709,0.385262956390223010316731,-0.632483041359908737533146,0.19644246932802686411712,0.00283602644350168346665253,0.0181468183376968308917476,0.00157977618774297282749908,0.000586599277006581666313312,-0.00146629422741267087353101,-0.125179583843990444025351,0.9921326029547342661985,0.0535746923507997296898253,-0.00486186281456612093276881,9.83893084789326444195012,-0.0073832521457521168434246,0.00250930927348675357480001,-0.0112594052307736017248807,-1.48249435345639724026512,0.656344543720323359003999,1.21228987012973665748916,1099.10407107074115629075,1125.9200368529441220744,1115.96170690266444580629,1101.79499166006121413375,635.382980909528555457655,442.072740426981170003273,-69.4268561280703977445228,-50.9515139005963817453448,162.729512716027727492474
3.82250000000000023092639,0.186990797044842532725895,-0.704835867869765375637314,0.253184738602677206209535,0.00305749459172586363076007,0.0161532395439060866282333,0.00165643221115960716065263,0.000576759594432894981581861,-0.00146199636547327720473288,-0.125188365665711842655838,0.992131524209240556189116,0.0536401060645965016560055,-0.00762121912923274281992381,9.841604017868858633733,-0.00738199121412403194697482,0.00254031210161835075203585,-0.0112306795269103299600433,-1.48251115639181585414974,0.656357744357666694767772,1.21225926103666603594888,1100.55380035517896430974,1126.86495831296588221448,1115.81666719964937328768,1101.6837969651062394405,551.975796869203691130679,339.364379508067884216871,-42.8364771581536913913624,-37.3559142266466324144858,162.727566994219557727774
3.82500000000000017763568,-0.00283485592694258589641088,-0.762576737970761975304868,0.309962530384973233843482,0.00321108069974375366292807,0.0140553866243593849477689,0.00199910194860466062377613,0.000563624014735956903494885,-0.00145457231375126162971345,-0.1252025618037690968265,0.992129766574803895196055,0.0538499660221738729593,-0.0106026951045721726241133,9.8445005335556139414166,-0.00737896867422713469836237,0.00255672442071241436123419,-0.0111947057833507220697689,-1.48252671759966037079437,0.656370458416259960898742,1.21222855466796852752509,1101.86395005508711619768,1127.61685875048442539992,1115.74752451687368193234,1101.60821208892798495071,480.798465340886878038873,268.293621882190848282335,-11.1326204665604215904295,-20.2222449645891835245948,162.72564697221912410896
3.82750000000000012434498,-0.180829989523197315337555,-0.806890869314296987901969,0.354433292978973135678444,0.00331172505061796962344545,0.0122678386832256406530073,0.00262510365492752686597533,0.000549192296964025631830775,-0.00144102052364946287173197,-0.125221344889248326071041,0.992127436039710874915443,0.054133064131899319426644,-0.013717837181920187333839,9.84762853304173368940155,-0.0073738942016494972084284,0.00255663055579741227418822,-0.0111498260022174031785847,-1.48254140676194889891804,0.656383338124558624038229,1.21219821762858015468112,1102.95779268188334754086,1128.20642642237680774997,1115.76100409731657236989,1101.58268574028329567227,367.306273739549055790121,208.525207615507383707154,24.8597703430737801966188,5.63150632392547034754671,162.723748764791338317082
3.83000000000000007105427,-0.336890249636709548930469,-0.835390335099277958619268,0.365368646015437281704408,0.00297772351352946530733679,0.0106455673211544293160769,0.00361674987738217282307041,0.000532202347513924278223085,-0.00141657050133160906414675,-0.125241738203474256563297,0.992124915070008661643897,0.0543887200244662222248238,-0.0169404984894642139658938,9.85098913834937128797264,-0.00736637544024135865194935,0.00253857752170264221874829,-0.0110947571031843206929013,-1.4825562913805376830112,0.656396797380694674295398,1.21216922533130011530034,1103.70048142378482225467,1128.65948478856194014952,1115.87182336858904818655,1101.63636962054761170293,231.962304475478447329806,190.340187197857147793911,66.9095358028712894338241,43.608055437563074008267,162.721877974856369064582
3.83250000000000001776357,-0.483004187199316759038226,-0.84737157735062351715527,0.31576406896327646744993,0.00169226792085953783167929,0.00844545672820076059883476,0.00549949752537334454749463,0.000511891423950353767827193,-0.00138094484554766167017092,-0.125260492506770571008445,0.992122615045836542257973,0.0545999941798626792222038,-0.0202194747502151203621956,9.85457627645349809597519,-0.00735601472795955561162495,0.00250149361615143893053381,-0.0110284144446223687091591,-1.48257163528122126727737,0.656409742679821550659369,1.212141957453237717246,1104.11760420426071505062,1129.15812735836607316742,1116.09555177633092171163,1101.80072601747110638826,70.7679613256929371800652,189.373743675473122038966,93.8409026776318597740101,75.2306481074827075872236,162.719667018180416562245
3.83499999999999996447286,-0.557485170999730161867092,-0.832370616357344217384195,0.210863506046655380110622,0.00021025044661825340844459,0.00622001935755904077768319,0.00760632184985923342351866,0.000490123667070235281839619,-0.00133807295128756525981473,-0.125276996567548148941995,0.992120607631759132694071,0.0548231766255081326422172,-0.0234392091594338922155849,9.85837716853238177350249,-0.00734244235773435366398942,0.00244460640562052999510967,-0.0109497348001024660812952,-1.48258680088092664739463,0.656422669919412893335675,1.21211565122821407491926,1104.05432123041327940882,1129.6063535069392855803,1116.34102788197719746677,1102.01252286108501721174,-107.277461083142512165978,191.959064647748618881451,108.80891783808924344612,94.6803976256908015329827,162.717855179944422161498
3.83749999999999991118216,-0.570168235157249791988932,-0.783965355912311645525392,0.0450482862984197679478982,-0.00119504831266981732459942,0.00387116739390240376106345,0.00951217347969582002753519,0.000467959523171805787111754,-0.0012916532702797920654364,-0.125291435049437571702668,0.992118865398070925998297,0.0551096930003499990702309,-0.0264997939664335172005316,9.86237307353001746434984,-0.00732522682961384789118719,0.00236755673726710049592503,-0.0108575447154146981915135,-1.48260113387805425588795,0.656436535109107932584038,1.21208959437958996296913,1103.58121689884501392953,1130.11792268160479579819,1116.63959636552135634702,1102.27412800559955030621,-290.573266318648904871225,229.444682130411251819169,145.555941832984359507464,116.33495211053990203709,162.716078624490421589144
3.83999999999999985789145,-0.502222041582030320761021,-0.685256682035081721160452,-0.18632158683177213465143,-0.00282784509907863532487959,0.00147762369535627577192549,0.0100998254017896950396338,0.00044812651354926287365632,-0.0012518732899829301645489,-0.125304660290330660554758,0.992117265640523049441413,0.0556317188574139004364483,-0.0292540819688373726625841,9.8665394391531133777562,-0.00730396426954578025653175,0.00227042946099062720524686,-0.0107504200725372645042199,-1.48261483583512965189755,0.656451110514874147661146,1.21206294987931362250322,1102.60145489882006586413,1130.75357691759131739673,1117.06880759114210377447,1102.59419762163770428742,-412.5800000537941514267,220.749593455214949244692,172.096606453839939376849,109.348169602973840142113,162.713992559919063296547
3.84250000000000024868996,-0.368483285449190678395581,-0.572277540217456581750355,-0.362388077806423514193312,-0.00436847617919512102441226,-8.12862574439013281296304e-05,0.00867777889282371830970142,0.000434128159844896746762111,-0.00122552477981629657707852,-0.125315340221319959645996,0.992115965898034857239907,0.0564911063166640969868126,-0.0315517703377645314377631,9.87084722713104056879274,-0.00727799093348971241901335,0.00215399751925172402641784,-0.0106268749054745682836032,-1.48262875945741434691172,0.656465380611668369859046,1.21203534614298225058349,1101.51831689857590390602,1131.2216706488809450093,1117.5000793977906141663,1102.82086885361445638409,-461.707422082022958420566,154.041820424789477783634,190.654335031909653253024,71.6063809271824425195518,162.712296637768105256328
3.84500000000000019539925,-0.149932286516592738756515,-0.433505341988814962839172,-0.470055056118606096049461,-0.00604515975290689441812297,-0.00131528849148873205193722,0.00591641122966941098576532,0.000429094830362435856064424,-0.00121366331785388711569929,-0.12531951457308818098646,0.992115463694706489761188,0.0576764099220007375734554,-0.0332699037632966515554145,9.87526379396291353884862,-0.00724632520497478071347386,0.00201982260179513206654889,-0.0104855313351217734052501,-1.4826433696923109195609,0.656478103147881797418961,1.21200722677075889421872,1100.29291778840979532106,1131.52378601971531679737,1118.02207926630171641591,1102.95222952627364065847,-531.733640658706008252921,81.5391391010979589282215,250.274273175915254796564,26.0931663547131513780641,162.710650625814395198176
3.84750000000000014210855,0.199371610634161589015179,-0.245331267343138037517747,-0.487604654518809965679793,-0.00780932440569277741548859,-0.00256569893357094618024927,0.00246850214775748465559357,0.00043281114608886074894209,-0.00121443307878169601612961,-0.125314327774855155395173,0.992116122632055175145638,0.0591259043201294298697235,-0.0343661174799077470676245,9.87975346991924041617494,-0.00720779589855559052469225,0.00187015581824617272213573,-0.0103252175788703156461557,-1.48265884423039340234141,0.656489268646502588389069,1.21197890354591852890564,1098.85964869528243070818,1131.62936634438642613532,1118.75145076367016372387,1102.9513346853880193521,-487.658694603998299044179,-1.75555217547302278013888,280.308236068100598004094,-30.3829792308540262979477,162.708740034636662130652
3.85000000000000008881784,0.5367114044115719462269,-0.0784126770470482542529922,-0.409841401992415643729117,-0.00854086272244671505793345,-0.0033667475595933727371134,0.000150888807865193127219841,0.000444045453929018459505312,-0.00122014257845165204410809,-0.125301690960660877527388,0.99211771080069799388923,0.0606650720279875294016492,-0.0348420704696016797496938,9.88427901350574522609804,-0.00716107353530057687274191,0.00170765899483798469678242,-0.0101451429434005792329376,-1.48267584748144298778527,0.656500204021340127980011,1.21195029046455804433435,1097.85462431538985583757,1131.5150082588379518711,1119.42362044664218956314,1102.80031463011937375995,-328.36394288666059537718,-72.7132065687344066873266,271.651962290167261926399,-90.9146150235320646970649,162.707206194605163318556
3.85250000000000003552714,0.865029905172652879841166,0.0843487293063484577793076,-0.261673893962874548613229,-0.00729035813624892732598415,-0.00354741218164458024103558,-0.00116347863222200729321765,0.000460407737039363810886694,-0.00122415166254884102275957,-0.125287040072834893189579,0.992119550713099651595428,0.0621424251709306041391301,-0.0347309865424145353118845,9.88880239848633024735136,-0.00710496545953076801688253,0.00153528655106784724278246,-0.009944914064249825089159,-1.48269429368510130551329,0.656511105386509030701347,1.21192091822376557530561,1097.21782898084916268999,1131.26580031154276184679,1120.10971057512097104336,1102.496761610270368692,-174.242258871167081224485,-106.534041655870623799274,265.477272401273012292222,-142.455106686660059267524,162.705737323326530940903
3.85499999999999998223643,1.12972824890114087459381,0.228791132292534005188145,-0.0857537885573799590899213,-0.00395939272058067667087178,-0.00293169562501231989806727,-0.00147421327818554950828123,0.000478184428469774892942606,-0.00122229201380715988244086,-0.125273082198626872774128,0.992121307828522813743177,0.063458271677250974174278,-0.0340992769092855474433179,9.89328604340897399538335,-0.00703863760098320627445201,0.00135635279347502625720001,-0.00972466177908715319333499,-1.48271345449468605615095,0.65652247000440921986808,1.21189124729717834227927,1096.98341302103403904766,1130.98233805055861012079,1120.75100680864852620289,1102.08803909668608866923,16.6911015581721500211643,-104.745472923925674990642,230.394920886560981898583,-180.233108443330110048919,162.704324975738558123339
3.85749999999999992894573,1.25374411634572502372009,0.333605412638969034411218,0.0835874387798397067150802,0.000799250517598456547072039,-0.00163222216773879920913293,-0.000760227458277582478739232,0.00049456724712532227749423,-0.00121524760698189749838494,-0.125258682850074104520033,0.992123125690397622555849,0.0646069174647440347403204,-0.0329982177698840903334876,9.89769408669807582157318,-0.00696183641932116448886037,0.00117454805788630954610507,-0.00948516218110076123060104,-1.48273266559023775279513,0.656533980000267081145182,1.21186231734154725714347,1097.30128448864002166374,1130.74207294692314462736,1121.26168517955375136808,1101.59559606805373732641,272.264936251991798599192,-82.1121715740918460824105,177.043442008929702069508,-223.169217595527896946805,162.702983190838466498462
3.85999999999999987565502,1.18663910969341057644044,0.39991186594164701562093,0.236406928707618368967758,0.00689071602199733783400415,0.000261932989161381098771469,0.000877101611570563536278422,0.000510744061650786730990892,-0.00120250418933687958089607,-0.125242675087712918013949,0.992125151708880714807037,0.0655515929204425473741935,-0.0314187780577555170191673,9.90199434522735799646398,-0.00687487852866960295200593,0.000993919780230542075985523,-0.00922797913371452109554394,-1.48275227525375763448778,0.656544520651049401394062,1.21183475319898903421745,1098.34473770229396905052,1130.57177719268815963005,1121.6362240186931558128,1100.97219300870847291662,488.435349328586880801595,-39.7447074310066881253078,89.8067301569820557460844,-225.129051797678840785011,162.701456717397093143518
3.86250000000000026645353,0.940098954232314709678064,0.404839747079421385933529,0.30238061135538635282316,0.0119167436327057649908534,0.00193650975431438362832359,0.00264619757645960474931601,0.000529360455920301390363159,-0.00118531499033921908052569,-0.125222901558061233684427,0.992127655794093565866376,0.0662900118021593209860498,-0.0293344982155336123086364,9.90615905162297671893157,-0.00677876972404612559985893,0.000818921309277167584934898,-0.0089553344004345471901507,-1.48277264970655542342115,0.656553095521988150373716,1.2118098048149534839979,1099.74346123528312091366,1130.54334940976809775748,1121.71071883033869198698,1100.46995080906526709441,655.563099625216068488953,9.24503701912664332951408,-19.8326548882946802621063,-188.541475098632872686721,162.700255181953366445669
3.86500000000000021316282,0.521235876558370336830706,0.36841253383263294907124,0.299247698237107395691226,0.0158327868238355637386938,0.00347292807255444261477217,0.00443063058934870662719518,0.000548888447082161961936009,-0.00116716154548809816077215,-0.12519960396939694424745,0.992130603242728392743288,0.0668786460240144153832631,-0.026810735540915224539571,9.91016543330035837300329,-0.00667527810674384443345719,0.000654308587262944366461093,-0.00866987887945269188050279,-1.48279290584000245090124,0.656559569029560141650848,1.21178764136632954873107,1101.62255320042027051386,1130.61800237778379596421,1121.53706074425167571462,1100.02948563321524488856,910.615957371666240760533,49.1350840269216391220652,-121.631713659919881820315,-171.694285707148111441711,162.699126987059088378373
3.86750000000000015987212,-0.102227908525887631330242,0.30349538200563042078528,0.232369158938266345826307,0.0175303256673341109617148,0.00476983589942832526820116,0.00576870863881263733208282,0.00057134811149028158494545,-0.00115091055232091122630111,-0.125173608894246751743751,0.992133884139140831415205,0.0673584384843047279112227,-0.0238595388630553628672715,9.91399690381377141079611,-0.00656684311604446846466487,0.000504805890755115923944352,-0.00837447931633752799818193,-1.48281153359867778895875,0.656564389455415398089144,1.21176679513161889012451,1104.29654102214135491522,1130.7890248299027007306,1121.10256026203910550976,1099.6114793805295448692,1021.61100353948677366134,71.2798720395327762844317,-181.418410750897464822629,-130.512539891154176530108,162.697857450127713718757
3.87000000000000010658141,-0.643517563066880682320914,0.257420960143064592173801,0.147124531176343803506867,0.0159494558294657612362855,0.00518877830141003040798076,0.00574879070187252292495339,0.000597158866389463512634739,-0.0011401860077994274006441,-0.125144921559748711903381,0.992137493619487664808787,0.0677950393374279619562728,-0.0205364074480420752411014,9.91764291411511855756089,-0.00645644110002039760959347,0.000375027399928538093636099,-0.00807198716930433365912556,-1.48282757419990929292908,0.656567256714033375963879,1.2117464553341890098892,1106.7306082181175952428,1130.97440173798145224282,1120.62996869049720771727,1099.37692293375948793255,970.400188649248548244941,81.4234934195173138959944,-189.727874515714972858405,-66.7596748943665829756355,162.696869309382861956692
3.87250000000000005329071,-1.11230846938929661682494,0.250310133139534096713419,0.0586236309141139333434012,0.0117098647437935965420763,0.00464682249428564550508547,0.00486723842263432453225658,0.000624795498344096712425855,-0.00113777069705562890004902,-0.125113643891990256040714,0.992141417818093396263635,0.0682484556608001918798223,-0.0169493033491110965671478,9.92109897593489087341823,-0.0063472321233229494694128,0.000269319901292016240616778,-0.00776520346288327514838734,-1.48284129732535152612627,0.656567792923807735938624,1.21172758478908226820181,1109.14854196538749420142,1131.19614229700027863146,1120.15392088946055082488,1099.27768100605771905975,994.647555841332405179855,112.55255706210176924742,-186.44599724871511625679,-10.5983464337898549700867,162.695953109492762678201
3.875,-1.51088190971652958083382,0.307420276191311958591257,-0.0363771107328664730640178,0.00491980720469903636676845,0.00346939754785377139564839,0.00385106954603507255913142,0.000653745641399202694066251,-0.00114178667317329216902844,-0.125082342044176730855298,0.992145335807607553491039,0.0686902808037043732802829,-0.0132074646907514824112351,9.92436662000464409061351,-0.00624211863672872666053415,0.000191502688517519010190371,-0.00745687587098983143546471,-1.48285414718482000395738,0.656565592055368130175452,1.21171100651196050890235,1111.70384599732415153994,1131.53716452329194908089,1119.69773870425365203118,1099.32393120159053978568,829.450931441778720909497,147.173058125284512698272,-135.817020279640189528436,44.7916817328414680332571,162.694936259501673703198
3.87749999999999994670929,-1.68047610620564502603713,0.404974240927377937548926,-0.10936044259044680471149,-0.000894278155549688234110528,0.00293134144206050849257306,0.00350392052454774746358956,0.000679385629405512099163178,-0.00115336269516024079312411,-0.125055108122074321030937,0.992148732283702816658888,0.0691665920639940035030691,-0.00950048802453868843076457,9.92745169858283027508605,-0.00614358612476908084315541,0.000144667790812956856012078,-0.00714943176324217641998127,-1.48286680502538881221142,0.65656086399482649351711,1.21169647789277279414932,1113.29579662259629913024,1131.93200758762668556301,1119.47483578806236437231,1099.50163941472192163928,475.729935295122345451091,192.332226951934444514336,-49.8151071209132751960169,100.132836723971507808528,162.694157301525336833947
3.87999999999999989341859,-1.68842817870772599064821,0.523437980543714265202482,-0.188554305363895224889603,-0.00575144810322771645599849,0.00357523473888299997414109,0.00369556808068339419717785,0.000700623797130147632668262,-0.00117481965507802168201257,-0.1250353996558724312127,0.992151168699982655141412,0.0697422843755567817281005,-0.00594916610323567313783899,9.93036345223682204164106,-0.00605350147342997076810311,0.00013076779393933287321157,-0.00684481074601189527079059,-1.48287944028740614754724,0.656554439554464908113118,1.21168380078676074518285,1114.08249567379971267655,1132.49882565805160083983,1119.44866316864909094875,1099.82459538521038666659,160.716971232011985648569,257.406180823846511884767,22.0993842687206409891587,153.697279877850263574146,162.693448894630193990452
3.88250000000000028421709,-1.5863587796508056282363,0.623841401489649283185202,-0.280584817487840532113097,-0.0096315221264338928691684,0.00541870439475926335415323,0.00398581119715871786540751,0.000718333939726231219570496,-0.00120444853529530406660575,-0.125024020000229940663417,0.992152545087872539397722,0.0704008446700438300647207,-0.00264566014865503032482685,9.93311343006576308312106,-0.00597297589424937002550164,0.000150383703665109253562113,-0.00654433680412174270668579,-1.482891812325884295376,0.656546418815818211278668,1.2116726682712142260101,1114.09938147875641334394,1133.21903849174600509286,1119.58533270940597503795,1100.27012581411122482677,-175.882369726138620080746,312.630147596680046717665,90.1112658934774231056508,208.122304753155333401082,162.6927986662836076448
