t,ang acc x,ang acc y,ang acc z,ang vel x,ang vel y,ang vel z,quat x,quat y,quat z,quat w,acc x,acc y,acc z,vel x,vel y,vel z,pos x,pos y,pos z,mot 1,mot 2,mot 3,mot 4,dmot 1,dmot 2,dmot 3,dmot 4,vbat
3.38750000000000017763568,0.184529660624996205697812,-0.291286382394395582107194,-0.434386514542389523541033,0.00839130525371527963285345,0.0282408630460195542166701,0.000703349810698844783891925,-0.0168891902781324598770141,0.00472296792797497182875288,-0.986043664059621072226491,-0.165557716262779736071664,0.200865335228866737082853,-0.0248176428044152852514515,9.90326055866274224115386,-0.0357937115891286822266792,0.00127454361593662109444769,0.151579591174126115937781,1.06490642106421273815897,0.51855301500493211630527,1.09669611803152267093253,1106.77717183939671485859,1118.48261383597923668276,1110.61861126153803525085,1112.81524604623427876504,219.429070434130295552677,63.1617112489507022132784,-250.769229567964316629514,-129.098217769344984162672,154.169795942689120238356
3.39000000000000012434498,0.0253635231333681314402906,-0.389113267122931871799807,-0.257942864336376642686588,0.00829891639556414040246324,0.0262564905376497653710643,6.72875416518559711946332e-05,-0.0169402702032067399573467,0.00473707489206548482130188,-0.986043774321022303830375,-0.165551206332545941535273,0.201872309092196333679681,-0.0308993305471033652409574,9.88287303373193282141074,-0.0355273374112910975131108,0.0012988644143284661190002,0.151803126568112428662616,1.06501047090478095924482,0.51852340303625943374044,1.09705583119036576000838,1107.34272865356115289615,1118.47265813115245691733,1110.02338401563019942841,1112.46227861612919696199,205.866379129842982820264,-109.027984743854688076681,-226.971916982215873304085,-172.943025190446917349618,154.17259307586982686189
3.39250000000000007105427,-0.0936733901760057052765518,-0.436277545282027445772144,-0.0527077856521801571543229,0.0065634961335606263610476,0.0243116696165114505590044,0.000159511225891861407183425,-0.0169841529835161771100349,0.00475189177388265354684549,-0.98604379967783040150664,-0.165545864150482308074785,0.202303426718966838926406,-0.0378733584961570002302977,9.8624727855000671183916,-0.0352551568977372553614913,0.00132079247787087513538173,0.151995842408813641721821,1.06511454179074283032946,0.518494249034759380201365,1.09741533681895275798013,1107.80650373504590788798,1117.93747391225997489528,1109.48375167662698004278,1111.9505309202820626524,150.03389907183512264055,-376.993350537676462863601,-241.270617590412854269744,-282.678652834835361318255,154.175411930725630327288
3.39500000000000001776357,-0.151346751855349903603809,-0.44223846258277704768247,0.203789225122358030883873,0.00404040330341018903703709,0.022714084823233129939446,0.000878331285479703668950258,-0.0170140007543198232276005,0.00475917171732339640277676,-0.986044309247846695321016,-0.165539270654047609987458,0.20199809082721148500994,-0.0455346741291581258437304,9.84208950298394746880604,-0.034981612529011052448169,0.00133832007954419636430732,0.152158660894002178975981,1.06521795981553335508352,0.518465306730461206186078,1.09777628521973324993155,1108.09289814892031245108,1116.58769137846411467763,1108.81703092767816087871,1111.04888535195505028241,45.1899067906206823863613,-617.605160035113385674777,-266.23187161936243683158,-387.724854935057976490498,154.17882536226798606549
3.39749999999999996447286,-0.124517344497348747545118,-0.419454295087856532386894,0.415429721941369178850323,0.00240759311984674361298286,0.0221113350947852865813203,0.00178387780247794749260981,-0.0170374287641074304011646,0.00474301556874090306237246,-0.986044103240221736506044,-0.165538216960437689628804,0.201062863267320923732484,-0.0534605231938661135115964,9.8217485371788750825317,-0.0347082532204311816625975,0.00135004760998430140342408,0.152290893249915043616838,1.06531921188638811770488,0.518435593354360180207152,1.09813955740376556491356,1108.03245326899900646822,1114.84944811208447390527,1108.15259231853019628034,1110.01190664560681398143,-93.1748958114459924217954,-815.214703976170426358294,-312.514870564207114966848,-474.003317282095963491884,154.181699074129710425041
3.39999999999999991118216,-0.0414304244773202184903838,-0.383667014923696092498773,0.61734419448213784242796,0.0017009149282591149582311,0.0220086843114303438995183,0.00268858256678569489117603,-0.0170642353761773397924362,0.00469557068293018336352374,-0.986042099230799329312447,-0.165548341355504641247975,0.199682550717132367701367,-0.0613598258945704660982656,9.80147967883749871020882,-0.0344364701856650426425865,0.00135080527098968171048621,0.152389807082470074561797,1.06541664862371110444883,0.518403756045231367544091,1.09850545431231538806571,1107.62702366986309243657,1112.51161785858334951627,1107.25445657485715855728,1108.6788687655446210556,-252.333729151092398979017,-1141.22883379275367587979,-471.277629713959925084055,-641.729685128907476610038,154.184606501389055210893
3.40249999999999985789145,0.0791749622349144088762074,-0.330440598473153490655108,0.837844797893788739706622,0.0019800994825641899180213,0.0218034178424381733241155,0.00385838924629428254090002,-0.0170957457674610693865169,0.00461824623571135961519474,-0.986037615311273873963671,-0.165573529801376295722548,0.197918254945469163086358,-0.0691292401963198160919077,9.78132765022892947115452,-0.0341703656688057202939213,0.0013311375836217113205473,0.152450242915877942628811,1.06550934090690851974159,0.518369072009947196022495,1.09887425299282459612016,1106.77078462324357133184,1109.14330394312082717079,1105.79620416996044696134,1106.80325821996234481048,-363.71504363803342130268,-1298.32407749395656537672,-604.875791258159665630956,-718.407136992024447863514,154.188137395095225201658
3.40500000000000024868996,0.162616220397496152871852,-0.269974162407116524686757,0.987636408447392533105358,0.00298328649593572643727857,0.0210671427447012421518835,0.0055585477356784708871662,-0.0171213416172681757998486,0.0045166548596822092553893,-0.986030776222551197385258,-0.165613959821304612685111,0.195625181488583321787189,-0.0767660852019163425508097,9.76135799045873575607857,-0.0339176514710691559550959,0.0012793423992194931197719,0.152464735094976544527157,1.06559744505809717018963,0.51833101724984476099678,1.09924775762583548655016,1105.80844845167280254827,1106.01999747111312899506,1104.23007761856615616125,1105.08683308058425609488,-417.105912548658182004147,-1266.88775247094417863991,-691.505005793486475340615,-697.538027017615831937292,154.191116453388360696408
3.40750000000000019539925,0.195056922979443908561237,-0.17807134380375427840093,1.07288104689049146323043,0.00442360769487256874632486,0.019664179848504499681372,0.00857387314618400682431076,-0.0171379778645599882558326,0.0043864283704845834915842,-0.986021617507134018332238,-0.165669823727956966319397,0.192784227313460676533907,-0.0840310051051496170737565,9.74164773275880335745569,-0.0336840792063758526220241,0.00118710032282413305466939,0.152425192062387637736975,1.06568226350987149686489,0.518289531875868236809879,1.09962633887017324774149,1104.68525506050013973436,1102.80886518076567881508,1102.33867914099278095819,1103.31556808487403031904,-460.079238780654861784569,-1258.17786862888124232995,-791.858963108614716475131,-702.399427670540262624854,154.194135102435751605299
3.41000000000000014210855,0.171059832896694491433109,-0.0540452344890705801971897,1.08242066255080082726181,0.00605216955027214256052082,0.0181303722426198812844866,0.0125310135673686994656206,-0.0171462692851507524094412,0.00422372034819918328041322,-0.986009373750464601648957,-0.165745729613797854185009,0.18945947907016441602579,-0.0906649666514549174012316,9.72228519977001148788531,-0.0334737550134256087175366,0.00104654210974518420938784,0.152323492570267421397645,1.06576405124365525267649,0.518243718005812148419409,1.10000962635310339798878,1103.50805225776957740891,1099.72910812796885693388,1100.27078280302316670713,1101.57483594223162981507,-465.270816415123476872395,-1152.75748855763322353596,-834.682784685464525864518,-673.348147795255272285431,154.197187448000192944164
3.41250000000000008881784,0.0787050292427312891962998,0.100088609637475678404428,0.988298761650740709150398,0.00750072828964019194808444,0.0172427724790950968880576,0.0165131208249124465659019,-0.0171390296083444443331345,0.00403724768387176986134124,-0.985994586010293549982464,-0.165838992048135291934585,0.185612531521092083419688,-0.0966666575039017567094746,9.70337264305767632777133,-0.0332917164441023580301326,0.00084771226964412476831412,0.152151666058463613806495,1.06584308247140446823664,0.518193787839969943753715,1.10039851710799485573489,1102.35890097842457180377,1097.04507773797763547918,1098.16526521756554757303,1099.94882734589782558032,-477.449171230829222167813,-1040.50030953937903177575,-882.970268191794048107113,-674.054460961784343453473,154.200281114765516576881
3.41500000000000003552714,-0.0888156520930020315640618,0.287664219626292960718672,0.767865233364700694451699,0.00795691095109605887880644,0.0179141527305089337529509,0.0197352369144008846224558,-0.0171092889008621386326414,0.00385261230237745472271271,-0.985978746240299019909514,-0.165940795329053147888487,0.181268250859681456788053,-0.102351350597612592019381,9.68501477491865614410926,-0.0331411492352332512356661,0.000578414132658941850841094,0.151903285833446977104444,1.06591992208793806540257,0.518141243106369664417343,1.1007927698203550104239,1101.12080640161548217293,1094.5266065802720731881,1095.85593146206429082667,1098.20456363742277972051,-418.013393400324105186883,-783.857555097500494412088,-775.011322049902560138435,-598.425743831252475501969,154.204041724084646602932
3.41749999999999998223643,-0.248454630424306377456389,0.41658743897188488247707,0.51822160455486165897554,0.00688869641527365544897421,0.0198314938422384685889899,0.0209703142538486229928818,-0.0170541786710490424205933,0.00369122150326453525234771,-0.985963334170466665362653,-0.166042116554710877940337,0.176519551904013138887706,-0.107936784098589963476478,9.66732025333116418153168,-0.0330231717664509205611978,0.000231019142509940160219034,0.151574285717656270788822,1.06599533825006109744038,0.518087367197990533718155,1.10119074559191854056905,1100.26883401142299589992,1093.12578996249021656695,1094.2902086073161171953,1096.95669862674162686744,-295.377602111654539385199,-406.972976928827449683013,-521.656977999293530956493,-453.132023318594860938902,154.207215711129549617908
3.41999999999999992894573,-0.398991043204101503150127,0.49184542925107821442765,0.230254435099991661139995,0.00504529612265105630725115,0.0220841004511788709108178,0.0214916388649826727019754,-0.0169799831763779301985196,0.00357225882202061219977685,-0.985949765606008665663751,-0.166133491900791074868948,0.171626435825511680643984,-0.113572781159064592482189,9.65039296992343587078267,-0.0329351505193694188422526,-0.000197335513953576021251718,0.151164035541588359645715,1.0660717378168762525803,0.51803501743467927909137,1.10158869226247135841845,1099.6439183910572410241,1092.4917416956279794249,1093.24764657206787887844,1095.93890352082985373272,-225.14621847358765194258,-115.533799020070276242222,-325.860251710908073619066,-394.904317522158862630022,154.210430894703364401721
3.42249999999999987565502,-0.552635066277620268238024,0.514367361057304073312935,-0.131572980141179934898688,0.00297334416569931076976263,0.0243141401256878886272261,0.0218104657440370761078974,-0.0168987934933639630252777,0.00350981861817209082540781,-0.985939634223914729282967,-0.166203965345346926785197,0.16693864394436053188997,-0.119306223215667431269971,9.63433106472439071410463,-0.0328719187901449980127033,-0.00070384677267657761064179,0.150675449587987536625988,1.06615104060577681188704,0.517987778799302689414219,1.10198205989431596840689,1099.14310291905508165655,1092.54812096738987747813,1092.66090734876161150169,1094.98217703913087461842,-153.144635074512393657642,132.638147076468300156193,-111.664907831611088795398,-308.185939684633126489643,154.214335600379087054534
3.42500000000000026645353,-0.657760911875700071682616,0.48515514206812482278508,-0.427563925606487593711336,0.00163812949100037848031153,0.0257272585775804585317417,0.0217064112024774151510353,-0.0168216442654815952206793,0.00350154633137021416636192,-0.985933813740551223681052,-0.166247288427570416580181,0.1627276602575638553283,-0.124893064532584238679469,9.619231875016041044546,-0.0328285805133029309765824,-0.00127786415523444712473433,0.150114277839493742705557,1.06623316342318585903115,0.517947095139692392784525,1.10236868604832238816016,1098.8781952156846273283,1093.15493243101036568987,1092.6893220329097857757,1094.39797382240658407682,-96.0380830289003597499686,316.880018697635478019947,95.3849048832516217544253,-192.274386546828935706799,154.217626914960391104614
3.42750000000000021316282,-0.742700693977039305693211,0.423402089818074478522192,-0.689364131121350531827829,0.000608861587297049354841616,0.0266555135588950123382013,0.0208149621424029533656164,-0.016755046917349181861967,0.00354301036374511657545128,-0.985932329277674934786546,-0.166262757261991050983241,0.15916562249652349558815,-0.130090741037612700470305,9.60518303778446558283122,-0.0328009634505787850411451,-0.00190617469611135308474315,0.14948844478795608736732,1.06631715287005324199754,0.517913108924052623116552,1.10274823831341617363933,1098.66291250391054745705,1094.13252106087816173385,1093.13783187317790179804,1094.02080510639666499628,-112.088957968128511311079,456.578914734164470701216,256.218604818883250118233,-124.017161305394353121301,154.220954604851016256362
3.43000000000000015987212,-0.81749268401544028517236,0.332318221725631524066102,-0.920595802194496770631815,-0.000674988020387957661852529,0.0272888443379501223484684,0.0182084779603943515413622,-0.0167075161085146473016749,0.00362207997097176246509287,-0.98593430415868299476756,-0.166254944658672049184744,0.156429651288847670898008,-0.134536761355204648182848,9.59225560687914402535625,-0.032783995489754871877075,-0.00257188453068361334852288,0.148807651067036722514203,1.06640223897441543954301,0.517885015348133137536024,1.103121718943818052594,1098.31775042584399670886,1095.43782700468113944225,1093.97041505700417474145,1093.7778880158796255273,-158.777536401570358748359,455.413150966351793158537,323.874762251632603238249,-60.7983746388085108947053,154.224985959150245662386
3.43250000000000010658141,-0.84405884364786387674684,0.25347483009673377196691,-1.0107727084803181938355,-0.00213340034471169162286208,0.0277449766063258829174032,0.0146147123405746797580873,-0.0166727108863068684829756,0.00373342208104263280354917,-0.985939089853900552107291,-0.16622835916126654787206,0.154425737783894068133606,-0.138083747429894154734598,9.58050493505504974223186,-0.0327758782809824539272725,-0.00325991005642519348847741,0.148081640334284808657728,1.06648839913710613558351,0.517862136085898594473065,1.10349081142155602819344,1097.86902482190271257423,1096.40958681570987209852,1094.75720568443603042397,1093.71681323320262890775,-225.031267242825634866676,315.267466377015239231696,299.423750246621239057276,-4.86844413339905646154193,154.228373595902439774363
3.43500000000000005329071,-0.806601683482252251877753,0.179547763230049145510847,-0.967488892453258531034521,-0.00431790868084745618066256,0.0283672304174218126160412,0.010318379596802583833548,-0.0166324980939931421630718,0.00387324208458713400288209,-0.98594663725879461146917,-0.1661850661344264346031,0.152828894669635506620153,-0.140692405791010388682594,9.56996744548441746758272,-0.0327773080118464801846478,-0.00395573448345773199391617,0.147319765032774885327171,1.0665775510952759663752,0.517844472828077440063055,1.10385534471007495938011,1097.19259408962989255087,1097.0141643365661821008,1095.46753380823724910442,1093.75354579521263076458,-309.143266506141344507341,152.221369132852089478547,249.476583398705628269454,23.6254763279253481300657,154.23178525425771567825
3.4375,-0.693348889890042840988826,0.114516788253701554123332,-0.8131085317842536852595,-0.00712652111010375621802382,0.0289634993319197488192973,0.00650624345512192028134768,-0.0165725908741364384713091,0.00402602566394991579629137,-0.985956976178323674098181,-0.166126463730287332598579,0.151336303527041637906336,-0.142131063452477501840576,9.56065443393718616960086,-0.0327875812316007209101798,-0.00464156716680448524353642,0.146531545848284178168441,1.066671432974464650556,0.517830985211031546988636,1.10421554887214523610339,1096.32330848937203882087,1097.17069366137411634554,1096.00458860142953199102,1093.83494061484225312597,-386.020689844334867757425,-65.6611370879559501645417,154.255478686767332874297,36.2091266316391298119015,154.235212218738325873346
3.43999999999999994670929,-0.470524993840528316102478,0.0686233361255658563804261,-0.551277582669194576858729,-0.0102268257504231161597597,0.0293329493073017678883563,0.00413231550613431340007731,-0.01648158805026158496565,0.00418148904676670426366902,-0.985970063157405762765961,-0.166054004951754957675192,0.149702091401439141282737,-0.142297905010124903224522,9.55254405245269389013174,-0.0328043859430345932648443,-0.00530201714428395545763983,0.145726330487814970116034,1.0667703107581656407632,0.517820877388065814450613,1.10457262860983473906629,1095.26249064040825942357,1096.68585865112640931329,1096.2388112016710692842,1093.93459142837082254118,-491.873792788566333911149,-365.992968040799098616844,22.8933665879144747634655,42.0816918898717489128103,154.238651179019512937884
3.44249999999999989341859,-0.0805909637875179829524797,0.050357164339363276461814,-0.169649716574681391767498,-0.0131651583554390615854457,0.0294233238490451895486011,0.00308063150648535183026566,-0.0163677528596515055314686,0.00433114503095345920041792,-0.985984710329844249443454,-0.165974236753708259684004,0.14804362780110408293055,-0.141097816483880700300091,9.545571954066703668218,-0.0328196493109600903603784,-0.00592319748599555006424167,0.144914125245968833377574,1.06687355284675033928465,0.517813589240712524031096,1.10492714307640094162366,1093.86393952542925944726,1095.3407288211701597902,1096.11905543436910193122,1094.04534907429160739412,-515.986685047629862310714,-607.412643740058115326974,-106.061978459676652164489,36.8153025319291060668547,154.242782363346321972131
3.44500000000000028421709,0.318616189466657484530288,0.0772517125508098562169934,0.157754120836374633896071,-0.0139866861840636583225184,0.0292184310768737361130309,0.00339225673043925526548015,-0.0162448207483785675431243,0.00446473953744015630146214,-0.985998988851289448476223,-0.165897672761663145246658,0.146562133012560935618751,-0.138417011885028307105472,9.53964406602809944502042,-0.0328244171498075359982849,-0.00649275912787010325150083,0.144104522584693250930599,1.06697934197159849389891,0.517807331152144278973992,1.10527885591698038503239,1092.68255721516993617115,1093.64879543242591353192,1095.70850130937265021203,1094.11866794103048050602,-453.378499962233377118537,-762.293627665297549356183,-209.583019677515437706461,23.6402675729989333319736,154.246221401430375408381
3.44750000000000023092639,0.737875984125645367761592,0.158048353190961138325932,0.442304662676806792376283,-0.0124623274153452760076854,0.0288230290210337962431009,0.00465559086077820243748659,-0.0161228898386132427078543,0.00457386864075986013244979,-0.986012106738672788885935,-0.165828357569529627468796,0.145380694719361602817997,-0.134219381146233274204604,9.53464326253013538803316,-0.032811842954639659775129,-0.00700083869993006584209194,0.143305991194868337368362,1.0670855516159505338436,0.517801624137932847702359,1.10562839922762945477075,1091.59704702561793965288,1091.52926068284341454273,1095.07114033598145397264,1094.16355041215661003662,-432.347062816152288178273,-976.4247902358173405446,-299.739470380979582841974,10.5973361410181023956056,154.249648333597860982991
3.45000000000000017763568,1.18933929483644762470362,0.318149939889167954198967,0.682641397980303543668867,-0.00823786398989721432850608,0.0283864717442574021610824,0.00717427072978259281615943,-0.0160085357646327780534179,0.00464658610126567842707468,-0.986024702877319914051668,-0.165762244746467807265944,0.14453172635282945934776,-0.128439274556325866427642,9.53043487653336818254957,-0.0327776494575364799044515,-0.00743841328813480903714428,0.142525813414045521287932,1.067191025337488552438,0.517796747209861352168048,1.10597642316775912618709,1090.52082190108922077343,1088.76667148124693085265,1094.20980395746778413013,1094.17165462173556989001,-345.603470095928173577704,-1003.06679458815187899745,-306.759030497830451622576,-7.3184127115838890631494,154.253737805249073744562
3.45250000000000012434498,1.47818490629449361684067,0.493423340569111135156533,0.769882975625153065379891,-0.0035621072648917497145693,0.0283798684471513566751621,0.0100535123337229942430682,-0.0159117053570508454329868,0.00467302149105643539056532,-0.986036809762632637799129,-0.165698493549919528833314,0.144111040340491936007083,-0.12105421860344099671547,9.52686328378761260182728,-0.0327177590927439712609193,-0.00779928499854880361713549,0.14177050295301879545562,1.06729559924498995648889,0.517792591887091591118519,1.10632169792610302039293,1089.86902967513833573321,1086.51392670990276201337,1093.53734518349233439949,1094.1269583485986913729,-206.704060630777206597486,-834.811182344100984664692,-235.733822057277876638182,-31.6093846706287351366882,154.257120757687033574257
3.45500000000000007105427,1.64669464575350055213221,0.683545439045463054661411,0.721391065407957610133849,0.00145035680107019528811696,0.0293003506928054061053679,0.0133922655379282821985765,-0.0158408984006452140114174,0.00465094276873586481846345,-0.986047841112617007297558,-0.16563985937668754266916,0.144207658115812820120993,-0.112197816078425341435043,9.52375754697491849753987,-0.0326292697191492286901138,-0.00808175276122378299925586,0.141045368985594637978309,1.06739890501781098386402,0.51778878505403325149814,1.10666389491653527343829,1089.48730159793535676727,1084.59261556952651517349,1093.03113484718141990015,1094.0136076983824295894,-113.696862805229713444533,-676.137633614613037025265,-165.684939643782740859024,-57.5485610468161681296806,154.260471425333150818915
3.45750000000000001776357,1.71093622896704733449269,0.855089813602939230463562,0.56330242782873851670189,0.00640691865977212338112423,0.0312804362132130045481837,0.0164481226381109311984741,-0.0158029021889822089697031,0.0045870255129200222105057,-0.986057615153153266263075,-0.165586598019215575083862,0.14490405145310053525165,-0.102180161869416044617687,9.52093715085113601048761,-0.0325104101298180694912254,-0.00828835748312796265213631,0.1403542960154027241515,1.06750037538746656018418,0.517785352455672698290812,1.10700273204849497510338,1089.30054536111219931627,1083.13323854182976901939,1092.70892048527343831665,1093.83921554336461667845,-40.7758834961450276068717,-438.67029386834502702186,-86.8179357638855719869753,-82.4258773612218078596925,154.263791013307042021552
3.45999999999999996447286,1.66077823065014973380471,0.964412103871136738852954,0.299685325174779193524444,0.0107974016038945175993691,0.0344753264845712517616683,0.0184100084384946141580208,-0.0158003856411878529364401,0.00449119251013948509593243,-0.986065724444301738849106,-0.165540617360714764627616,0.146217300821631535079348,-0.0913807420950326215747239,9.51822272130480939722474,-0.0323612199400702751916903,-0.00842453372275266988700171,0.139699345721871287517857,1.06760067373044575944618,0.517782220128273906745164,1.10733641332981624927356,1089.28342218045463596354,1082.3992641001848369342,1092.59704516836200127727,1093.60147831157632936083,15.7496919770441028418873,-132.798798790420846671623,-19.7654801349021589373933,-113.12078239671123469634,154.267068469363124449956
3.46249999999999991118216,1.49483106649914843089277,0.984880538956051543308945,-0.0811248443193064439071804,0.0149577263469567074694044,0.0392414956656023661274446,0.0190319600711777586754536,-0.0158262409151355872005684,0.00437329188147899880489966,-0.986072242554340117060008,-0.165501888712816430659913,0.147984404889224263612846,-0.0801993278953335858583173,9.51544803809481898326794,-0.0321851406956122354507954,-0.00849756978045436081603548,0.139080019884490174719716,1.06770084726020741960895,0.51777915970502563780542,1.10766534922237069871187,1089.37929382099741815182,1082.46924454787767899688,1092.61009308459892963583,1093.27361163138107258419,48.7947398577044992862284,183.322058969910614223409,7.80738868065798907736053,-122.050849398649788213334,154.270947381418324084734
3.46499999999999985789145,1.28784168991411829274796,0.900115268611859309366707,-0.401773609789565611105644,0.0178100254305367348972577,0.0431964085721181154098325,0.0179668284580369284897383,-0.0158747184568798112291876,0.0042423894797506377096763,-0.986077293260357978788022,-0.1654699969326712538642,0.150072334338883117688113,-0.0690013687816289494891819,9.51245936214014697895891,-0.0319859038013715485382349,-0.00851594186124544384741686,0.138493539357022549252108,1.06780163078056022918361,0.517775678852086085335316,1.10798983576498000225286,1089.52739587974315327301,1083.31587439503437053645,1092.63608211176529039221,1092.9912240645830934227,75.3498796443585945326049,482.490289027477217587148,-13.0969442267078441943795,-111.277466313678573328616,154.27413125111888803076
3.46750000000000024868996,1.02559063465761535205445,0.726236700834592685538382,-0.668256062869178713015117,0.0204311128169416614253073,0.0460363301293070237285576,0.0154029496484609507156449,-0.0159357881058848210864554,0.00410737713602621866415543,-0.986080686325495614497072,-0.165446839398524864206408,0.152276874277935347912205,-0.0581411649920389878021254,9.50912534168353040797683,-0.0317691148056395214482883,-0.00848986304795082934171457,0.137934031910159432543495,1.0679019144577279742947,0.517770985557277740873872,1.10831168236371646607097,1089.75604321921923656191,1084.88169599301522794121,1092.54460836346538599173,1092.71722429981264212984,127.06776116746419802439,814.679366835789096512599,-89.8179852381811798522904,-122.080942233415896680526,154.277260305138241847089
3.47000000000000019539925,0.658958593661278624331601,0.461099125387053276892146,-0.877608580895391288123619,0.0229645916986657705471941,0.0476233512022987900969007,0.0113595650503522244134658,-0.0159980761327837874008484,0.00396960579892166078030957,-0.986082093115096314228651,-0.16543548504906355200994,0.15435617622488323474883,-0.0478108312981694455467974,9.50534284541741669727344,-0.0315419061437397299507701,-0.00842892538179084924165885,0.137392518183534761977427,1.06800006501076438780728,0.517763873139485464314191,1.10863454728241750402162,1090.16273468558051717991,1087.38927122921359114116,1092.18699218557435415278,1092.38081935341597272782,174.08456760122507489541,987.782223593715684728522,-179.141095424214825015952,-132.726033834481427220453,154.280945834736485267058
3.47250000000000014210855,0.318629999172446443100881,0.23268728884789088851015,-0.944794400926325494971536,0.0242375754359636270962586,0.0474999669761085874242212,0.00784874432126008748922263,-0.016050236566010518679537,0.00383601848338197557244933,-0.986081568406360853273895,-0.165436602510885349959224,0.156098679901021220040036,-0.0382810603260209519893564,9.5010362457803196889472,-0.0313119991467512362448566,-0.00834502377274239613702544,0.13685704111554714001997,1.06809406322661426536058,0.517753332760160556169637,1.10896138383629372370365,1090.62646605722534332017,1089.82060711098370120453,1091.6489028863443309092,1092.05359413064024920459,204.75970071729972232788,996.250863058115442072449,-261.038977397407620628655,-153.860401511113735750769,154.283954360791426552169
3.47500000000000008881784,-0.0463872122750016574466159,0.034428823563688051856424,-0.906435528448499727716126,0.0246592242755804685883092,0.0463197473352712357774763,0.00480797225850209623138065,-0.016071528294705969552858,0.00372210380441769829451548,-0.98608044562452157322241,-0.165443891733516534880977,0.157156312314140123032047,-0.0299861145350282659594043,9.49616715728859617229318,-0.0310899301155371024507623,-0.00825266381317854569310555,0.136312660730275980736081,1.06818154413769650368238,0.517738897104760509293442,1.10929681666050972133064,1091.18653318916699390684,1092.37052554450406205433,1090.88179729858734390291,1091.61151734586042039155,225.707780254338359782196,1003.23974718200906863785,-334.896394524419406479865,-204.81530760153401615753,154.286891078587586889626
3.47750000000000003552714,-0.422166081046164098911078,-0.125693256099792982638519,-0.798878874897226309848008,0.0243781886986633826441828,0.0448647705542488672847412,0.00237908303898675755130854,-0.0160540157742436739862768,0.00363727850226669814984182,-0.986079780728396304567696,-0.165451567084100609195119,0.157416017690678755602818,-0.0231756797440850481617503,9.4907239276730539501159,-0.0308830362190157768631504,-0.00816377208203758301940933,0.135744136169830914573353,1.06826156104376002176082,0.517721453835423006673011,1.10964277510352937738958,1091.75500495849701110274,1094.83680584689363968209,1089.97442091372226968815,1091.02951759263260100852,203.394482560956731731494,922.018573698707427865884,-380.980296133119679780066,-271.467905425748881498293,154.289762692822563394657
3.47999999999999998223643,-0.796332332899269856874014,-0.245332606994588364734966,-0.639180732824326858221298,0.0232169039945877495045856,0.0440587061787219222419587,0.000816579937797831363968659,-0.016002609896152118762469,0.00358379907504132941276076,-0.986080185216601567965711,-0.165455424791905864045916,0.156995646111053044347017,-0.0178946816402064806661443,9.48472036431231479980397,-0.0306947582679297746588443,-0.00808672826801449390332621,0.135137490146721300776633,1.06833654892726004348447,0.517703788025894007240879,1.10999737680958965313494,1092.20350560197175582289,1096.98061841299750085454,1088.97689581792178614705,1090.2541778187317049742,133.432170631161284291011,813.074527676207253534812,-440.08460836349541978052,-380.616399760637193594448,154.29254837688429802256
3.48249999999999992894573,-1.21884941655857348408176,-0.364636485662418019515485,-0.42916543417022889883583,0.0208752576370439084374464,0.0442250583714652173439319,-0.000188182730991035424830335,-0.0159297222833120685758779,0.003553188307118108381355,-0.986082200103189143725047,-0.16545118581463361118189,0.156130089696365492724084,-0.0139360966950743958570058,9.47819749824574309116088,-0.030525563683990467045426,-0.0080250862848458264647844,0.134481276958919315767105,1.06841060057824344120547,0.517687635175725469061092,1.11035693967068938015075,1092.42216581165280331334,1098.90217848527458954777,1087.77399787190483948507,1089.12643559382945568359,5.20290199010571274840231,559.739575009110126302403,-430.417118290606651953567,-433.221493124629091653333,154.295781358611947098325
3.48499999999999987565502,-1.52522057324122717325565,-0.456358091351684480585504,-0.265202452522707687876391,0.0180240283825765859604395,0.0446741281708576132292166,-0.000493437430351236199638221,-0.0158433686261707194764536,0.00354316980725278077302143,-0.986086085119409649912825,-0.165436552261305991340379,0.154999442189792890900435,-0.0111972301529917328544173,9.47122412153430204284632,-0.0303749421920367322635936,-0.00798271439282600275832991,0.133766964798144538661973,1.0684872568162602224362,0.517674520690026840341602,1.11071630545141220025585,1092.22952011192228383152,1099.77931628804299180047,1086.82481022646879864624,1088.0880703531086055591,-169.231716372576045159803,168.382108486355264176382,-358.454685749232680791465,-410.675297809411404159619,154.29837573552995877435
3.48750000000000026645353,-1.74868651069589198243648,-0.535488469148589496526824,-0.135761179036579471279822,0.0139925270953204870100217,0.0445428356017034121627773,-0.00046619396518910328347518,-0.015749307447333299458947,0.003553438068511401322358,-0.986090916731402922223992,-0.165416485804794427538766,0.153753550899627111636647,-0.00959440414025572452239032,9.46389102124584269404295,-0.0302409748039317374801449,-0.00796325541942223547042801,0.1329897208793091867296,1.06856756342935388381932,0.517664163976450653059658,1.11107116390097160341099,1091.5760072297898659599,1099.74408902770642271207,1085.98172444315855500463,1087.07305910478225996485,-393.748473931619400900672,-241.830438007202303651866,-337.632531279291413284227,-406.907222279387326580036,154.300856415351404393732
3.49000000000000021316282,-1.87675406445395931420705,-0.584407720564223409631666,-0.0360856907047480066075273,0.0078800481866873484798619,0.0428905072933636888343756,-0.000230325136027271154060339,-0.0156476366393776093743906,0.0035762559044356166497447,-0.98609521145231326944014,-0.165399995693723794731866,0.152416188086025361503317,-0.00890307376139130163261726,9.4563091308403297574614,-0.0301220335234833012927336,-0.00796811912036047426122209,0.132148235347210984969024,1.06865040829943658273748,0.517653326011627834546402,1.11142065561275882323855,1090.26077774226405381341,1098.5701640980068987119,1085.13664757007222760876,1086.05353424171153164934,-560.495617632989819867362,-612.457678038630888295302,-276.267424214899165235693,-318.534200731353337232576,154.303690024223300270023
3.49250000000000015987212,-1.84034070971392149651535,-0.556471296292663009097623,-0.00463941189307980495631911,0.00227392910670871787118252,0.0402122991396401258112903,5.31310754293234488009751e-05,-0.0155435576645933833106472,0.00360551113327718881010342,-0.986098137266074648010772,-0.165391708950119925569666,0.15111143345820488015363,-0.00890117619114585978401522,9.44859292755892177240185,-0.0300141525283268394141967,-0.00799817184328601750442633,0.131244926983235393747051,1.06873519915568793159366,0.517640332665838309722517,1.1117632518879383418664,1088.77352914162497654615,1096.68180063751333364053,1084.60038732208408873703,1085.48038810112552710052,-655.508807916899399970134,-914.820360643053845706163,-173.0991254237360976731,-155.723784612704235996716,154.305923468084841942982
3.49500000000000010658141,-1.63989871802331221850579,-0.432324656085689262852156,-0.0269492508442942882429527,-0.00321356953145730383364365,0.0370323767710246734563562,0.000360689583851309450695383,-0.015437612485557195007857,0.00363938013771341077259858,-0.986099393840963234225683,-0.165393461020727494670268,0.14988782674345646483971,-0.00945250245069423344901338,9.44086032860209733996726,-0.0299139320772067278386697,-0.00805491712322906928955835,0.130284705625251240324047,1.06882183813767905888881,0.517625473017013226773031,1.11209818676887683963628,1086.98323370267962673097,1093.99606229479172725405,1084.27115194295356559451,1085.27491531864802709606,-827.222437598056217211706,-1308.80160850923016369052,-92.5011865265352497544882,-5.90390393149404069106367,154.308013965152554192173
3.49750000000000005329071,-1.21824038953313995570227,-0.178128999204300780823118,-0.108901487569943625222102,-0.00913455276676487445963737,0.0342092402292384772932721,0.000671134545062425195982581,-0.0153220372767753198334217,0.00368727280729502998948832,-0.986099516929441088919361,-0.165402603938327757981952,0.148670660212287308876711,-0.010651828497768384140798,9.43322760493899004075047,-0.0298196236100722877893077,-0.0081420675572839527195379,0.129273958738105598786916,1.06890887048330784914185,0.517608095203953011420595,1.11242575221490236359045,1084.6374169536347835674,1090.13779259496732265688,1084.1378813894514223648,1085.45086858146805752767,-867.389457132203801847936,-1468.22439829000768440892,-6.56061681120277473411306,120.173948634785858757823,154.310345485331936288276
3.5,-0.742191855079623707958092,0.0914081458386605122390378,-0.212775453726871011106425,-0.0128166996352652856616672,0.0334126133997539875863936,0.000775242545692499639142792,-0.0151975685707546864094963,0.00375150068557754054476838,-0.986099490298923075926041,-0.165413151794009588568812,0.147516631749176119203781,-0.0124341576109755769241616,9.42579600807868445144777,-0.0297279249755916276376499,-0.00825988128770729912453419,0.128220903994754137356082,1.06899543640242522535289,0.517588509038759081448688,1.11274540889159911927209,1082.6462864170187003765,1086.65494030334184571984,1084.23834885889755241806,1085.87578506182194360008,-769.658542615359692717902,-1380.15799107382213151141,75.1570065303001371148639,195.201017809726693030825,154.312132232873864268186
3.50249999999999994670929,-0.191288841094723355285012,0.366064131608293097386309,-0.33375816580916828346659,-0.0142507038761415742028626,0.0344854735811839091530473,0.000506805621084445521301598,-0.0150637683030159751085275,0.00382456059331098699796692,-0.986100753495793735936559,-0.165416742401899213854577,0.146424279211502195163774,-0.0145587501703392241392265,9.41865531016789425677871,-0.0296368042558382421836072,-0.00840469960607299546029303,0.127134225235678716137144,1.06908241602152331850561,0.517568781356087526113186,1.1130579957961896919727,1080.78912424055806695833,1083.23700263959835865535,1084.51366642210291502124,1086.42687367051667024498,-693.250282540717535084696,-1305.55662047716441520606,127.274269660486410771227,210.262935311316084607824,154.313746572337663565122
3.50499999999999989341859,0.369965934120632888859603,0.602151930051135431121168,-0.448597215443092667275238,-0.0136196838811630856896917,0.0369133882573098662249755,-0.000301125491423193168780831,-0.0149257294697723672666223,0.00389335874422550975298973,-0.986103677363826758295318,-0.165411029289441818823647,0.145472067355704282043405,-0.0166675027960694888129467,9.41187538761673714304834,-0.0295436384525083022001279,-0.00857018709423998555074764,0.126022742412474575424142,1.0691705208092319168145,0.51755194841633045399476,1.1133655747009001402148,1079.18003500431518659752,1080.12715720095616234175,1084.87472020719997090055,1086.92709973837850156997,-552.283648511965111538302,-1115.30644220317049075675,146.718918103250985041086,150.489142912728169676484,154.315210405973346041719
3.50750000000000028421709,0.882016966662809265287137,0.753599912764347568128187,-0.527774156258369320227075,-0.0109952311200946107466736,0.0402205317107530505027491,-0.00207810232784637859138055,-0.0147971078277674555900845,0.00394108518049143905642717,-0.986107249329426061024151,-0.165401206340682532802688,0.144880245540266627823911,-0.0183135280779900128100834,9.40550214297970654797609,-0.0294445101127156494413839,-0.00874799861832887409862636,0.12489508138953836491325,1.06925873816219429990326,0.517538346274459271079138,1.11366975263797574058344,1078.02770599799805495422,1077.66047042858212989813,1085.24726101261921940022,1087.17931938508036182611,-370.517895701252655271674,-883.542803015265576505044,141.56831180147446502815,17.5361324455013338763365,154.316484601687903932543
3.51000000000000023092639,1.37589796362612504232459,0.817807901492704214518881,-0.550875309488901843124609,-0.00669086221323513322123411,0.0440458890807198383265941,-0.00529811231338857269168585,-0.0146855832128837439365387,0.00396016090589073905398054,-0.986110630894300066451308,-0.165391723575880528196436,0.144780418043636227576343,-0.0192534939963126053297238,9.39956407636860546972457,-0.0293374454239191326254677,-0.00893142280557997735035425,0.123758456530439972520519,1.06934562515826825368492,0.517527790890766947740076,1.11397195080957867041604,1077.32744552580879826564,1075.70944318587953603128,1085.58256176620739097416,1087.01478040060601415462,-133.105407526775820770126,-524.760000527987585883238,87.7232764969922413911263,-149.876177269473828346236,154.317785754233909756294
3.51250000000000017763568,1.65423933774903031412862,0.779988442126232306428335,-0.502019505168618374035816,-0.00252217360707532181965385,0.0465354453820543342845717,-0.00813290086106988920067185,-0.0145968226776807055711238,0.00395600337742780736038917,-0.986113252987759314471816,-0.165385271065466077367034,0.145300909279911960592102,-0.0195071464935927529893434,9.39406859616238065768812,-0.0292210955652968153162252,-0.00911632107860397590537449,0.122618853286052695295005,1.06943084667874965809631,0.517520410150025811368835,1.11427223988087686912252,1077.36217896036419006123,1075.03667042594224767527,1085.68587739510417122801,1086.42993849873300860054,134.216954230035440787105,-66.6947227812229925802967,-10.6695891223810122028226,-320.413830941204196278704,154.318675206425751866846
3.51500000000000012434498,1.76748258614482178785465,0.670911334729434871704257,-0.397565509521882853860575,0.00248496898237877093806869,0.0480469808342392432076728,-0.00978764440649380201842078,-0.0145323587691036267000033,0.00393734388028074960147462,-0.986115130219753388551851,-0.165381322791201740285416,0.146497206306496652317151,-0.0191859991514708588811189,9.38900679052575881655684,-0.0290953603936421403841628,-0.00929896623317294328259219,0.121481058273586378648545,1.06951392985310778094288,0.517515171345927393886654,1.11457025879437710003117,1077.99853029695896111662,1075.37596957197342817381,1085.52921382059548705001,1085.41271124590002727928,385.276588734822325932328,359.942543705036257506436,-140.427640848204902113139,-516.946923608668043925718,154.319357988051933716633
3.51750000000000007105427,1.69715160749840454634807,0.488640624567322767735078,-0.247850520390015732763445,0.00902525316113385669969382,0.0489553835921203717163053,-0.00971388220907548963212186,-0.0144839167824281512403362,0.00391629390821561333690948,-0.986117178067369426486266,-0.165374664122101000529597,0.148247011055807786927829,-0.0185135430735318406991752,9.38435929831778636867057,-0.0289623699284350388793996,-0.00947636427728414977578186,0.120348416510721589745003,1.06959420049143272279935,0.517511749422787992180872,1.1148662429096201087475,1079.28856190403826076363,1076.83638314446739059349,1084.98373919086316163884,1083.84520388068972351903,524.771230486032663975493,676.780033801165586737625,-263.819519614759144587879,-600.128550510011450569436,154.319935107778604788109
3.52000000000000001776357,1.47098367189411427524703,0.310400959265114684271225,-0.129970618457196845918489,0.013851920287045188170949,0.0493396725532780702772051,-0.00851904003998460966629036,-0.01445252586278782287732,0.00389342386219323609991561,-0.986120026920589087815472,-0.165361092452119329276883,0.150558149345279390640684,-0.0174869217614829763896012,9.38008872801583137857051,-0.0288219714413215644110977,-0.00964244479221347018660371,0.119224207437813062293586,1.06967249212643844558102,0.517511482393995247974772,1.11515933050071947008064,1080.62238644938906872994,1078.75986974097918391635,1084.21011622252171946457,1082.41206849335003425949,539.557283356873654156516,859.154743686413098657795,-376.337327745940285694815,-558.226333057303349960421,154.320213138032727329119
3.52249999999999996447286,1.09521511008424643485171,0.113942475187424174798423,-0.0304898133789054046061118,0.0172940977592927966344227,0.0497205307790530431910625,-0.00751487162051164316045604,-0.0144407899137574784187432,0.00386434908198727156830588,-0.986124115510792931260653,-0.165337439157777876808098,0.15344519787855720460712,-0.0160224993970561196965363,9.37614620089561690008395,-0.0286729729405569011557731,-0.00979023496740663058679477,0.118111152516008122148605,1.06975112498243030145773,0.517515207579554381567277,1.11544826056243095990794,1081.98634832082257162256,1081.13215686289936456888,1083.10205255213350028498,1081.05407221540326645481,516.773112562179562701203,972.551421135651935401256,-495.831797561014923303446,-504.651111342592969322141,154.32028091807424630133
3.52499999999999991118216,0.622722367652090991185787,-0.0956356247947228593764279,0.06362792067904125825617,0.0196570569772149088272339,0.0500181286330633190218009,-0.00727098488459400338346228,-0.0144435234596646325244684,0.00383350956052455746000951,-0.986130113488521198306103,-0.165299537801821938565183,0.156798332392826422765353,-0.0142392560960201350339638,9.37247790550091863792659,-0.0285146097910657612961582,-0.00991573356457701310384678,0.11701060636894304589628,1.06983221696238905984444,0.517523583376168772041126,1.11573254875783156592206,1083.20625201219991140533,1083.62262684665734013834,1081.73095723471669771243,1079.88881293663712312991,419.016758054985814396787,958.538265236686584103154,-603.525882334601305956312,-400.162095574304998990556,154.320175775474979218416
3.52749999999999985789145,0.0717985316020724601004943,-0.317656159118685277320537,0.173860311781064258429552,0.0209333192803430739870052,0.0499455137828016884626869,-0.00783091162379911595592397,-0.0144513359100375982785325,0.00380678678805489037820231,-0.986137674300466615662231,-0.165249554085883182397154,0.160427096269118718563362,-0.0123048096120126349006796,9.36902773997555193830067,-0.0283458472408664417796498,-0.010017052687946642608452,0.115922603188544720564934,1.06991674523717361644515,0.517535691451076140801035,1.11601236276361315269412,1084.08143211109745607246,1085.92484818908269517124,1080.08442314046055798826,1079.05326173753178409243,271.951034581552278268646,886.866711212073028036684,-769.355251105564889257948,-283.259888713681903027464,154.319864908385056878615
3.53000000000000024868996,-0.623213803812608602150647,-0.587071980341752674981137,0.346253523500960669334603,0.020878204057515562658276,0.0490855777547351407319454,-0.00874342239580497629369837,-0.0144556822997265171232284,0.00378119075395443081724633,-0.986145572444793505617611,-0.165195001171222655145243,0.164121612680521389293631,-0.0102263422484838578663258,9.36573940155501283300055,-0.0281648918673819935454272,-0.0100924763934374054491494,0.114846013877124064617163,1.07000503910874233959305,0.517549027159605046222168,1.11628868176026929681655,1084.5660071851077645988,1088.05696040271800484334,1077.88418097918861349171,1078.47251349306861811783,67.3165097663468259270303,626.257729798865966586163,-824.040126863009277258243,-146.271786184696935606553,154.319258573377652510317
3.53250000000000019539925,-1.18139788154698277544696,-0.800031027298803820713147,0.523165171292990005547097,0.0190256505898141331512008,0.0474929227137089807198045,-0.00878684054179950345397909,-0.0144480969162095705671245,0.003754846501422774880663,-0.986152424923109061083437,-0.165144374127758647441411,0.167669264657512417926455,-0.00803643917232817195372974,9.36255781750240778649186,-0.0279695485738906957084993,-0.0101430113743489411226584,0.113778253789203115386997,1.07009610986029768397998,0.517560196924649718042133,1.1165642190097035957308,1084.41801465992921293946,1089.05613683807723646169,1075.96422250614523363765,1078.32190280660825010273,-181.715956046222572695115,200.718991183070755823792,-756.268653542308811665862,-1.0225693689335675351515,154.318562788810254460259
3.53500000000000014210855,-1.6519932215643120532178,-0.980880068274355476631854,0.713772126744285695387759,0.0149038754916826117480344,0.044847215114843269612166,-0.00720477601137140682974191,-0.0144254176770826341574816,0.00372394808703308205846683,-0.986156852397278127497771,-0.165105915368156302980296,0.17094249572127168113056,-0.00571786369446759812351644,9.35942873750819614997454,-0.0277567610032556089105782,-0.0101714710368800403256229,0.112715747393199172687872,1.0701874504990873671062,0.51756587799637154834187,1.11684183597794861597663,1083.65742740487667106208,1089.06055535863333716406,1074.10283771147715015104,1078.46740064622395038896,-468.276883631061537016649,-232.661141753811023136223,-770.364355453073585522361,120.395882921095861206595,154.317674641648721944875
3.53750000000000008881784,-2.04400739230685424274725,-1.14238918584044335524652,0.923890472199348278259379,0.00779564497466491736210603,0.0407460061003081172592566,-0.00406806869364078303730192,-0.0143987679894232081106997,0.00367891247339277105768418,-0.986157436458149683211616,-0.165087292042277400394568,0.174054002831972531861737,-0.00310204702757443939731274,9.35629483384440518989322,-0.027521316879600483257251,-0.0101808119179360220124542,0.111654976253629092952657,1.07027729565146301204948,0.517563931155440304365811,1.11712138783846537393174,1082.07663024177395527659,1087.89283112930820607289,1072.11240072887994756456,1078.92388222121371654794,-672.276432637787138446583,-599.508068867784459143877,-668.608390668546803681238,207.578663899498565115209,154.316393662789636209709
3.54000000000000003552714,-2.19001341896857981694779,-1.227115985187045010818,1.06368240532889690719287,0.000915793621495724166105268,0.0371141644282311153335563,-0.0013033748886702135275778,-0.0143862611515123695049567,0.00361414488007764456503623,-0.986153752985729270541526,-0.165090097699168575351436,0.177253496482186523319768,-7.27649113536621428011131e-05,9.35310049635917373223037,-0.027257663990601810333203,-0.0101753222539698214010873,0.11059259033099239077913,1.0703647177844808346947,0.517555063693257322299246,1.11740025893505401377581,1080.29604524168780699256,1086.06301501429447853297,1070.75979575813448718691,1079.5052939657214210456,-772.137955586566135934845,-854.210245586336895939894,-464.515944913692578666087,268.568398225858175010217,154.315152723439297233199
3.54249999999999998223643,-2.13263910627706421152538,-1.27003845251220770506961,1.15231999671197815615642,-0.0060314783961598287392869,0.033806916629611757918461,0.001296307179672527088235,-0.0143955145601591290305254,0.00353048775132557826270108,-0.986146753597174852146168,-0.165109334990793860109548,0.180614872718052488220764,0.00333573258348346390889105,9.34980598786247085740797,-0.0269638603573819045366999,-0.0101606013292139599202279,0.109524858630573262985308,1.07044875822890395156151,0.517541150597415788858768,1.11767658036042294433798,1078.21594046384120701987,1083.62177990137661254266,1069.78982100431153412501,1080.26672421234297871706,-847.352943295909312837466,-1024.80110114877243177034,-326.027445691677371542028,330.246715921528220860637,154.313739509751030709594
3.54499999999999992894573,-1.91744391124790669600486,-1.2932034522460960079826,1.19019613389590794838568,-0.012420919281604015163567,0.0309181176775595312200551,0.00408581389433869141686317,-0.0144173127987777226211019,0.00344150894576943219491105,-0.986137765062785831560177,-0.165140054522935370018288,0.183942078045175039235914,0.00680738313859968746655227,9.34639229889111433635662,-0.0266424618874867638607107,-0.0101444286337834064376517,0.108447454568617540626718,1.07052920055462919002309,0.517524468994397746079983,1.11794996639866006660213,1076.05928052520835080941,1080.93900950855072551349,1069.12965852967613500368,1081.15652754532902690698,-836.937964514817963390669,-1066.18104367223622830352,-204.214581421369786085052,378.648682830097527585167,154.312189758523459204298
3.54749999999999987565502,-1.54996789640855503478178,-1.31171249916123477952112,1.15658187567859305211471,-0.0172823850047204956303926,0.0283383995908065844382406,0.00743949479269476448423104,-0.0144426404577531093675891,0.00336265700377026601625152,-0.986128573563123889123005,-0.165176069778160156120705,0.187052647285626039153072,0.00999651521685667593386526,9.34285064693616718045632,-0.0262969990501934619553381,-0.0101329258541149741512655,0.107356569117225020271178,1.07060790305945796596632,0.517509218913221991087426,1.11821989999063609033669,1074.03125064126720644708,1078.29087468301554508798,1068.76874809720470693719,1082.15996762649342599616,-811.306664201756348120398,-1085.7652924089229600213,-119.060543782271594182021,449.948421777132011811773,154.310483179586412916251
3.55000000000000026645353,-1.00302032542478714027823,-1.34589409465056597525745,1.02630597326359329635181,-0.0207952518592927210194787,0.0252256766376891990166786,0.0118609801613438516076915,-0.0144644399310194030072729,0.00330134464509985537175596,-0.986121469074075163163684,-0.165210116006730856064166,0.189781980854720089268994,0.0127154977675251502911014,9.33918239370094305229486,-0.0259317550356034931535731,-0.0101282162936556698745738,0.106249039177888221496815,1.07068704068205122759139,0.51749973641268054436182,1.11848644633372007461958,1072.00274720419929508353,1075.51018304650574464176,1068.53435581076473681605,1083.40626965421483873797,-648.733135236445264126814,-916.202644200377108063549,-75.1306942358445866148031,445.622698769936448570661,154.308263618227044844389
3.55250000000000021316282,-0.514208865832690431574292,-1.3891477220441776907478,0.848989130879783004957062,-0.02186205263747567281718,0.0225018621834848532581308,0.0151165580557005626433087,-0.014481128029449766639325,0.00326085988698355698153786,-0.986117575271522661672918,-0.165240534072894573736079,0.192062697132312831804768,0.0148761092286660290273659,9.33539416896888241126362,-0.0255506289019436540199681,-0.0101300327490397006763301,0.10512238088204640951151,1.07076680064955076510103,0.517497485835708204149341,1.11874988596969227039324,1070.78758496508476127929,1073.70986146201335031947,1068.39309462602545863774,1084.38808112034325858986,-371.325460500482847692183,-588.869543060003479695297,-64.5686206794394053076758,355.482361201764717861806,154.306277547880966949378
3.55500000000000015987212,-0.0489037941531449554810607,-1.44406253205727486133014,0.625072799800833633909747,-0.0214570424162105130583278,0.0195545062179789223832937,0.0171805478411606385447108,-0.0144953901900345752395971,0.00323969396592841242868421,-0.986116172199157592359597,-0.165266369589700451436798,0.193902159006102969840413,0.016494637441657206827772,9.33149735945196567854509,-0.0251574341274051378747334,-0.0101362851643190757938706,0.103974640515460098333378,1.07084557109924194406858,0.517500049451017463120195,1.11901068621800936497834,1070.14611990169692035124,1072.56583533120578977105,1068.21151270736754668178,1085.18368146022362452641,-153.425178026285351506885,-349.325800073309608251293,-96.0070138088233306916663,280.126587379169507130428,154.30415727363075006906
3.55750000000000010658141,0.434698270456440383213703,-1.50887851312278620241614,0.34500735912260593885037,-0.0199085368984623194144046,0.0154269215404720660966831,0.0181705007783501300278051,-0.0145080642234234457460529,0.00323001097745854700085677,-0.98611704727256999092333,-0.165283084509383226823331,0.195265876617528699732418,0.0176977437719785524183891,9.32751164306789881663917,-0.0247571571207132155867381,-0.0101436009809175234352985,0.102804070445935244459967,1.07092248798939593257273,0.517505416053756217564796,1.11926980244396756525305,1070.02045907495335086423,1071.96323246164683951065,1067.9130595569813522161,1085.78871405723907628271,46.1482616662588753797536,-106.28435644817044192223,-117.080963269475205379422,151.222482904407598880425,154.301465790780355291645
3.56000000000000005329071,0.753775891220867966246999,-1.54764214786508969012857,0.133055463025542636268383,-0.018074926269814713813977,0.0113379780778645831290641,0.0180115711705250945706691,-0.0145126188947890567837451,0.003235371078143027111923,-0.986120267040897946486666,-0.165286771738832410916231,0.196031559737083693750748,0.0183809494473668177949577,9.32346450567150242250136,-0.0243561289553066752378019,-0.0101518661312520255823877,0.101608737945762153676021,1.07099756679989965846289,0.517512938200149985590315,1.11952733556510253265515,1070.3768612100282098254,1072.03441354896494885907,1067.62610789102018316044,1085.93979387474564646254,211.742368541995318764748,116.205261071993589894191,-107.413526330540221920273,-14.1431494790598044630769,154.299105706681871197361
3.5625,0.970631644048099317956257,-1.55648663298102518659505,-0.0290102333980223198173221,-0.0157171498355979100125523,0.00692238154304843263109337,0.0173573402432932351324713,-0.0144920218921068301443089,0.00326324808765563823334532,-0.986125195905361739967532,-0.165280061576496051234386,0.19590912951469180436348,0.0183402996010635227497332,9.31939314254555561944926,-0.0239624727627266963236874,-0.0101632843800156334040929,0.100386664385361978890643,1.07107050652596735851318,0.517521243748899739678393,1.11978408328509138058848,1071.0791709176633048628,1072.54425876700679509668,1067.37599192532866254624,1085.7179983098437787703,356.060297544953186843486,277.208423590269831038313,-82.158449419923201162419,-167.148503795718994524577,154.296630043973749479846
3.56499999999999994670929,1.10288038723512937799853,-1.52824632399177673391932,-0.149730338873069024341333,-0.0119824432312511247600284,0.00203962702800399020564015,0.0163962755193768836003976,-0.0144371426988661125806468,0.00331384685184975616434322,-0.986131242134600460857996,-0.165265924946890546687328,0.194744361107009433808912,0.0175313745143052812647255,9.31532892722099248317136,-0.0235826616595347648974723,-0.0101792807285416286866564,0.0991371988236294243712621,1.07114100626180031028412,0.517528402766283535108016,1.12004093751819788771229,1072.15716269775293767452,1073.42045566691626845568,1067.2153156439205758943,1085.10405135576706925349,413.578766959207939635235,327.437354273622702294233,-26.0384907046960591969764,-261.627422308998689004511,154.293532207835937697382
3.56749999999999989341859,1.10551152000299901523306,-1.47691207038298588649639,-0.186520960550425191071255,-0.00829108734294952375021293,-0.00144941566426637336549577,0.0155771603461467202794699,-0.0143517569444562825137224,0.00339062443883026993357577,-0.986137599590831692708548,-0.165248251641721966009868,0.192642068997325666135367,0.0158912289414728409575606,9.31128893249615252614149,-0.0232200988359179891218353,-0.0102023509828561235318611,0.0978614922958740002245648,1.07120823586141034056141,0.517533391224211714032322,1.12029676814965961639814,1073.14706475245930050733,1074.18144553837487364945,1067.24579947180518502137,1084.40986119829881317855,396.603904033936998985155,269.657305561922839842737,48.6334295020664200137617,-285.628167763324029237992,154.290849495640912891758
3.57000000000000028421709,1.00919785695306285511208,-1.40447778273058387910055,-0.162614705005497850454077,-0.00487986084263872417488006,-0.00446144297505632336786618,0.0148632378741458889837013,-0.0142459938991625865989388,0.0034902748122563184360323,-0.986143262563019429300937,-0.165232276319814547216325,0.189813062707249569083245,0.013502154225529638953418,9.3072809845845476672821,-0.0228766511235841789317913,-0.0102339811399327958868488,0.0965626285102027526185964,1.07127119504317280807015,0.517534586010739650063783,1.12055013723432184136186,1074.1401822179227565357,1074.76874219472597360436,1067.4584827914309244079,1083.6759105169503527577,389.181771189097275964741,182.457204333410544450089,109.494818963723332672089,-280.098398089675526989595,154.288067346752114872288
3.57250000000000023092639,0.852546663174230112680618,-1.31725628639849046130905,-0.0970476695383398618721671,-0.0022631757964237516830841,-0.00744671780905623460072862,0.0142746969317279880778981,-0.0141357139587153322196622,0.00361180773885568049547112,-0.986147789391999096686448,-0.165219671848295779348348,0.186588422205308746004704,0.0104195004406021987652942,9.30330090184098956740399,-0.0225524106051921760518475,-0.0102756098207606155064964,0.0952456619870236387281892,1.07132983605500875512462,0.517532064309422334957844,1.12079870221593069778976,1075.09297360840491819545,1075.0937315600419879047,1067.79327356662383863295,1083.00936920785034089931,365.78432585775641427972,49.9701028814353520601799,148.794406977325252228184,-235.441557421432236196779,154.285206926500194413165
3.57500000000000017763568,0.658806362767629938304026,-1.21036283984555659287707,0.00397292931256742337664534,-0.00073956732089967077044268,-0.0106516626537865120166737,0.0139156343859437592325179,-0.0140321379339220647652908,0.00375597196864809607097513,-0.986151278764572425394874,-0.16520943192266107635291,0.183224935132200172915873,0.00665026802011755430177331,9.29933967700326213901008,-0.0222474296764882291388421,-0.0103281681879294970349825,0.0939170379705837332640073,1.07138552099724826405236,0.517528336957291279496474,1.12104040519246561657951,1075.96910384721149966936,1075.01859270913314503559,1068.20245482631753475289,1082.49870272984321672993,363.605515129037030419568,-130.769900356383971029572,174.36787478123196137858,-186.322354732059807247424,154.282257217087447997983
3.57750000000000012434498,0.429606133931917710810922,-1.05670466659317252577921,0.142151133310428529066272,1.91145085031002808070768e-05,-0.0142848153497731750194433,0.0140792559864481494485977,-0.0139489565737870649386743,0.00390970427055257075538153,-0.986153744415286803715048,-0.165201175524469334732203,0.179985401954673662761053,0.00246139057117569781674149,9.29538029038212876287162,-0.0219605234893049741651261,-0.0103886502324347478054545,0.0925847514986192360320061,1.07143929733807685700242,0.517525973223008084467267,1.121273885803037329012,1076.91100118405006469402,1074.43988205826008197619,1068.66511294052997982362,1082.07775743419006175827,324.343008213015878027363,-286.351582656158541340119,150.384123413599382956818,-132.802006458180699155491,154.278620976863919622701
3.58000000000000007105427,0.268376832130574616286367,-0.909238197437611361806375,0.251892264068738935822722,-6.03331830728673921063199e-06,-0.0168518781711529709588238,0.014736775856902173051366,-0.013894504900745938136275,0.00405734271230976956817971,-0.986155230429298423899809,-0.165194842081691883883821,0.177026949306483327717388,-0.00185147548216117729946717,9.29140235093908373187332,-0.0216901508752341681818265,-0.0104523932550701446203556,0.0912571910360106264281654,1.07149234346891786273659,0.517526341689156010872352,1.12149796061218931519932,1077.59081888827654438501,1073.58683479585238274012,1068.95437544338551560941,1081.83469269755232744501,245.839118694953640442691,-399.512283973635362599452,86.1687509641360662726584,-97.3776360175654929207667,154.275515177625322849053
3.58250000000000001776357,0.157168532752403916630257,-0.748064843705336435242259,0.334280750757271261086601,-0.000422009113216936738912505,-0.0188579968367341768709089,0.0159721745334476354638564,-0.013867284886757886425146,0.00418934741668906644729287,-0.986156187979494780471157,-0.165188573136048483247507,0.174343285012874049666465,-0.00613931462667283850409561,9.28738501216763090440054,-0.0214348009344666572129068,-0.010514882579206444659925,0.0899419715065670616338522,1.07154731973976247161318,0.517530464990747840481333,1.12171125919563530182188,1078.14019677752480674826,1072.44232063839194779575,1069.09595669535065098898,1081.59086925410224466759,206.005537179457718366393,-541.930492320364237457397,28.6047312676607106141091,-137.846180208683307455431,154.272336816409222137736
3.58499999999999996447286,0.084719184050585844003578,-0.548899324853133085966306,0.384054933490965644260484,-0.00102045281028661344834008,-0.0205068336305422038723378,0.0178414789428315186115004,-0.0138620443373050836188831,0.00429642780765829897932084,-0.986157615021146627398707,-0.165177492551254329056221,0.171855952086965746428149,-0.0102738981569862608544952,9.28330575410172542660803,-0.0211921024479475514357141,-0.0105708673461195491044551,0.0886452874627118025951944,1.07160627905900240897097,0.517537882313717667592812,1.12191570814686580881414,1078.62084657417381095001,1070.87718233425061953312,1069.09739909972381610714,1081.14546179650892554491,143.457981975555753706431,-582.695611586144536886422,-21.5185214042326187211529,-208.023606020610600353393,154.268445833122740395993
3.58749999999999991118216,0.0655059844796572893210751,-0.384541530811580933857385,0.380614479491767465635377,-0.00129808814871695821224762,-0.0212676950442455409140408,0.0192340674835354240312935,-0.013879160089041414627431,0.00437154592994243047093805,-0.986160434143651287719479,-0.165156565479083639047531,0.169590761951889545944283,-0.0141535611186596049781983,9.27913641786413556644675,-0.020957428634290974078791,-0.0106151670674707633568179,0.0873713408146233883044829,1.07167008893657200729876,0.517547168435007809428328,1.12211359032626423193335,1078.85748668740257016907,1069.52884258046128707065,1068.98836408832949018688,1080.55075122399921383476,60.0647623406543118562695,-520.891815132256169817992,-56.687475760646819367139,-298.245581100633899040986,154.265144232505832633251
3.58999999999999985789145,0.067109900514749770694678,-0.224887143441177939084952,0.33562055493243869719322,-0.00112085908058880850436678,-0.0215908409841036805221215,0.020130972189497060853558,-0.0139156148323052262366639,0.00440717005282077745054181,-0.986164492034508177731311,-0.165127403102431152825957,0.167503556960515997964478,-0.0176758248685116442500131,9.27485523270408229734585,-0.0207260661929796301261586,-0.0106433106170736677814626,0.0861212755783096750583638,1.07173876663811507015112,0.517557259010361203621642,1.12230731798771787843805,1078.92117038587707611441,1068.27272325858939439058,1068.81396172092058804992,1079.65423389100578788202,-1.17168361784926045032762,-468.038613060994293846306,-73.8463129317956514796606,-409.952862607060126265424,154.261786994152345187103
3.59250000000000024868996,0.0665400956824756945051647,-0.0666006042767181838382129,0.263525529749429721082521,-0.000710357168130072800377173,-0.0217643175649502966517712,0.0206698189251287404999413,-0.0139641748739402511009233,0.00440157005000786725329442,-0.986168864472702244583502,-0.165096352305132726412396,0.165484510738623746828324,-0.0208542795356668059225669,9.27045074447044115117933,-0.0204939145985848399089679,-0.0106529426192762451813811,0.0848927336622942035893047,1.07181170276173887145887,0.517568138601111171759328,1.12249942024439808285763,1078.85162826931332347158,1067.18864951515615757671,1068.61913252367048698943,1078.50098691096377478971,-55.5342216988682366718422,-372.493244376093912251235,-77.5355608704960559407482,-512.806147097637222032063,154.258387670146021264372
3.59500000000000019539925,0.0418471511225353004492789,0.0974420338064007074407868,0.166616802913027661769974,-0.000230215484354801658934894,-0.0218494924245707169974118,0.0210043022645868028563942,-0.0140195677389308628185693,0.00436151759022195429499336,-0.986173215250181089963633,-0.165065793636818752831985,0.163479542454740833790083,-0.0238506553007979543723494,9.26592123494803487915306,-0.020257262051262034385779,-0.0106439927636696116119985,0.083680127937353770972706,1.07188847904215056594524,0.517580940053392835054069,1.12269103494225985784283,1078.64349927738271617272,1066.41025703670879920537,1068.42628391656808162224,1077.09020315551742896787,-116.151608172097184024096,-252.089439440538541248316,-82.9052203583177629298007,-653.870281188406238470634,154.254942244040080367995
3.59750000000000014210855,-0.037351920213246750379632,0.310595980670633486919741,0.0282594957174002597843909,0.000257577323736665449518957,-0.0217472723295570047330472,0.0213698287480578383301655,-0.0140711809677488211556273,0.00429477057906271341564119,-0.986177785637900594650773,-0.165035046006995117506833,0.161335207279821923886942,-0.0268557167599016849424132,9.26128628720556257292174,-0.0200148131971549410323963,-0.0106180077206793777727656,0.0824747592109348476308028,1.07196749120151513245958,0.517595731003190784313972,1.12288472745022849252905,1078.2708702284528499149,1065.92820231795349172899,1068.20460642187890698551,1075.23163550502181351476,-149.648677218286593415542,-91.8615982445791416921566,-83.157095085973153913983,-683.545160886857047444209,154.250760133014495067982
3.60000000000000008881784,-0.155199723768597724893326,0.505023705765615615881359,-0.101352647999813805235192,0.000491711547863466652032172,-0.0214177071387635746535505,0.0216735634352592382301239,-0.0141086887112291687468302,0.0042142005965961288130317,-0.986182383843188681282754,-0.165005834571640891406119,0.158916785151104245077391,-0.0301410152417043025740995,9.25658487635040572172329,-0.0197669233052076252776796,-0.0105793021469775434806326,0.0812656314759073045150828,1.07204666624228006632791,0.51761193561894502934706,1.12308253852239858794348,1077.8952558912912991218,1065.9509490454859133024,1068.01049844113822473446,1073.67247735108321649022,-151.206156105357450769588,101.345186726623410322645,-88.811225958445064065927,-592.352042532014706921473,154.247239323576508240876
3.60250000000000003552714,-0.332377415540013321226809,0.712060236821592029698991,-0.237221843564030920870067,0.00040113621929819588424887,-0.0207133102750472336550658,0.0218268971852683194012634,-0.0141279488979564066958305,0.00413818458479459170412662,-0.986187386761341433505379,-0.164975786825239972843704,0.156218712594647202163145,-0.0340474442573779345622143,9.25187284211600946548515,-0.0195149659639740867544955,-0.0105348360796283270490736,0.0800406344801428554225353,1.07212330549667567147765,0.51762886677113395528238,1.12328503335188045753057,1077.51483944792607871932,1066.43492825158659798035,1067.7605502920866911154,1072.26987529236180307635,-150.225523632346749991484,313.042617416938185215258,-137.141979349374395269479,-543.579730344129302466172,154.243685921782770265054
3.60499999999999998223643,-0.60987945779815433411386,0.954646587460767026556141,-0.387520849989870685980975,-0.000324438623565782044248784,-0.0190919946679482845086628,0.0214401657146532920172888,-0.014122888703874288823803,0.00407884673198460803028587,-0.986192710709914654998443,-0.164945599031064232820043,0.153183284812725029055969,-0.0387883230549917606966304,9.2472321531976220398974,-0.0192626696696922769524996,-0.0104929445687644805340621,0.078787492603450276495991,1.07219451215620487083413,0.517644768338252569961355,1.1234923859309042804,1077.14412827312958143011,1067.51616213257057097508,1067.32478854439136739529,1070.95457869936262795818,-108.752686890741230740787,466.574823867277643785201,-192.398887723724783427315,-398.295528918842421717272,154.239389110876459199062
3.60749999999999992894573,-0.88534009340238173368931,1.12693857163043253954982,-0.480451962049566694279434,-0.00165354599732143569407183,-0.0167816026794778243302897,0.0203673864251891316434762,-0.01409092824651136249825,0.00404096484176420626954762,-0.986197196554142951896438,-0.164922278788208392930059,0.149798839228687086233549,-0.0444090145656883400482329,9.24276590948712772899398,-0.0190147128988545910388552,-0.0104629809488520873761441,0.0774951977428899041466792,1.07225761468144420440751,0.517656623166253382350988,1.12370380932187718947546,1076.97107601347238414746,1068.76780237092293646128,1066.79855585346808766189,1070.27839764776763331611,-31.1949701034343256367265,547.381198441701485535305,-252.457842550398623870933,-166.535021631037949418896,154.235784747602338029537
3.60999999999999987565502,-1.18714706673745973297684,1.23174679900455008585425,-0.510784443858470993404808,-0.00393355444989975950448313,-0.0132321677794523910598468,0.0183437962206576370138844,-0.0140433292712213025899004,0.00402556786359245001583052,-0.986199591714988499369099,-0.164912279436298880863632,0.146299867850772591371111,-0.0508230979029786755774012,9.23858722746136429293529,-0.0187744824813186189649272,-0.0104547114396493587978876,0.0761554902511460268810239,1.07231226208105523411973,0.517663663046323163641205,1.12391637505158326071353,1076.98815342261241312372,1070.25306812477901985403,1066.06249933163940113445,1070.12190359120745597465,38.9973206636542357728104,606.863480956603780214209,-330.544657151290664387489,25.3402872875523108575635,154.232160268439656647388
3.61250000000000026645353,-1.49203097783519811336816,1.2561882489792923767169,-0.47242380802800765238203,-0.00702432320642141019839677,-0.00880487034841567067777746,0.0156790015527997345090583,-0.0139964146266157805215125,0.00402733346676653874290919,-0.986199589006606758267992,-0.164916124080027065579301,0.142998181043246741506181,-0.0577940710517499262044439,9.234822184069981787502,-0.0185448536324659407625859,-0.0104770121003385490582316,0.0747633694002404897149816,1.07236068761078695565914,0.517666756640354552843064,1.12412717087920532854639,1077.16606261679066847137,1071.80211977570615999866,1065.14583256771152264264,1070.40509908420540341467,102.324987205422445413205,599.434633219657825975446,-404.235639838561837677844,206.733293216788894142155,154.228522638723831050811
3.61500000000000021316282,-1.77570733943648506603097,1.17070839037935914284105,-0.348584371066449127951614,-0.0110963753499094021359728,-0.00419805626973471755769562,0.0129818191309847737191507,-0.0139606733838380236978338,0.00404149728419437269388848,-0.986197276445905712805029,-0.16493247605993388571477,0.140105368328864832161429,-0.0650935663534673580876699,9.23160969435100042801423,-0.018328843632922735967794,-0.0105384105471565733130879,0.0733170064547783023600758,1.07240499163317415387553,0.517666439550858226148478,1.12433342743007780306641,1077.49977835863955988316,1073.25024129087751134648,1064.04132113244645552186,1071.15557005729147022066,165.535175368453451483219,570.356962543667918907886,-511.083569638332846807316,406.394536040451839653542,154.224873669200917447597
3.61750000000000015987212,-2.0604197368172281201737,0.955489968647163845361092,-0.129309526257697482432008,-0.017058162460544971927856,0.000112781324269103108790674,0.0111877479559179243001621,-0.0139416227434959651837465,0.0040647513336495473545984,-0.986192267261562727220792,-0.164963249735367772919048,0.137751172323343329395584,-0.0725149538285362466050188,9.22909359162408193810734,-0.0181288119251733041703556,-0.0106465574430686018420067,0.0718178409131265405029865,1.07244660298947014354098,0.517663222584529014724808,1.12453406191975102679237,1077.99373849363291810732,1074.65390458842443877074,1062.59041471951991297828,1072.43707176440761941194,181.874157855376552106463,434.768300914775124965672,-532.414500544211932719918,503.665315521140485088836,154.220487936162157893705
3.62000000000000010658141,-2.23221085287316967082916,0.712238869291347609369325,0.0730363152047884683915058,-0.0226455320326906517358623,0.00206889512130406039505659,0.0115979229841166320280621,-0.0139404317014004894281776,0.00409326575319580478196091,-0.986185188032494441934261,-0.16500469797351990930423,0.135985590989151972074467,-0.0798431369092481302285336,9.22741553633623112773421,-0.0179462928288945250399067,-0.0108069003856776542360496,0.070270452888865200802293,1.07248648441421567945042,0.517658278388853365648004,1.12472923387372714110199,1078.40914914791642331693,1075.42408279545134064392,1061.37924862972545270168,1073.67389663489711892908,150.647818009113990456171,210.815200746678726773098,-453.986330277176080016943,494.459414173217339794064,154.216832051739515918598
3.62250000000000005329071,-2.32051259717020386119657,0.446525959201005240295501,0.245444080063539793457039,-0.0283186710835067606550908,0.00253023819344011177689957,0.0135171406259988850784293,-0.0139529721627623063545665,0.00413052752828882603630678,-0.986177172087780773424015,-0.165050309543431916736722,0.134783586802212140831614,-0.0870035275304427008213892,9.22670573235704871706275,-0.0177817167280735315137985,-0.0110233939028464289489051,0.0686821237311932841773654,1.07252573235163728426755,0.517652604259451254442581,1.12491746383671298303852,1078.74697758367847200134,1075.70798059215780995146,1060.32048306813408089511,1074.90936883527365353075,116.686010080868740601545,15.8011894843642686225849,-390.736954971688817295217,512.099937836284880177118,154.213180935736033916328
3.625,-2.31924528957160891451394,0.142453793982142307150696,0.38062362566244678507843,-0.0350872504562070516853645,0.00222181838078689070439808,0.0161544717880522936681587,-0.0139768158020324769624798,0.00417682663800126533631962,-0.986168702159399779283433,-0.165097398459435440454257,0.134139462252746144432791,-0.0938518891272294292216216,9.2270753622690158124442,-0.0176335110335386797963952,-0.0112967673565753396608402,0.0670628637348137240925539,1.07256608023948718511065,0.517646120838693657439933,1.12509626592538936051824,1078.99257919832075458544,1075.5030887428731602995,1059.42556385486705039511,1076.23439632407848876028,57.4678953859359751277225,-153.944117691665809388724,-237.145404516018572849134,448.310878823268012638437,154.208812362180196942063
3.62749999999999994670929,-2.22308375551694448191142,-0.0820653087759354166186299,0.42741623255978167250646,-0.0407267387109503456454895,0.00169886977511827835969627,0.0179760259641444340716898,-0.0140006221832756263395714,0.00423371774883805809114312,-0.986161161032336419651756,-0.1651386154813023199317,0.13388303345488267170893,-0.100297996541805004011572,9.22861677950936964975881,-0.0174997650020803953430093,-0.0116248683811761913120542,0.065424303198166083861409,1.07260930429985146261629,0.517639762150864601863987,1.12526592744046816108039,1079.03431706060814576631,1074.938260003699497247,1059.13475604555401332618,1077.15092322938994584547,-17.8509401513114589477027,-289.034865820400909797172,6.74726038246277148857644,330.476144888696353518753,154.20518781005429787001
3.62999999999999989341859,-2.02352686516171553776644,-0.270235942386426675199118,0.417988682525974541981384,-0.0460130132869758790015169,0.00113625041829567836708381,0.0191720653998841937537545,-0.0140184372224739645096392,0.00430784631783968224860715,-0.986156380472117177760083,-0.165163364811284324451535,0.133949546494748827907273,-0.106337325347916941686854,9.23138845947625874543974,-0.0173765857449634554543483,-0.0120028343165126394342934,0.0637793933448941863240123,1.07265691376226102171643,0.517636158141848490288339,1.12542653582947060897368,1078.9033244975641991914,1074.05791441377118644596,1059.45930015677936353313,1077.88677704852193528495,-88.4666158346075803819986,-439.791920139048102100787,305.664930920581639384181,303.321095992012033093488,154.201585444137180047619
3.63250000000000028421709,-1.66345739355647692647722,-0.454467111954637681403568,0.366865599789303553635023,-0.0516058746183525041129059,0.000396427374692533271080541,0.0199854159995895633294971,-0.0140356973151644585234843,0.00440456552935168405699118,-0.98615579360614680215491,-0.16516251448045912719742,0.13446930093174580544968,-0.1119203305406669540778,9.23541106422692159583221,-0.0172580311050283159712837,-0.0124225830424754078024074,0.0621419326720669823460597,1.07270974811860897446536,0.517637588051305774783373,1.12557660438260342949945,1078.5919839814350780216,1072.73930040300410837517,1060.66308070015702469391,1078.66752870935010832909,-126.6357154242001286093,-513.684728467716809063859,579.824763159110261767637,291.513297720965397274995,154.197293706494576781552
3.63500000000000023092639,-1.26526834902089380108237,-0.572664225318009312282186,0.308842652536666761875495,-0.0557005392722757786128085,-0.000412873774611588375670762,0.0203160463466408973409738,-0.0140548665968336528725446,0.00451894490733307802737828,-0.986160069324738430829314,-0.165132027920358470662876,0.135479193347019077897642,-0.116835863686683069651018,9.24067992605708177222823,-0.0171386792414134243867085,-0.0128728648731559636858579,0.0605253357046476939129498,1.0727679061670618576585,0.517645409106403664445395,1.12571755933574757513327,1078.27014592044315577368,1071.48949077143242902821,1062.35842397257511038333,1079.34434353712686061044,-121.339067443798597878413,-514.032945096925686812028,806.853431320786398828204,302.149430220067245045357,154.193746422618801261706
3.63750000000000017763568,-0.774574347772675197987269,-0.647688786330663512913475,0.249536299255562366017358,-0.0591115575090376751954402,-0.00164335014908674427111523,0.0205031034617739749137399,-0.0140782693485898835472625,0.00464225111883178730848298,-0.986168342011103260524862,-0.165077165337381204235356,0.136995373295890898734939,-0.120822326113980096917722,9.24716153889998970782926,-0.0170135219963493573847035,-0.0133411818799891185999273,0.0589418201859907009421136,1.07283029500400872713328,0.517660014834958825957756,1.12585166799104041679414,1077.98528864421609796409,1070.16913567751953451079,1064.69734785676087085449,1080.17827586045041243779,-93.1207752705196867282211,-523.759244487712066984386,1016.61778295617648382176,373.068065555579551073606,154.190232433511368981272
3.64000000000000012434498,-0.223648478229367425607066,-0.677787132851707219138859,0.194054061781283232468454,-0.0614456469145242475948798,-0.0033451389019113490948254,0.0207050562382239851377808,-0.0141135256454759418220934,0.00475166733044030033944471,-0.98617871278040913907148,-0.165009235842670548555233,0.13908095123385982860853,-0.123366880058256397911798,9.25479667754377466337701,-0.016877998834119774945739,-0.0138134487282351049036722,0.0574022696671032117698985,1.07289452529068518593647,0.517679794404040549693491,1.12598181989901724442404,1077.80454204409056728764,1068.87069454899392439984,1067.44151288735588423151,1081.20968386490471857542,-35.2327724467166518707018,-489.605871373816171399085,1148.87516690758002368966,464.493538395627979298297,154.186747688164331293592
3.64250000000000007105427,0.364201639319190917376545,-0.641789364848514343186991,0.142914689501411951155774,-0.0618159009678529089426569,-0.00554850294897608811023337,0.0210236714604749158619157,-0.0141611750795565174282364,0.00483471651597879113065881,-0.986189786907212262434541,-0.164936814629179695490535,0.141693103105160533861095,-0.124193468179838686915595,9.26350109419369083241236,-0.0167293991920437132292498,-0.0142776159313504607401013,0.0559150439919993899606787,1.07295888193617505734778,0.517702929783722676226887,1.12610917982155012140311,1077.80912478198251847061,1067.72110632065050594974,1070.44172369129864819115,1082.5007435524285028805,49.3465155306249982913869,-436.0463933853773141891,1307.6726371828324317903,617.484268916418386652367,154.183299440851982353706
3.64500000000000001776357,1.05046660308564776542539,-0.514607399675043541975583,0.0825048470786386850539529,-0.0596773417223989133262307,-0.00819810942484634069815641,0.0215492539133658109196112,-0.0142213154259163351844641,0.00489336721943637014548001,-0.986200913794628375441675,-0.164863653177184765752372,0.144816993292123941117211,-0.123319114298100482307596,9.27316306745421670143514,-0.0165660820441884647225006,-0.0147242543745446183983683,0.0544861022461009050776859,1.0730227695853591374231,0.517729487788079589805079,1.12623288950018340948134,1078.05127462174368702108,1066.6904625820670844405,1073.97987607326990655565,1084.29710520948674457031,123.872740075105781443199,-295.18188869538511198698,1235.11608700280612538336,682.842246738042376819067,154.179204419077677812311
3.64749999999999996447286,1.55766827746300684509606,-0.343340349800885347164581,0.0306477707292094163349372,-0.0559007308337405098286332,-0.00998388963795301780101976,0.021991048979280492653432,-0.0142982505494101928833484,0.00492685074866677698984807,-0.986211333229103592756815,-0.164793901292098116106999,0.148501248242367434038158,-0.120722608860052024737364,9.28365265325735222745607,-0.0163870487561814000276872,-0.0151449836846302351989202,0.05311956727689005203219,1.07308473672980042579184,0.517758890764769996728489,1.12635238315778352102825,1078.42848848235803416173,1066.24519687717361193791,1076.61730412631254694134,1085.91495478611864200502,176.598036935505774636113,-70.7739522248190553455061,942.227934172999198381149,645.689949679913411273446,154.175827574628016236602
3.64999999999999991118216,1.94652436095585912312345,-0.123099577199944187899661,-0.0215631161025941972542164,-0.0504792494727389351449887,-0.0113102417634348383079779,0.0221870655837518686304133,-0.0143874078990903070396357,0.00493950272383717955970717,-0.986220910714838416843975,-0.164728599770966155357854,0.152642866146246058978164,-0.116527665409243322280908,9.2948325171468706429323,-0.0161930534973707095092177,-0.015533632952484216840916,0.051816997947092179044315,1.07314394742933094661907,0.517790944037296196889031,1.1264682786362607558317,1078.93426480642119713593,1066.33659282094299669552,1078.69101574413480193471,1087.52555495788624284614,239.8953244047839916675,171.689568536161488054859,757.2180804771667226305,673.124419942783561054966,154.172487275422525954127
3.65249999999999985789145,2.23710943720205301943338,0.159858113981694915928244,-0.0780633861032649367661662,-0.0427936086604954538104018,-0.0117350049944112532623874,0.0219689165880338141412231,-0.0144754403054406250578312,0.00493604102938520906268538,-0.986229643740621386704959,-0.164668788817447064865007,0.156975937756170857984017,-0.110912319308369408665804,9.30656605688383109509232,-0.0159861116879532264012376,-0.015885935943778628498535,0.0505774345329405086713059,1.07320137798129211503806,0.517825744735083803860221,1.1265817716341635090771,1079.62796510438192854053,1067.10364471985440104618,1080.40339452869829983683,1089.28057688583248818759,263.788168643832648285752,381.646640157370427459682,504.590559046903365469916,589.367146623641247060732,154.168520195266694372549
3.65500000000000024868996,2.32216851900940923769667,0.375030152980221076486345,-0.114312517976497732274943,-0.0362154306215209734198801,-0.0105359955102894697898108,0.0214836585964519426183994,-0.0145503025560560685786049,0.00491950795857960029161537,-0.98623757377907617094337,-0.164615226322636143407863,0.161250628753481339838771,-0.104037170569071898973412,9.31871720170153494677834,-0.0157681162864078822094527,-0.0161992700874032564961613,0.04939786836932740649031,1.07325872814924894171895,0.517861909171853596056678,1.12669380520416639868131,1080.25320564964044933731,1068.24482602172997758316,1081.2139685393694890081,1090.47239069100464803341,259.919528269557019939384,533.364903680840484412329,227.606790826833361052195,394.301818859704098940711,154.165247730193499364759
3.65750000000000019539925,2.25290941721579773826534,0.527232570269631328763182,-0.13520965411376106857233,-0.0302161172267522218359836,-0.00797882134153539597509752,0.0209487017048242789296619,-0.0146003554447305811114788,0.00490183783790477684699782,-0.986245022483392852485906,-0.164566716336861179614814,0.165249787884927057390883,-0.0962398836383129424598692,9.3311518660987271545082,-0.0155406957092880833315451,-0.0164737426141379032784595,0.04827310228578703815705,1.07331674315852065859644,0.517897866599245526586515,1.12680519151344382677848,1080.92756274572980146331,1069.77046923825878366188,1081.54142848283254352282,1091.25208598013114169589,280.981542484966269057622,645.028394383566705982958,84.2342491611379671212489,228.782055419383482330886,154.16200853147927318787
3.66000000000000014210855,2.07302735758981127034417,0.608434480861144266761187,-0.143409917890442467625078,-0.0248111885843607972434999,-0.00514205013750773480551981,0.0205044180918939333846396,-0.0146222022938912090544994,0.00489193768577042640416375,-0.986251847375324675049058,-0.164524216290417718555616,0.168898815891878939510207,-0.0877868789746091143788576,9.34374173968607557583255,-0.0153046258041410077749278,-0.0167109750100441108167093,0.0471966357446781323292662,1.07337382679591475387326,0.51793186911576238884436,1.12691665564327325732563,1081.65811336206525083981,1071.46996799364774233254,1081.63513978517516989086,1091.6163009681015410024,309.669779423127010886674,683.72314193176498520188,20.2328072688946782875519,37.2165022764883133277181,154.158795640237173074638
3.66250000000000008881784,1.78638214238019843449479,0.603484035726425060985889,-0.138941809641880409387227,-0.0201809495419637829893844,-0.00279492966090080958985187,0.0202105543247613414492569,-0.0146231917835399245764183,0.0048845207588984577984359,-0.986257652910690674197269,-0.1644895934506931944874,0.172278728719389706558474,-0.0786562883663154271962625,9.35636927895780701192052,-0.0150599935491226265271703,-0.0169127906785941188594347,0.0461614777537573822696615,1.0734293388063478325023,0.517962797316439571559954,1.12702956855259639468159,1082.47591164284540354856,1073.18908494791753582831,1081.64259251917701476486,1091.43816849151357928349,380.567520955909401436656,718.175831972000082714658,16.8728276877121921017988,-199.195995442828149180059,154.155612690169277811947
3.66500000000000003552714,1.35537230881089776346471,0.519808831767037404780751,-0.12278131371426506679434,-0.0157734058633801320359336,-0.000881079595386429392962768,0.0200051811432684599478815,-0.0146061355573087539583277,0.00488556638668144298243146,-0.986262276724903297342451,-0.164463341570161514226811,0.175423097487584833675811,-0.0690524702649620708561073,9.3689309147471391270301,-0.0148073900364738345047932,-0.0170832690478469224892866,0.0451594424121016246864713,1.07348237145001346171114,0.5179896602372928704483,1.12714521376530374396907,1083.56095096684475720394,1075.0608471535076660075,1081.71950392361372905725,1090.62032099088742143067,410.264039709190569737984,633.052751106938444536354,45.0403331910829862749779,-386.622031072883203250967,154.151825204690481996295
3.66749999999999998223643,0.949747366457851627252751,0.409270314234035703648829,-0.101774224107929453508881,-0.013072213103371831122157,1.5346392476055420900664e-05,0.0199141345326217696076743,-0.0145681371083715809067183,0.00490557902038224989682558,-0.98626621213569309887248,-0.164442406653346473444088,0.178275271428246728788736,-0.0592855997086157299191811,9.38134234597518457121623,-0.0145481009696731070079956,-0.0172272835104313182252866,0.0441820277144903475474713,1.07353078412047087120129,0.518011731691458310322673,1.12726546533358784607515,1084.52723184139131262782,1076.35434870345216040732,1081.86779418513242490008,1089.50505833614920447872,387.030394553457028905541,451.720720067769946126646,58.7039729571655470863334,-510.77592794023257738445,154.148693806757734137136
3.66999999999999992894573,0.525214827221622382324995,0.284926999328095731378596,-0.0719115149917144147462267,-0.0113984956844082174071131,0.000386187114261100819089662,0.0198528198449216888854529,-0.0145149422633668243043381,0.00494612363622207000524167,-0.986269718611607393299323,-0.164424636271480212323937,0.180913172222910256792261,-0.049474994596863899887218,9.39353213919984675328578,-0.0142826520615936154723347,-0.0173483783155134081710447,0.0432222246022096120987577,1.07357481711090785303497,0.518029656092479418028063,1.12738857763899358310766,1085.49610293961200113699,1077.31945075384646770544,1082.01302378839955053991,1088.06644135118631311343,406.800954280024200215848,354.935491965996618546342,18.1392853255605821516383,-674.206044293774311881862,154.145586405192830170563
3.67249999999999987565502,0.0261185326730930117422602,0.145681364962916198857457,-0.0211813757656272166896017,-0.0110933289607123303915914,0.000470487038224914671732946,0.0197656393060363332059293,-0.0144556682114117662080188,0.00500556606601046914784003,-0.98627312532456012927895,-0.164407297636018967512683,0.183469670744198176670636,-0.0396712849849816806546698,9.40544162116478155155619,-0.0140109800441035239199072,-0.0174484957798170629839074,0.0422750494688415787147839,1.07361725304485999821225,0.518046609934986523882117,1.12751083134295226884092,1086.56123661279139014368,1078.12902616328210569918,1081.9584906117602258746,1086.13402811468040454201,358.454833249673697537219,251.525163244360868475269,-96.5604086487408750372197,-719.71959505731012995966,154.141883998409156220077
3.67500000000000026645353,-0.36092221636891275160508,0.0505145274677905806171019,0.0382450232776925039268612,-0.0122824441184065814153259,0.000379486412102684989803431,0.0196642717858676145670227,-0.0143954174359196118010429,0.00508146877798040189772033,-0.986277600263779530287422,-0.164383044777137499181663,0.186002462839876814282292,-0.0299260337412082105812416,9.41702735874579843766696,-0.0137329801099345429060694,-0.0175276529495530207503062,0.0413377364586002132851306,1.07366074995994775775898,0.518065668736499063129486,1.12762940417361146039354,1087.28837710586049070116,1078.57707657006835688662,1081.53022174515581355081,1084.46784337589951974223,240.455705877986616769704,149.702429802881738396536,-286.751649753458593750111,-654.910475849102454048989,154.138820352069302543896
3.67750000000000021316282,-0.704221268125240995594538,-0.0145860320310949118788324,0.120513059652935169974164,-0.0143189292812844620739199,0.00022566135437261444361863,0.0195442250887498530920183,-0.0143434522977567147083988,0.00517249534186433289340012,-0.98628362529774449285469,-0.164348285008768080217578,0.188652231163048356155088,-0.0202981711812262322069955,9.42825154769228745976761,-0.0134475310873444220405304,-0.0175842373963506944101187,0.0404099801917479906077091,1.07370637139935598547424,0.518087854340474329717381,1.12774204630708196894773,1087.76351514218140437151,1078.87753831229656498181,1080.52473236299283598782,1082.85947573543467115087,136.907438038864000873218,112.41189125276163451872,-586.565482829122402108624,-674.844792749005023324571,154.135779452280701207201
3.68000000000000015987212,-1.06586479275093193308521,-0.0537594918707849644956553,0.246873104473268489833515,-0.016922801939986492625323,2.60851570099155790293487e-05,0.0194501312477255855482028,-0.0143050739744649928197884,0.00527522062332142025603554,-0.986291097057621524157867,-0.164303372918954249115586,0.191481224535592076119173,-0.010820535090286763357792,9.43908626120261473602113,-0.0131534113127410486054902,-0.0176152472738402392227197,0.0394934070915415741387378,1.07375414534741886463109,0.518113591580909083056383,1.12784831346294578402478,1087.97291429605479606835,1079.13913602633215305104,1078.59739433101026406803,1081.09361941215456681675,12.4169844342762107913813,82.7409592362091075301578,-807.429016272698277134623,-610.964688285652641752677,154.132157802251953171435
3.68250000000000010658141,-1.3308759831046261812304,-0.0527495988769140430885152,0.370212339064304007951733,-0.019119045989944249280823,-0.000135179640084909393317816,0.0195178308079520419771047,-0.0142899305090403595103199,0.00537338880585922894911333,-0.986299770968871558629587,-0.164249471351702869270639,0.194593620807246237003341,-0.00127582508926380594482808,9.44950630619361220396968,-0.0128491457464709156466309,-0.0176158575342229735405386,0.038591594603420112385983,1.07380444465803837061912,0.518143291337376021843397,1.12794736399641348789658,1087.82560006435278410208,1079.29124310847760170873,1076.48758728162943043571,1079.80465229400647331204,-122.49383945600391143671,43.1573717608453151228787,-894.701656045773233927321,-471.487229042996716543712,154.129164028847981171566
3.68500000000000005329071,-1.5596992222095531488435,-0.0162386539954172126609677,0.496445959343431109100919,-0.0216532058454917547551943,-0.000275505884611189257992619,0.0199329340441066656108848,-0.014298943489266783060665,0.00545994405977243656147291,-0.986309718705808746719299,-0.164186252018779454964204,0.197960108067742335258288,0.00835119506605364395057656,9.45949194438991902700309,-0.0125341133556035478485713,-0.0175819221396398446544129,0.0377082967877182123617175,1.07385672322681147150547,0.518177443337882848162224,1.12803987345443412770862,1087.36044509877478958515,1079.35492288513637504366,1074.12388605078149339533,1078.73618326693963354046,-229.748302487592241050152,3.78634821022395851031206,-931.356027116109430608049,-387.787771122620199548692,154.126197814552256204479
3.6875,-1.74984443044007176304433,0.0496362116970996414266892,0.605078674271595784439626,-0.024801074696273805314517,-0.000374529752486842712044107,0.0208262787367539149718798,-0.0143269296740478439822208,0.00552432254694191528232583,-0.986320092772544843029436,-0.164119575535869838267544,0.201426785147649667351288,0.0181229690888787091374024,9.46902865638420898619643,-0.012208421995638606832868,-0.0175098366495035351331211,0.0368472310227725002862442,1.07390956278213778318786,0.518214989901041533926218,1.12812757969650734324318,1086.6768585519148473395,1079.31017484952872109716,1071.83080714604898275866,1077.86571343839341352577,-306.922577215625267399446,-54.6732789852297003108106,-826.846534915256938802486,-295.591728900678333502583,154.123256581829792821736
3.68999999999999994670929,-1.86969793799506978082547,0.149423296604740074577933,0.6604024104337222755845,-0.0289577572251966466887474,-0.000361471337051096758535146,0.0225241055200467339691972,-0.0143704557541931114694744,0.00556030909688675235164057,-0.986329360511676966893901,-0.164059153733317752976717,0.204885685701718833762186,0.0280266386500438550999359,9.47809840945879678031361,-0.0118724288466494354299385,-0.0173975514733041639048317,0.0360115314333928279721952,1.07396131188239496445647,0.518253516508201506063358,1.12821080020296582446804,1085.82583221269669593312,1079.08155649021023236855,1069.98965337620529680862,1077.25822462243627342104,-379.101049031177240067336,-155.665468681312319176868,-624.15136535602380263299,-196.304221839549967398852,154.120348080695038106569
3.69249999999999989341859,-1.8929394435179554001536,0.302826516093369746407404,0.622243503903834427326558,-0.0352400720361181404860496,-7.94848203298183426414314e-05,0.0256133964537107114423087,-0.014419222160194996792959,0.00557881975754678793855135,-0.986336910033095537464476,-0.164009158855032532997598,0.208154127724126669640725,0.0377034937012939996847649,9.48668525674205653785975,-0.0115275596417361188283923,-0.0172455942126552366766568,0.0352027112989695273315149,1.07401036485679202137078,0.518291195329348752807164,1.12829077855451354039928,1084.78135330675900149799,1078.53184750612217612797,1068.71005031926893025229,1076.88419232919568457874,-357.989214553639101268345,-252.359959684400820378869,-276.094143364643514360068,-68.5441791566471749774792,154.116898967536940290302
3.69500000000000028421709,-1.78687661785529705582576,0.45092162799943569240213,0.480518035803586041065927,-0.0414469877126504085418368,0.000513753156941057519992155,0.0288324669995299771863007,-0.0144596526811340084922586,0.00559379105906362191630299,-0.98634266836297590508309,-0.163970740319343277757724,0.21099847267320520627365,0.0467262865415975295335649,9.49477628363971248859343,-0.0111759583615106111026405,-0.017055967162086901195428,0.0344209737365796034080923,1.07405469954202636984064,0.51832597982002182046557,1.12837019754646417091237,1084.03588613992837963451,1077.81975669178814314364,1068.60918265938198601361,1076.91550372665301438246,-237.950857952939571759998,-332.776672103841804073454,170.528750998198432853314,92.638909696909763624717,154.114061236468245397191
3.69750000000000023092639,-1.54210154054230264009107,0.605839072935593914159824,0.221993838737919890746753,-0.047889373891855845088994,0.0016476230527792002505949,0.0318071328621632731792346,-0.0144848664721302974184303,0.00561141108330730133818554,-0.986346334579035755041332,-0.163946114529551351113312,0.213287676161240780103867,0.0548366018276263619823929,9.50235520485275486635146,-0.0108194768678761682467737,-0.0168310181158124391731512,0.0336658456102120334785255,1.07409372176708828305891,0.518356762906525547762726,1.12845120051829406193633,1083.59159901699422334787,1076.86796414560285484185,1069.56269407425997997052,1077.34738687768026466074,-92.1421141607444553756068,-448.335848455017639935249,629.241952189354151414591,281.490705046559583024646,154.111264073256307938209
3.70000000000000017763568,-1.12336747267295011809551,0.77864474409467465676471,-0.183857865480719695483458,-0.0541569870508113032636643,0.00372648365309600267808454,0.0334878758374004617537345,-0.0144884393593756148621576,0.00563697540782014377275244,-0.986348005739383082435268,-0.163935124973835999462324,0.214898678779256724347135,0.0617975567222984606408076,9.50940707054452083468732,-0.0104597720601494817427302,-0.0165733067853062465690783,0.0329361367256651160762004,1.07412891517756348136459,0.518384700564371692088628,1.12853464047168028372425,1083.57517556912466716312,1075.57807744951310269244,1071.75539242032868969545,1078.32295725188578217058,97.1301847573179486516892,-463.484659422884647028695,928.937053898172734989203,421.294145879082748251676,154.107957367824383254629
3.70250000000000012434498,-0.728067198343543608984874,0.895978151745683404350018,-0.548170553773401625363704,-0.056932601637003393824088,0.00597639442043073135235609,0.0323785698387705767054001,-0.0144743764627036693853901,0.00566630763716394550422173,-0.986348933227538693380154,-0.163930057124902883725071,0.215877891802039034718774,0.0675853167955200173633301,9.51591116774736889283304,-0.0100975825598351911377426,-0.0162842759859780535081075,0.0322309892544749287957018,1.07416324929312767544332,0.518412131360066474883297,1.12861865296201124841957,1084.0772499407808027172,1074.55054084848848106049,1074.20737934375074473792,1079.4538576070756334957,315.261882532838512815943,-347.17136850150211557775,1035.22767759397925146914,489.567033334525604004739,154.105245492963973674705
3.70500000000000007105427,-0.374960938158767187466935,0.969773289209957534140472,-0.866707408983477645136873,-0.0566777647257560718285774,0.00866696907880792552503202,0.0289769207061659483937177,-0.0144576340706297767901845,0.00568837047318086503483459,-0.986350001025351641459338,-0.163924638398082495038821,0.216459006679452781174433,0.0723499287161943616109028,9.52184086195907575245201,-0.00973230331837168782804781,-0.0159644602471269957122413,0.031550201281847913004075,1.07419964946046775366995,0.518441615627065477411861,1.12869942615270235641844,1085.15148498178882618959,1073.84222060700562906277,1076.93153080829847567657,1080.77079241855835789465,518.057993275499143237539,-188.212217445838547291714,1078.07477760827646307007,529.762317410324953925738,154.102581494046830812295
3.70750000000000001776357,-0.119425156249779271244726,0.999976146900968476671778,-1.10417917712744251268475,-0.0547453493230815393943978,0.0116886332418532652016596,0.0247150641090262412902234,-0.0144445732878490315509445,0.00570163488764783860790475,-0.986351513184817063617515,-0.163916472707453908519426,0.216746748381749343437264,0.0760506015217405073602919,9.52718074888794319576846,-0.00936319465436315744033546,-0.0156150138484136089683796,0.0308933020820040087073277,1.07423980109646755032315,0.51847478771696409172165,1.12877458619444359655404,1086.66753990715824329527,1073.60947976125930836133,1079.59775323179201222956,1082.10266919412720199034,689.096306675370328775898,60.4861664818612680960541,996.3493885829606142579,503.040121841251504974935,154.099958968736103770425
3.70999999999999996447286,-0.0265324168207599075941516,0.977112043893470616495733,-1.2190170006663345603215,-0.0524695744781903811171375,0.0146942676292453906078395,0.0203294975111615074114813,-0.0144361963374625128925244,0.0057083084695213909959266,-0.986354004224781588661131,-0.163902138721110063324105,0.216759901597994686373028,0.07857347195175698462144,9.5319262588013877746107,-0.00898976843648051186785874,-0.0152378075719726766013018,0.0302594748819709630227592,1.074283263699182811024,0.518512211974019976423733,1.12884442501311887951942,1088.59696651516560450546,1074.14465143941492897284,1081.91327775121317245066,1083.2859930277645617025,895.523790569287484686356,432.222872907878013393201,891.177778732499859870586,454.515975362538142690028,154.097388282794753422422
3.71249999999999991118216,-0.112468775916171659368104,0.900432403239740719591566,-1.21710016121004560574193,-0.0505452019197341131939716,0.0175688769807966146951905,0.0154742321526656050750814,-0.0144311241623178345555578,0.00571610921435898762521521,-0.986357096132093436047228,-0.163883741636753371695434,0.216492036962963485535738,0.079714045738418157216465,9.53608263492046859255424,-0.00861182160246730388220016,-0.0148364369258905184900676,0.029647051758720097819344,1.07432784764474287264591,0.518552032025478726318113,1.12890957493469223926752,1091.14515886000458522176,1075.77059412579865238513,1084.05364212545441660041,1084.37524907093984438688,928.46267272422824134992,747.367539959684563655173,665.176873072246621632075,334.728190044150210269436,154.094365254487627225899
3.71499999999999985789145,-0.325978743243436841492411,0.809843632419263048660696,-1.1197844066011626296131,-0.0499397230663263524963469,0.0192428674499663596164645,0.012105602259272929543954,-0.0144198816552977403943059,0.00573267766892573190501414,-0.98635979196651757394676,-0.1638678342937126553025,0.215787051640543903197056,0.0792666115508268848133255,9.53967181172190237248287,-0.00823017672678083220261236,-0.0144165692695560534314358,0.0290530695725804387341551,1.07437073773672642218457,0.518590807228218375612983,1.12897286088933612724361,1093.23927987878664680466,1077.88148913921327221033,1085.23916211657433450455,1084.95963397798527694249,775.513288279164498817408,958.071504520902522017423,356.473004653365535432386,175.021000159528739459347,154.091898568941445546443
3.71750000000000024868996,-0.636121831666270898253401,0.706597670494105933869378,-0.961794730053100455080539,-0.0506347100402178840194978,0.0203916623369185534553338,0.00982855665626958599490059,-0.0143932278374321893227306,0.00576528188067904415192722,-0.986361928771041784891338,-0.163855960864322691694639,0.214497029285956264388346,0.0770531096414863725385658,9.54272624433805205512726,-0.00784655116985766634685184,-0.0139859068330855148415415,0.0284732504888198234560548,1.07441041263342662581692,0.518626324766587987191713,1.12903778630480045030993,1095.02272530140066919557,1080.56095164840348843427,1085.8360071487213645014,1085.25035407173754720134,656.485448518106977644493,1239.91003358083435159642,154.628416550611774482604,92.7713619826982807126114,154.08948720355903105883
3.72000000000000019539925,-1.04472620329887888601661,0.574581944466258098813682,-0.750471677229653244545204,-0.053237921314100281056092,0.0215547513729904965940065,0.00857971084941897867148786,-0.0143516563283732547645632,0.00581865234896288777838302,-0.986363566860378626621753,-0.163847566268078670415065,0.212654817159382447666616,0.0729979329883207600504491,9.54528165706143383317794,-0.00746285889008492693552643,-0.0135538121523786411065648,0.0279024209399965639200047,1.07444564660177999115831,0.518657713817538668088503,1.12910552842065126100124,1096.52170712137740338221,1084.08103930711786233587,1086.0123041993274455308,1085.42349078789879968099,415.282132471392969819135,1288.99807753489790229651,2.25030104861621360612389,67.7878406695086539457407,154.08665804045702429903
3.72250000000000014210855,-1.35856118946651149848037,0.453885096939719179243156,-0.582928602033048304242868,-0.0569651273704051760993217,0.0225764073989174925138901,0.00853111666502751400664728,-0.0143008820411500477826072,0.0058895898263650187098861,-0.986364497822038610586048,-0.163843549170478691712205,0.210372466319415640789714,0.0672193417922968133870754,9.5473821950902024724428,-0.00708121787040179740541079,-0.0131305834688815997041145,0.0273350151072818368935824,1.07447555678968909020909,0.518683339100272200461461,1.12917571859247933829806,1097.0991359637575897068,1087.00594203607784038468,1085.84725865396444532962,1085.58929327508508322353,81.8857991513613541201266,1116.46898170654480964004,-98.0369363277098244680019,111.983897465963877948525,154.084354210875289936666
3.72500000000000008881784,-1.58583398071753811642282,0.310786965161037986860038,-0.434366584187337312350508,-0.0619751453874880509076206,0.0237235494310374835091881,0.00844434703100043447532297,-0.0142416254911880701961024,0.00597445474649133546202195,-0.986364446715762510642378,-0.163845686960937098053392,0.207672763352345246534725,0.0598567634533276812791591,9.54908911189324882684559,-0.00670415141094345308492297,-0.0127271765829794630819904,0.0267652701263920364538329,1.07450029328258134242446,0.518702903738962772806076,1.12924754758414835897895,1096.93113611713420141314,1089.66338421565046701289,1085.52211951768890685344,1085.98341027522860713361,-179.027129487352965497848,992.395062896160425225389,-137.355045634242941332559,219.384465388479981129422,154.08210595449941138213
3.72750000000000003552714,-1.71187165561204390762384,0.140439941078309454836059,-0.291812811064091792712105,-0.067388976042618065065426,0.0247797889544329914823795,0.0077172891047026072677828,-0.0141708927572248132714661,0.00607486542724725887831827,-0.986363951548903106214539,-0.163850994114308229354648,0.20453180689512762135962,0.0509635950371408880110735,9.55047837895641293926019,-0.00633426809748745527767211,-0.0123544819941419671549543,0.0261876705621525394940274,1.07452148129467217607669,0.518717924216163361883503,1.12932039440727582935153,1096.20400031632084392186,1091.96791735055853678205,1085.16048342579324526014,1086.68621560202745968127,-391.364099082838208687463,819.963047733717075971072,-139.874033469371426008365,367.871116175282281801628,154.079903308499609693172
3.72999999999999998223643,-1.70262661924358016385384,-0.067700632972834878797741,-0.135094518076482872359634,-0.0726411769609534296865405,0.0253269677128272648058971,0.00653155832095819385840763,-0.014096242252003217051981,0.00618061120924767032347447,-0.986363524543518610521176,-0.16385610697128025203817,0.201093420855285365256293,0.0408749683268780084066663,9.55162918439473429543796,-0.00597332038670759200849059,-0.0120215685485707633045616,0.0255979897795026965778842,1.07454140259132846502155,0.518729434029041591713849,1.12939292263076418443291,1094.97431562172005214961,1093.76319945431896485388,1084.82274935034206464479,1087.82276585610497932066,-597.347546883578615961596,663.936179395946510339854,-136.44313125028310196285,590.358285896685515581339,154.077754772961100115936
3.73249999999999992894573,-1.54361037544359191997501,-0.357957969815988319428612,0.0905389481744768992443895,-0.0782816656997667587036815,0.0251797835581044349151369,0.00515562891263681051523537,-0.0140335469680945325310351,0.00628268878960204675554468,-0.986363088927716957776681,-0.163860398841003368497482,0.197667209061621607091297,0.0299540279577699443402938,9.55262354215263087553467,-0.00562218606910463557929658,-0.0117358911244664545353578,0.0249931609129725208762185,1.0745619160437731576252,0.51873889015822371995057,1.12946262166338362575857,1093.21726258190301450668,1095.28759824753819884791,1084.4782677695418442454,1089.63800703151082416298,-644.863236958885977401223,452.77198839527102336433,-115.732031219706840374783,716.253998610151711545768,154.075237546390212628467
3.73499999999999987565502,-1.307958783573465622041,-0.625180712332238486261815,0.3127866901173315672402,-0.082306249297278533116895,0.0243860010646843698711717,0.00440074785507197415584946,-0.0139810138504131604986203,0.00638435362520919057194302,-0.98636297870402622756103,-0.163861726676028635063531,0.194273278762951973064332,0.0182958143552556067035209,9.55356350026226230909288,-0.00528240363061541554068334,-0.0115036634761492232575941,0.0243706725962995057743754,1.07458245603819668723133,0.518747488566775216689564,1.1295298355096508036155,1091.74999943692569104314,1096.0270593962952716538,1084.24408919424354280636,1091.40403584915566170821,-539.777079159248387441039,185.746603273206545736684,-82.2794414674662135666949,716.425716372256715658295,154.073189306560237810118
3.73750000000000026645353,-1.00080827951099138317659,-0.902580025329137836109794,0.554652410112517868512327,-0.0855446043934475763848013,0.0228995664476420654476208,0.00480926070053623588851366,-0.013928669767122646080959,0.00650014449545651198936191,-0.986363871421151561236229,-0.163856141999298959843756,0.190816919099343063059848,0.00577069219438333669280894,9.55455853426267864847432,-0.00495586575419029121830627,-0.011329532196385770290159,0.0237286894307555430716494,1.07460071945313573316128,0.518755610937381539393698,1.12959612009853227476697,1090.51837718610659067053,1096.21633126390429424646,1084.06687056220448539534,1093.2201356133723493258,-450.188148464818880256644,-42.5971431883652584815536,-59.6290657989771517577537,757.838420264027945449925,154.071190411431132361031
3.74000000000000021316282,-0.602292339149131716879992,-1.22085007506938447718881,0.829562138402252902125156,-0.0879248680839191387725862,0.0203324449402333094771844,0.00708297230749729486709576,-0.0138659652355467028633784,0.00664117597589417279352331,-0.986366607915518001092892,-0.163838930194459164724208,0.187184680833400174382319,-0.00767882644946333431379415,9.55571768981095992501196,-0.00464452223967168082580104,-0.0112157174866375566879562,0.0230664558724167044478914,1.07461596229712608163709,0.518764226233152991873965,1.12966172035820866526024,1089.49905869460144458571,1095.8140736803534309729,1083.94594386524863693921,1095.19322795047605723084,-284.155681151884607515967,-248.90515939223936925373,-20.8533730847197951163707,657.286412419594284983759,154.068846099656298065383
3.74250000000000015987212,-0.287715773267976537841406,-1.4491803592274925538419,1.01524241514285340493018,-0.0884049301478853077895792,0.0173968186318842477078306,0.0102203863196744810376559,-0.0137908479139354986364729,0.00680658910552678440147867,-0.986371645033484734099716,-0.163807434721128575283444,0.183387571141099658955653,-0.0218519603829196926159106,9.55714147588215645612308,-0.0043497503675408904014188,-0.0111615785557358029866926,0.0223846652389076729294803,1.07462952430817160198728,0.518774618692568134648013,1.12972711577438111874017,1089.09759878034719804418,1094.97180546694312397449,1083.96260369678088864021,1096.50656767547025083331,-67.5841414255515502418348,-431.430852466346664186858,44.6953185416087279691055,434.747877421350665372302,154.066935602340748800998
3.74500000000000010658141,-0.0371518285470823772520532,-1.60445135139454864159347,1.12941565715422598259465,-0.0873478054619416244275243,0.0134165395805608302082224,0.0138377633905187244489632,-0.0137075612671944090104059,0.00699190318532890570102367,-0.986379768717759786156307,-0.163756658488124734462943,0.179544519207535502314244,-0.0364615294523013278027435,9.55891985307382086034522,-0.00407228061074949108238963,-0.0111641497901677679699395,0.0216853944001151668907745,1.07464291769669517684349,0.518789156076019830621249,1.12979157832504362168891,1089.16113798747369401099,1093.65691941802174369514,1084.16942045795667581842,1097.36696733758276423032,118.725432912608795277265,-663.496601366628510731971,151.367792571230495468626,273.401493861871529134078,154.065066925892210747406
3.74750000000000005329071,0.158203975764503290690755,-1.6669818317103555216363,1.17400404843441430458029,-0.0846935533765980907983106,0.00759646388733121753072952,0.0179091094410868817421445,-0.0136197339185512474035722,0.00718820643041932945405126,-0.986390523433065102842932,-0.163689349961015945256193,0.175748813528570524411521,-0.0511397307678652379703266,9.56113538455850964226101,-0.00381213839753790674491629,-0.0112186727827346365005123,0.0209721702323800891776262,1.07465693135751561015923,0.518807548268859552997867,1.12985359679487462614134,1089.69122594491022937291,1091.65432246011005190667,1084.71944265963702491717,1097.87357514477957920462,250.079699670828517810151,-779.45288033380916203896,261.063030065366660892323,113.921374544409147233637,154.06286934010589106947
3.75,0.235051038891942704056603,-1.59599720723945193157078,1.1387935447114985176853,-0.082100279481747195919894,0.00233339157471324680839797,0.020910269396839254590903,-0.0135260658302307299610812,0.00738976351182698068531529,-0.986402864057124184604675,-0.163612132273836335949468,0.172009636391314890691007,-0.0656016370957341610203883,9.56386147046699441887085,-0.00356879512153838920202054,-0.0113194686358154342209481,0.0202497802964462132735424,1.07467206168432238833077,0.518828736834432646674031,1.12991246486439744778352,1090.41153648582780988363,1089.75965501635278087633,1085.47473560828348126961,1097.93657421030479781621,318.93202079082357158768,-768.491807052731019211933,367.694207475923235506343,-15.6115385656906848765857,154.061073055699438327792
3.75249999999999994670929,0.259948572193699600774153,-1.39266942022946471624323,1.04118587613207802533566,-0.0807186298007118024910866,-0.00267437103459412881673041,0.0235842638793853087708641,-0.0134352203360093985784474,0.00759171138312206023740503,-0.986416126911911272934219,-0.163528520062337062723756,0.168523900719746100307361,-0.0795622175413476795391432,9.56714894233810575485677,-0.00334079707448639053046779,-0.011460198192185392165876,0.019524326036913189352795,1.07468902502288887745863,0.518853386652700199199728,1.129966445082059234295,1091.2858860488643131248,1087.81186342484647866513,1086.55791369701660187275,1097.79551745195112744113,356.872808674878228885063,-760.697092914522613682493,483.665254982280487183743,-58.9748688051271372501105,154.059310870514167390866
3.75499999999999989341859,0.288980163827024738587568,-1.09373063808176751443568,0.903372480546999701012112,-0.0811184904171320664278966,-0.00700909369416950148862222,0.0259877696637974692217554,-0.0133605174621237408894014,0.00778007165787376539500819,-0.986429357121585193013402,-0.163443897570040380662348,0.165544102110231072799706,-0.0925643934757703207294455,9.57103215021152919916858,-0.00312613803269697889883338,-0.0116340770066730159193469,0.0188030184277659488667478,1.07470738229461537649456,0.518881127636601990893439,1.1300146700874591498831,1092.19590052920216294297,1085.95616955178024909401,1087.89306188319483226223,1097.64169986627916841826,356.270708993427945188159,-692.200930845136667812767,580.981505032111158470798,-27.7782162099792344633897,154.057575685886860128448
3.75750000000000028421709,0.377941654638445978520167,-0.717761703934068240329225,0.732030765262108529256579,-0.0825997794517932260038862,-0.0100737405484690040191609,0.027904822205869105750109,-0.0133110302914817655445257,0.00794467276551155156261164,-0.986441505780790706126027,-0.163364510979128629841739,0.163249420579073489800948,-0.104253228328593308682493,9.57552985797676470269835,-0.00292271231563287188850997,-0.0118349254918488355770023,0.0180932955508428354451933,1.07472570294264824219965,0.518911004805818754093139,1.13005749081511042142267,1093.06723959383157307457,1084.35085877062056169962,1089.4628212221773537749,1097.65662637090122188965,362.267194913168282255356,-623.032677699987971209339,718.100951246648719461518,81.5451966569925872363456,154.055872063662462778666
3.76000000000000023092639,0.590629155364518210191704,-0.248393192486190766965493,0.5071720898038147851139,-0.0834851748848012970016796,-0.0115016813795408047449431,0.029486396316727669919544,-0.0132853234790083554739404,0.00808659838014359234892314,-0.986452500215300620567405,-0.163291148094794724698886,0.161648031612931453171456,-0.114540823892216855894866,9.58064499303096894777809,-0.00272867565362503068648881,-0.0120577264286908913265561,0.0174020399435745078131621,1.07474244324012646600863,0.518942613819811882081012,1.1300968554963597423324,1094.00723650376812656759,1082.84100616328009891731,1091.48356663942831801251,1098.04942584956415885244,323.363574998036312990735,-474.268221964176632354793,741.722193460616267657315,219.495827303540096409051,154.053863626898021266243
3.76250000000000017763568,0.853442588488311670857911,0.099310181413400602790098,0.316608839751653103888884,-0.0825313823254854306288308,-0.0104875392797388940907544,0.0302448492162361963486727,-0.0132788184322578869944742,0.00820300525626414984980972,-0.986462238201515462243663,-0.163225406901804842574322,0.160668173663413849094894,-0.123293967514774602256544,9.58636497558156897014214,-0.00254197294717502068894799,-0.0122981976710603187197268,0.0167355843299302441129495,1.07475727792494524237554,0.518974402823441649523772,1.13013497396650763882064,1094.68405746882172024925,1081.97951766079972912848,1093.17143218948035610083,1098.75410550741889892379,246.558621921763716500209,-259.805139089126953422237,653.802039494999348789861,357.24217655138852478558,154.052219947800523414116
3.76500000000000012434498,1.17984824424604828330132,0.342169655796492278021503,0.13456614910136796559037,-0.0796653921157909339356706,-0.00784143624652327772550642,0.0305594010840184449051549,-0.013286152113402232774475,0.00829573462021991961390377,-0.986469924537228481931095,-0.163173127863195849274192,0.160229482845507753552283,-0.130488258823061309410463,9.59265756575738848255241,-0.00235992981019384926930083,-0.0125530450667895327604429,0.016099410177388574078039,1.0747715137998770096317,0.519004479217302971960635,1.13017245768207130751648,1095.24002961337691886001,1081.54198046783449171926,1094.75257683690324483905,1099.83563673232106339128,211.701477382216552314276,-100.50205511875206809691,658.976521297031922586029,537.978768301138757124136,154.05060815616579361631
