t,ang acc x,ang acc y,ang acc z,ang vel x,ang vel y,ang vel z,quat x,quat y,quat z,quat w,acc x,acc y,acc z,vel x,vel y,vel z,pos x,pos y,pos z,mot 1,mot 2,mot 3,mot 4,dmot 1,dmot 2,dmot 3,dmot 4,vbat
45.5925000000000011368684,-1.1049761954323378265741,-0.71366437996050846592766,-0.149409545398584336917125,-0.00719205836589361779259688,-0.0307341357807833885640303,-0.0136324278693499140180379,-0.00748961020379920565381848,-0.00531368921751030134914551,-0.624533115778375891302687,0.78094367474058434819284,-0.0190329148085475186036319,0.0212374218784825430361707,9.85303545776582723192405,0.024172511310043186261165,0.00818472918795407934633435,0.00446405295520927759833629,6.34703634406404404444402,3.79440941624405247978302,3.94412364069396126353695,1106.57601384785539266886,1113.03976155435361761192,1097.64628706307712491252,1103.7395896305631595169,723.428332923297944034857,-337.630530503963768751419,1258.1041092476953053847,38.1838657034570019277453,155.556600938359821384438
45.5949999999999988631316,-0.775681126894145145378445,-0.352916685534218232955794,-0.164428305866215346275894,-0.0093433856789005599596809,-0.0313400706200153075786652,-0.015596786737671414907469,-0.00753251632289147089044379,-0.00539496221034832003360382,-0.624598734996498650140495,0.780890209908211896383534,-0.0191688016751975220941517,0.0188390846967973202286117,9.85240422263005122260893,0.0241112793252800002019587,0.0081129489373844079769249,0.00458992180984171653512771,6.3470798298651800450898,3.79434935507331472237524,3.94413398482535892952683,1108.30103082917980827915,1112.04696755033728550188,1100.83384032805611241201,1103.81634178602052998031,710.69338001502751467342,-521.870214124243375408696,1336.91363034076675830875,1.82454892919756606062265,155.55493808022629309562
45.5975000000000036948222,-0.386719724164800493504401,0.0566714222327728001094016,-0.0685029534047661703421994,-0.0105879766332176578069735,-0.0314410222260569915952999,-0.0179043852483328179425737,-0.00756958702361525993806968,-0.00547119165010551741085143,-0.624664855188931888996251,0.780836436229413344278782,-0.019369325857408137281368,0.0167048453447763006751714,9.8514387272596763978072,0.0240351302369458605379116,0.00802622403732053402158897,0.00472300101512489623606372,6.34712421707387353109198,3.79428557274714073344057,3.94414492171977260071003,1110.12948074793234809476,1110.4304104837310660514,1104.33085521478437840415,1103.74871237520915201458,633.192156500257510742813,-662.479201533849277439003,1170.94293401040999924589,-61.1726454927662359750684,155.552842133452145390038
45.6000000000000014210855,-0.10165619170971156026706,0.374803231840730832757913,0.10587447792514777245021,-0.010913697236999482520492,-0.031104264323884325132985,-0.0192211240356756386804538,-0.00759703173596471947187636,-0.00553508841995942885150228,-0.624724553850207642291537,0.780787977206505834359973,-0.0197596375045937522330064,0.0148316069093585023441761,9.85011475314064988140217,0.023941897667672427940655,0.00792556273372990553738315,0.00486227169883689507717817,6.34716686287188380788393,3.79422009437955232158401,3.94415648932402884696558,1111.46699161168271530187,1108.73457154266634461237,1106.68855499811115805642,1103.51047855855654233892,507.920425742084205467108,-729.606200559400917882158,779.763927056937745874166,-130.961827881202196977029,155.551015312488033259797
45.6024999999999991473487,0.107908004259074791209017,0.665338127175745142061203,0.352870160186361858656312,-0.010316392523497190658599,-0.0302644759356385517623522,-0.0195462195384945858211978,-0.00760982840469447661957414,-0.00557795074119449632576995,-0.624777533643604887636513,0.780745181120998221757645,-0.0205002180230076935796291,0.0132113046146442592032599,9.84841354593845252907158,0.0238311489345437478581946,0.00781361759036568528924427,0.00500651956824008526752978,6.34720615736010085328189,3.79415639207020749523736,3.9441680292845289201864,1112.66908287664045928977,1106.78237948093737941235,1108.22967485006552124105,1103.09390323580373660661,511.791912895807513450563,-871.168450923787531792186,470.114955066433651609259,-203.068518154155555066609,155.549109265828747084015
45.6050000000000039790393,0.24077427581295951508622,0.971915348678202506427226,0.680268611520415400484296,-0.00829945967229051527469519,-0.0284290418066856370726825,-0.0185400132429865832639493,-0.00760617284959146620904047,-0.00559763344013915892238842,-0.624825766523519732231762,0.780706504968029069146951,-0.0216118340409333087315247,0.0118589440170665805229788,9.84632072115970302661481,0.0237043244143071429874681,0.00769412044280778830568357,0.00515387370679483251822983,6.34724205064073832005533,3.79409599348178749878002,3.9441800381212588355595,1114.02595117616306197306,1104.37872928804517869139,1109.03912977344452883699,1102.49513596778524515685,487.36198420472271664039,-848.186447047076285343792,135.992079721721438545501,-209.768306320967894862406,155.546734791859705637762
45.6075000000000017053026,0.242597424689266288888589,1.17880606701056378504688,0.931300791395168858777254,-0.00600744913086663414464317,-0.0260211638287122411228314,-0.0164292839068326847196122,-0.00759147438255536495532727,-0.00559421353447933211028298,-0.62486640901378254220333,0.780674169603425394114993,-0.022995942297183546987327,0.0106963447249553839091263,9.84382679892319423231584,0.0235644691975161225949709,0.00757101359869135660807249,0.00530195201204437457920271,6.34727416976186109565106,3.79403895291957926616533,3.94419381404966484794272,1115.10589279766531944915,1102.54144724569982827234,1108.9096352486744763155,1102.04506170419836053043,413.051275401733676062577,-648.818100700099307687196,-177.383731632996727967111,-132.126180391134880665049,155.544686390679004261983
45.6099999999999994315658,0.144026863966748130962969,1.31435167708586431167816,1.10159996354407740959402,-0.00414743715441566636326076,-0.0226837092005207005551704,-0.0130779253948791404638108,-0.00757202954091480088388844,-0.00557538964962457639362725,-0.624900085760415557878389,0.780647553552845541169347,-0.0244303222235152661667712,0.00971683197246699104088208,9.84092935363251619662606,0.0234155367829471001972497,0.00744865434916263183251495,0.00544785036415896314204721,6.34730294605112543848691,3.79398413037927006996597,3.94420924016411866830367,1116.09120755316985196259,1101.13463878454763289483,1108.15221111528035180527,1101.83450506583017158846,383.69210303274866191714,-473.256946403702215775411,-412.499153805872992961667,3.57896177410838101096147,155.542569052655011319075
45.6125000000000042632564,-0.0432502059417749426528665,1.37246813406358247888761,1.15715727684982927492285,-0.00341528380704623915967155,-0.0180056339921935357195615,-0.00819141396410960620499964,-0.00755255182271250859182832,-0.00554687856027845198336745,-0.62492461151219869108786,0.78062831734963700203167,-0.0257492881678955121138586,0.00890459057533039832765809,9.8376356960218789282635,0.0232619352447423349827815,0.00733099664494027154076905,0.00558883160592148816453451,6.34732845369139475621978,3.79393174423575940679143,3.94422573646335150598929,1117.02435331283004416036,1100.17516251368010671285,1106.84713947964405633684,1102.06295651306891159038,271.945179370638470572885,-212.365495218619372508329,-496.927440314785144437337,183.83571770077341511751,155.539952221578573698935
45.6150000000000019895197,-0.209313521454190493154002,1.32488267190424169328367,1.05492905579341900157431,-0.00433563377603791034325953,-0.013942015086849399510549,-0.00393118710940084867266897,-0.00754142655697797020114548,-0.00551300873196869292008904,-0.624936456735552980923387,0.780619176035612261088659,-0.0267705152388378886385567,0.00816235861171890619836233,9.83396174698570035843659,0.023108116134228341709278,0.00722126534760259355949508,0.00572235613771544197186936,6.3473510364025669261423,3.79388167699056655379763,3.94424224345890817033933,1117.4509334500237400789,1100.07281130845399275131,1105.66757391370515506424,1102.75368365433450890123,63.2326421987847737682387,103.653918074818335526288,-447.323058463368681714201,384.204936570753659452748,155.537710695541363747907
45.6174999999999997157829,-0.33067476243139232172652,1.17962313593079337614711,0.794097677245124256018016,-0.00668860927862518616499043,-0.0103767429361727361175616,-3.2974211634046184278557e-05,-0.00754058755232058734035983,-0.00547801792025920733508748,-0.624933366072114138134452,0.780621891800684419848722,-0.0273994223108657009024824,0.00748454838278750367308589,9.82993504867352108078649,0.0229580701859403296660744,0.00712187949652183863169519,0.0058462340386235779263191,6.34737210376967997405018,3.79383342899034348150167,3.94425785063979317257576,1117.34051652382368047256,1100.69343210405372701644,1104.61052418732924707001,1103.98398119592093280517,-151.694932824558861739206,353.116708192922601483588,-384.917318574421130961127,567.108204972843964242202,155.53540885611116095788
45.6199999999999974420462,-0.387707392920434268379637,0.963928051994656143186546,0.419078201399717020780855,-0.00966175704874651201936597,-0.00770274479631252728673019,0.00309172729297567871684094,-0.00754857192874654366054887,-0.00544462031550760772874442,-0.624913374601147597608986,0.780638040639847763380033,-0.027613289873645890937226,0.00689416409046157696582924,9.82559410911823860601544,0.0228150259167716404351545,0.00703414057777128082921125,0.00595853602686584934294833,6.34739266108251420916986,3.79378648512436011941418,3.94427284947413880900058,1116.6924587859016355651,1101.83839484941699993215,1103.74298732083479990251,1105.58922467919614973653,-394.997429645243585127901,553.41492798924150520179,-299.051785169314655377093,695.229996885799550909724,155.533058988486089901926
45.6225000000000022737368,-0.362883717028841534801842,0.681168839769539680162325,-0.0474660586324989058892854,-0.0121266611033170688266347,-0.00588322801786011172209268,0.00461593118612209536710811,-0.00756831970914120712862205,-0.00541909685527758831768974,-0.624878576805535712601625,0.780665876890742738147821,-0.0272859938644660626749783,0.00638795410376857830669906,9.82098550302052686333809,0.0226812898412999258690448,0.0069583547884472579311832,0.00605708748994461185222171,6.34741432304131425468086,3.79373876687025912701756,3.94428785172327378560908,1115.36552937559645215515,1103.46050674400134994357,1103.11526526148190896492,1107.46013118035170919029,-725.367526885012921411544,776.703867448953246821475,-236.238028990571478971106,820.672227317062038309814,155.530653465932005019567
45.625,-0.268107513623308924000099,0.286812948968893088874665,-0.627726700885919197681062,-0.0134257626328291163053663,-0.00427441319898163966939375,0.00350517550048476660834451,-0.00759652638608789877727734,-0.00539892693834153475362925,-0.624834665400744726504456,0.780700892200388518737952,-0.0265074531678771152520824,0.00594983114836633575350788,9.81616804009512833317785,0.0225580671824792099167123,0.00689387973314546913944367,0.00614011115242918924239657,6.3474372792697062450884,3.79369128783561526674362,3.94430314609324383923195,1113.06562115147471558885,1105.72191418666375284374,1102.56179717588133826212,1109.69258581578355915553,-935.241493795670294275624,847.091782206732318627473,-188.026305781102593073228,768.087371643667324860871,155.527705247977849012386
45.6274999999999977262632,-0.169788802467223609582447,-0.0707481809956452267762472,-1.05896957532390145750867,-0.0132872984628950741720077,-0.00374624405529137968415276,-0.000104663570301791967326333,-0.00762982322214242857094657,-0.00538301130481285815959636,-0.624790533867222608321867,0.78073601091389066564119,-0.0253494773800819750420033,0.00558349693490120535521726,9.81120946331643573046222,0.0224456889356779744348902,0.00683931563927261086666132,0.00620563736711272732893274,6.34746170349282046174721,3.79364567072880376485955,3.94431881698868824770443,1110.68932190662235370837,1107.69596565503115925821,1102.17513373257725106669,1111.30056803856655278651,-1003.18278123566938120348,771.356805287328938902647,-161.713680480997055610715,544.208836126102937669202,155.52519896767009299765
45.6300000000000025579538,-0.0898084294612214312225618,-0.434744279135935718372252,-1.36814596315816672245091,-0.0125086772487938112374817,-0.00440654488297157354709244,-0.00537931011666812741028876,-0.00766718915016343770946206,-0.0053765722889586690935726,-0.624757414738211003246704,0.780762215624560385052177,-0.0237599946047475085730838,0.00533709298700686673999627,9.80618454801569328083133,0.0223436577799611922612311,0.00679274823031209874779623,0.00625128049370826666120138,6.34748870504254902868979,3.7936009890919732967518,3.94433563851774193764754,1108.0497072452938027709,1109.57869821310237057332,1101.75322877347593930608,1112.41362999641546593921,-1166.45474133378570513742,773.73134884307069114584,-213.648507360521591635916,347.105641679176869729417,155.522643513560893779868
45.6325000000000002842171,-0.0412030490413445929509528,-0.849516005640271520960027,-1.56121822920807229451157,-0.0113688435961332504064991,-0.0063968914110995511376756,-0.0119753242996536654607631,-0.00770713635184454813609189,-0.00537653298501498694977885,-0.624742670592800308781989,0.780773642008429358263299,-0.0218212746004921298581536,0.0051675867906446210087168,9.80117661031195730458876,0.022250531255275408926142,0.00675166564109613148714217,0.00627502582979933345996848,6.34751821580739150618911,3.79355611458426311699554,3.94435401914511718501899,1104.85704819995044090319,1111.56462239924849200179,1101.10689119577409655903,1113.03609624696332502936,-1135.34297109129988712084,666.212549536309097675257,-268.060250171100108218525,108.504640751524220831925,155.519522453723539001658
45.6349999999999980104803,-0.0438335889216321730743608,-1.15638358186360945545346,-1.5773714060110315404728,-0.0108947586116652488791301,-0.00892189751102332589960398,-0.0167869048326722315744863,-0.00774613391523822514966868,-0.00538380799406256924100056,-0.624748107506866157123682,0.780768864716870236719615,-0.0195800515831806576372287,0.00511611943231013444055577,9.79627539727899865340532,0.0221641216272147403842929,0.00671338482112364756670964,0.00627489862116369871009036,6.34754990510402539172219,3.7935101971592364300534,3.94437348065719950440666,1102.3729923898424658546,1112.90976096078088630748,1100.41292752262165777211,1112.95615320017259364249,-916.515745484443414170528,465.253372662244430557621,-309.355192375393016845919,-136.669348745202228201379,155.516877760196649660429
45.6375000000000028421709,-0.0815116701387132158718174,-1.40116132117395419953709,-1.47295004525188200084074,-0.0111904341326362656572346,-0.0124010698181143685925321,-0.0204525553084044797724772,-0.0077837463207613942495211,-0.00539897318772986859608531,-0.62477194108916600523429,0.78074930672873399384315,-0.0170499920270041904757363,0.00517669955747623866670892,9.79157445696696626669109,0.0220816688765431944074802,0.00667542347428848673041024,0.00624926301919714616978085,6.34758293245215199362974,3.79346239624343040119925,3.94439454421120405669399,1100.27446947252587960975,1113.89088926256090417155,1099.56011523389634021441,1112.35274950323696430132,-799.498556834987766706035,350.371392320178472346015,-397.619739322750604060275,-344.969567720096108587313,155.514189435308196607366
45.6400000000000005684342,-0.151286215612406405028878,-1.60377269090080742941495,-1.25420741786633804792928,-0.0116129294495788126795333,-0.0171668377136104076396972,-0.0237507148253745942190207,-0.00782477708219936861355759,-0.00542490618693865656735342,-0.624812001036546660337478,0.78071663402444735346819,-0.0141445066793413620764852,0.00529613647653956465255476,9.78716820545792742791491,0.0220001555297019112111823,0.00663591125774762834177434,0.00619689446481760421170382,6.34761679961298863617003,3.79341125756256758450036,3.94441783038611415435071,1098.37549960566548179486,1114.6616179223826748057,1098.42482882600688753882,1111.23130536157123060548,-576.496356221220139559591,221.724912554802102704343,-415.150073777990769485768,-440.071058301591676809039,155.510915043947306912742
45.6424999999999982946974,-0.219833015823073713024272,-1.68803500798271421956542,-1.02408175963303382793868,-0.0116829117547974144913914,-0.0213537432668326858375973,-0.0259214065983245055269091,-0.00787154588422278589376901,-0.00545811436939805730284014,-0.624864989969057482710468,0.78067348565336980303897,-0.0109042426664135438940662,0.00538556731254789811114136,9.78315316002095514136272,0.021916641142066345393502,0.00659364400672883283621717,0.0061177735904322343152284,6.34765072719671330503388,3.79335649781161876603619,3.94444302622505205135894,1097.39198769142240053043,1114.99951382533390642493,1097.48436486500827413693,1110.15239421173100708984,-258.630825188951803283999,79.8361961175533849655039,-342.80428861380386251767,-415.759804756286143856414,155.508147484563863827134
45.645000000000003126388,-0.284944653956539784012136,-1.67961205958090031842289,-0.770754982406308020159713,-0.0119521175307227556228185,-0.0257869623564324634834577,-0.0276235883288200034790805,-0.00792388375670160551023091,-0.00549679691544833343153087,-0.624928414049736646873612,0.780621876076475040839853,-0.00737427575364313359074231,0.00541875558181159622250789,9.77962465177028761331712,0.0218288705591448799203658,0.00654822741414539527537997,0.00601306330414357655816948,6.3476841426134607004883,3.79329829041321353599869,3.94447001749066705755808,1097.08234547972006112104,1115.06079890297064594051,1096.7108073829369914165,1109.15250633778873634583,-10.3150028778547468988336,-18.9629752203375865349244,-255.387262010077705554068,-357.29557100144029391231,155.505341207829275163022
45.6475000000000008526513,-0.332208232863435481974079,-1.59483131824224977357574,-0.511574285987097754357933,-0.0128938968355292640083354,-0.0303415266907375962002202,-0.0289380044254718242491276,-0.0079788126682347419033059,-0.00554373172118916013317858,-0.624995099501481576886874,0.780567565502818694334053,-0.0035660005928060678481728,0.00547052846028359129881835,9.77667408942715354669417,0.0217359456770980542794636,0.00649966583015490137476,0.00588529077657595593719986,6.34771675068645713224669,3.79323756436215653309318,3.94449769401291394643749,1097.34041267703310040815,1114.90469894923216997995,1096.20742855495723233616,1108.3659163567228915781,235.381979680674135124718,-117.456141440713921042516,-109.894831459141542495672,-240.376911433659529393481,155.502504033377817904693
45.6499999999999985789145,-0.339061671376246431819368,-1.42650026133808038864004,-0.256469938882088688281158,-0.0145505680271248612200896,-0.03451847907564987300022,-0.0297639396398294182877198,-0.00803035207251119771687531,-0.00559613911734706606648793,-0.625054416053113071072289,0.780519153387204567273727,0.000384311891210992184753081,0.00559505613317345940060932,9.77438814566358971092086,0.0216386448844159799687059,0.00644816698677752771218241,0.00573897546872361406788965,6.34774725949906670763312,3.79317707052088914920773,3.94452376263374571152553,1098.25925537812236143509,1114.47351819576761045028,1096.16133322564178342873,1107.95062178062153179781,541.127093317705316621868,-261.65342838526413515865,101.480547648400644789035,-90.7438094311591640916959,155.499631037835683855519
45.6525000000000034106051,-0.287282643616013466658643,-1.15058525867363625749817,0.0333034118028697340152533,-0.0165108191791549126226091,-0.0382101396630896913975128,-0.0301213989111965389777748,-0.00807670627880513816720942,-0.00565221605199894751997425,-0.625101285937634032485732,0.780480743233092244537374,0.00440272818359027651169413,0.00579699847740514084826202,9.77284357557105387570573,0.0215395223047777049918405,0.00639439376778313563198797,0.00558018319584558178392264,6.34777507798940821004408,3.79311973491946119452223,3.94454555610455992464836,1100.04604814362301112851,1113.5964318073051799729,1096.71483129319949512137,1107.91219730956686362333,749.783667591535277097137,-387.812594460166906173981,299.265333763679961975868,48.8515564014710648166329,155.496143869120260205818
45.6550000000000011368684,-0.196609142950032705909891,-0.87965436487162274037388,0.252850760421966413993289,-0.0176005730992951393842905,-0.0400566879744050433065361,-0.0298588962924023863798606,-0.00811968254908255332447098,-0.00571916481351131007065947,-0.625136664965363575419133,0.780451495348051915712517,0.00859154344075874210062693,0.00613848554741684704350035,9.77210448375927143160879,0.0214426870102339128809632,0.00633929543192146994351477,0.00541581176759813216758932,6.34780143490142201301296,3.79306614459482371870536,3.9445613553699803155439,1102.00817371608195571753,1112.53445522346578400175,1097.65765989446094863524,1108.19487956262901207083,850.360416623789546974876,-494.833080940902448219276,452.58116665777612297461,144.425866361093028444884,155.493206212417845790696
45.6574999999999988631316,-0.071096904031292901260386,-0.585628303774490710509326,0.438949253182536858197693,-0.0179481680892758337086956,-0.0413611108485823150693328,-0.0289717924185163219763517,-0.00815779759465326027856324,-0.00579273120654582099331442,-0.625160632478831579383893,0.780431384561291130452787,0.0128309215001519705268151,0.00659283878834504566412988,9.77222702052384661897122,0.021353166462198383546145,0.00628346378074975259186985,0.00525387138668576177125136,6.34782697171743848230108,3.79301603168778322938692,3.94457208267191017370124,1104.2978502267380918056,1111.12226640260291787854,1098.97773712648631772026,1108.63432664137167193985,1034.00002856453124877589,-688.57121447332485786319,625.627648790303396708623,180.394522926370456161749,155.490236968926183180884
45.6600000000000036948222,0.0972631860858374774903012,-0.218310292917516968191904,0.611059572389135663428306,-0.0177254077893290659662107,-0.0429190895908435759986688,-0.0271824997983691300784681,-0.00818838988690599560438255,-0.00586436635296314935639206,-0.62517430543361451888984,0.780419604354132712131786,0.0169139641017752306861865,0.00710008364772658773222958,9.77325793491888461517192,0.0212763851349215583896868,0.00622723687171151344538211,0.00510238021299655019474839,6.3478514227712334871967,3.79297045650363706670305,3.94457821200385083670881,1107.17817385890725745412,1109.09159915109739813488,1100.78579813841406576103,1109.09685217726132577809,1037.38994577094354099245,-778.411572560991885438852,667.911286114507902311743,126.617289434560717609202,155.486638389614654442994
45.6625000000000014210855,0.23678810161680063917089,0.0914060124323017725300744,0.704549533960978080493476,-0.0172172957811721275001027,-0.0438642864448316946446305,-0.0252206517104227034842268,-0.00821015021670406033860168,-0.00592503910842543703163532,-0.625181163352444446701384,0.780413450393995455911522,0.0206363490830753226745742,0.00757517910024077534281162,9.77523408647662250814392,0.021217564532541623167905,0.00617078983018385946596185,0.00496848357069532443192061,6.34787486903028952411887,3.79292949854418992572391,3.94458078302899206590837,1109.48479995559546296136,1107.23020853979596722638,1102.31729355706056594499,1109.26741308854479939328,855.35403021968284065224,-741.633169354455844768381,586.041453621406617457978,-0.738343770854715697460335,155.483610432476325513562
45.6649999999999991473487,0.359426768093671133996736,0.385643863102637873829792,0.742764598784294682864981,-0.0163692020551905806358128,-0.043449813292246314277989,-0.0231813349518230453483181,-0.00822494504920475225095977,-0.00596771767934206262551378,-0.625180987220232520229501,0.780413132378791174481591,0.0238569102687799516893108,0.00790915517106674514913323,9.77818295848636509504104,0.0211811547234827882157937,0.00611382737314682296603241,0.00485777118883544845734379,6.34789723367336122805682,3.79289223178659673507696,3.94458131626582186868291,1111.45494401000178186223,1105.38343330432849143108,1103.71600540651843402884,1109.09316045840705555747,746.007311537032705928141,-759.386548048653708065103,564.332235429112756719405,-161.89918191708687800201,155.48055237650305571151
45.6675000000000039790393,0.471062304694301769991682,0.689019193716324251930416,0.728009192935607174490542,-0.0150978814779542565294168,-0.0409058763381405787740164,-0.0210110472409546153449433,-0.00823484665192278364465039,-0.00599433662092882166283481,-0.62517846721180980740229,0.780414854919204481475958,0.0265709642804854428987937,0.00810142144346646941865941,9.78212441134341048609713,0.0211701000345876008679191,0.00605613040728304134058257,0.00477368771171020073867952,6.34791957780722171378329,3.79285640421980074776798,3.94458156031549966868965,1113.21483651328253472457,1103.43327579955075634643,1105.138954734207572983,1108.45791717895895089896,527.555198369648906009388,-638.435776370798407697293,477.340450404227794933831,-293.656843896392103943072,155.476847639834261372016
45.6700000000000017053026,0.524162801746159257021418,0.881798945007380319260903,0.670000316645850912955495,-0.0138180257571995646070917,-0.0374929693227871382865679,-0.0194136785431136792146045,-0.00824185033758721707908279,-0.00600818978266873335997156,-0.625179278487778322670465,0.780414028521426716977771,0.0287931336828774198099978,0.00817026002271900586571007,9.78707461758670227425227,0.0211854556630056423127684,0.0059973286996704237156175,0.00471772745942643581540388,6.34794300316071513634597,3.79282007356438510825569,3.94458367827621758650025,1114.09272000185137585504,1102.19125442247286628117,1106.10270765854079400015,1107.62487623892434385198,227.931185971627144226659,-392.125196321732914839231,350.901906935542569954123,-371.452974367886270101735,155.473730653070532525817
45.6724999999999994315658,0.524965277253231832332858,1.01010928573792724272096,0.569959628836845588750748,-0.0118977420342529782715246,-0.0338656639646368329277237,-0.0178571663656563531241694,-0.00824897640379054948589488,-0.0060166604275651378724854,-0.625183435269405229917083,0.78041055814963433689968,0.0306149943500555465902835,0.00816768426762953803077494,9.79304769801928820527337,0.0212264555204986944680901,0.00593667188061738730631145,0.0046894581650746289605558,6.34796838704134547270996,3.79278205286146663510749,3.94458927280368998324889,1114.35449244313963390596,1101.47264981794387495029,1106.893464268883690238,1106.60065230712120865064,-8.11356189855854204040497,-188.553780441583455740329,330.887186161693421126984,-457.92928849713683803202,155.470581937614610978926
45.6750000000000042632564,0.46117682893958972245585,1.11747313749023358120382,0.407800946449821233308342,-0.00905736605950807106835132,-0.0301978316334623672623216,-0.015928465926877809905049,-0.00825670686494186720216781,-0.00602234542061969631981944,-0.625185043168675402824874,0.780409144968915224893635,0.0320292210663265797254695,0.00812482388134695698855836,9.80006111094210119460968,0.0212906194332153179959999,0.0058731862537758691006351,0.00468735145409248342429631,6.34799533156111372989017,3.79274245864161541064163,3.94459855668385017679611,1114.05215219235856238811,1101.24848552026446668606,1107.75714358935010750429,1105.33522979643748840317,-191.365860049875067261382,14.313821585475988484859,318.991330540730416487349,-442.484528816613533308555,155.466765465590611938751
45.6775000000000019895197,0.36405895030797602585082,1.20164039245441611747367,0.245985233887849680245452,-0.00704537880761051202999079,-0.0279550716876102271768456,-0.0144467082126634015909472,-0.00827072533538937386399237,-0.00602355010047967223685283,-0.625179657881102857075462,0.780413303611513176072378,0.033035941403728757981284,0.00794085333540114901573759,9.80813466994701599332984,0.0213739739013689838964538,0.00580622921525171444695479,0.00470917691832153841730024,6.34802270604545526566653,3.79270122315952207259215,3.94461177673549601152558,1113.39766314288976900571,1101.54421892587129150343,1108.48842092158815830771,1104.38822966303700923163,-315.350061582344437738357,193.101054268975616423631,307.464502733735059791798,-327.19914536453615028222,155.4635524180255004012
45.6799999999999997157829,0.251695330855688848004093,1.32028662789033957025708,0.0757576449189402145734107,-0.00614008375530314919055197,-0.0263474733306471482763289,-0.0137632409906305909486068,-0.0082935265925171645223779,-0.00602599692086224370674019,-0.625168391813507584586773,0.78042207059845170036283,0.0337225380527044205081211,0.00765540338521385199666014,9.81729234146506790636977,0.0214713173484149429104395,0.00573596604454036217840551,0.00475225169436489618124408,6.34805030496056854616427,3.79265670729699033714155,3.94462830700758582125331,1112.47540188444827435887,1102.21399079160846667946,1109.29446610301738473936,1103.69923406961629552825,-391.640361816909376102558,304.167503336570177907561,335.951761372267299066152,-216.058192283768278230127,155.46030444457767316635
45.6824999999999974420462,0.157475361169168520669714,1.48607229033471011092615,-0.0805131096265626206021082,-0.00607264557018857842329851,-0.0248000127114101666381263,-0.0141815868812032157969538,-0.00832116209393057859600162,-0.00603288417197337875630403,-0.625155803529565456955197,0.780431812719040274295423,0.0340735317715525343196248,0.00737596182324511129291267,9.8275658840028370377695,0.0215765425732867138775006,0.00566322350199054396630016,0.00481443505510464799662662,6.34807814333344122559311,3.79260820922864905213601,3.94464693338382721421453,1111.43946133380700302951,1103.06505644255275910837,1110.16817972844796713616,1103.30793870161915037897,-419.778223140987279293768,349.599088486277992160467,356.384248151197937204415,-73.526718915544407195739,155.457026854131385107394
45.6850000000000022737368,0.120595087221549532308096,1.70715315755654395424301,-0.195612637294703295420817,-0.00666260807618429280047012,-0.0226190553530702873064051,-0.0155734980299297703226769,-0.00834530057230690493208503,-0.00604457655363483357946475,-0.625147375388892756475911,0.780438229178162190535772,0.0339918449978058589966423,0.00724177671734979599982296,9.8389938345076508596776,0.0216831734895959540865285,0.00558928374477963164218552,0.00489450027943911028516233,6.348105726642437218743,3.79255739397370383869657,3.94466657666168130091933,1110.37651076874226419022,1103.96198623404075078724,1111.0763873437742859096,1103.33160047503838541161,-454.043767360185142933915,363.292532258852247650793,384.191047266889540878765,106.358705989432721139565,155.453712912283435798599
45.6875,0.174594097168989409452067,2.00128769036500164801851,-0.269830750706550048789722,-0.00797795054050435062387159,-0.0186052690442226713318785,-0.0174311121354175056763491,-0.00836218087919312139111305,-0.00605957034036442351160323,-0.625142949657638835603279,0.780441504235577676595881,0.0334232002332326694205022,0.00729640328797971637886377,9.85161694167267931732113,0.0217849332524298056057432,0.00551536857487787933462808,0.00499214946371997168872436,6.34813182101979389670987,3.79250553370432230693154,3.94468653483869191589406,1109.16924249700491600379,1104.88151910384794973652,1112.08913496478339766327,1103.83973223156658605149,-423.903293238867149739235,286.770802079160375797073,336.562042238244032432704,255.002733544602051551919,155.449693547495371603873
45.6899999999999977262632,0.308259527438668634591323,2.22574642791222743198887,-0.280794311005167496197998,-0.00903264770569515464126997,-0.0136996658815092525046664,-0.0186871050160185604716023,-0.00837482103353076948182299,-0.00607109530139129591197467,-0.625140404361010926237441,0.780443359924598345500613,0.032331550005027659411283,0.00741201510656636086693538,9.86547634385918215116362,0.0218758826081619332792894,0.00544262526065685068449307,0.00510818886911915299997577,6.3481558723178173053725,3.79245272264249067006858,3.94470691460583555709718,1108.25699430254985600186,1105.3958402444352486782,1112.75919755496397556271,1104.60661414276023606362,-344.066451138957233979454,136.326723177692940680572,205.489371603275145616863,352.642223380509335584065,155.446308269378306476938
45.6925000000000025579538,0.51669853089972583859435,2.36585454275979012450648,-0.254990682190801620787823,-0.0089315680266337741516347,-0.00691513622243247663007315,-0.0194640402643193183296333,-0.00838383936217657228795463,-0.00607725802938773561334695,-0.625144850787217598586665,0.780439708523984143617724,0.0307424619962348155688403,0.00755731688300860515727919,9.88061270256292800695519,0.021950401581657352084731,0.00537252383633485090796977,0.00524430569519912341547307,6.34817892123723837016769,3.79239789861569542850361,3.94472757728212952699209,1107.44891024130924961355,1105.5631527197367631743,1113.11658182280029905087,1105.60294334847003483446,-335.702985141107262734295,-8.84546874294303542285434,61.5131491728474415481287,452.987399620356143259414,155.442885702827823024563
45.6950000000000002842171,0.807109467116717604895371,2.37629875879854823850224,-0.207900056518049491938172,-0.00713574202425576453734379,0.00262961733062234536556501,-0.0198803123350816506043071,-0.00839070353317270152537777,-0.00608131408869944187906009,-0.625162696506742276980617,0.780425376914638979641836,0.0287854848115570993716261,0.00774999285231137147178515,9.8970625774735179192021,0.0220034632116913216048903,0.0053062754035323169907179,0.00540299761415844945200426,6.34820238703111261457934,3.79234001751283056336206,3.94474865596948998103244,1106.57847937684346106835,1105.35161290072051087918,1113.06676330082837012014,1106.87155114086317553301,-306.916257280051411271415,-136.065438046294787000079,-105.622259828174378526455,449.410915453017366871791,155.438735659223254970129
45.6974999999999980104803,1.04233127890203913779033,2.23505119231278959190945,-0.173967149439522406062508,-0.00462129699800879062410175,0.0103597639929428192440142,-0.0198887195964595718533641,-0.00839419860576588912348672,-0.00609276998644012451195051,-0.625193790130982418595806,0.780400423532035425466802,0.0266649449665330995351553,0.00812394260726682915230157,9.91485697579013525171376,0.0220310627919667219309918,0.0052443308335532613090324,0.00558758201921603220307944,6.34822738160348887248574,3.79227946998756504370931,3.94476968475070011166395,1105.91432895491038834734,1104.88282552950590797991,1112.58847052365990748513,1107.8499979257330778637,-256.799828495837175523775,-223.590451047379445981278,-275.886343224687891506619,349.436377865552856292197,155.435241794471096454799
45.7000000000000028421709,1.22490417793457218031961,1.95380343324861627252176,-0.162314286104816518641059,-0.00109199606965794176680062,0.0164896111622688870679276,-0.0196790586834795985793356,-0.00839010608715018597891788,-0.00611396888496303601845394,-0.625230963524766925054621,0.780370608077588845397088,0.024445784537094894517395,0.00876928515191338631140638,9.93402149591785921245446,0.0220305113853839149018476,0.00518632696735522608771918,0.00580269263495963340260264,6.34825376665546325938294,3.7922182277996792088004,3.9447892137448912208697,1105.29448023436361836502,1104.23366064548304166237,1111.68733158470422495157,1108.61873303019183367724,-262.372529919414262167265,-287.865563477942544068355,-468.504187468066845667636,276.813906758565565269237,155.431711709271098698082
45.7025000000000005684342,1.34263985651749306882152,1.50798959282750755228619,-0.182313086300488064184222,0.00444607587551378632267918,0.0216667511367564791235907,-0.0193563851879204155970182,-0.00837776345218520235302861,-0.00613672265760437443682385,-0.625269632417375986754848,0.780339649397225887383911,0.0220795795548485718207132,0.00959095236847397336621412,9.95457202774690941282643,0.022000583127916539111224,0.00513169697911498769865579,0.00605409621299645307052062,6.34827984835553227327409,3.79215748578296807380639,3.94480704202770082744678,1104.60246630531264599995,1103.44349771211545885308,1110.2459495863183747133,1109.23406745952661367483,-240.469512721293057211369,-260.195573303244771068421,-561.329233569323491792602,178.080192949553833159371,155.427434796656200433063
45.7049999999999982946974,1.34345439038696956579599,1.09463886728000603376643,-0.22424763693763935523684,0.00941330208764220612016604,0.0243129081616248084174448,-0.0191993628593573571750053,-0.00835815017386819410216692,-0.00616016183190699461585949,-0.625311205958847815544743,0.780306376168002580051564,0.019654278084057230646664,0.0105603462420927052267672,9.97650975247221438735323,0.0219416680294527988159814,0.00508011086497776875869903,0.00634769867469328532422201,6.34830535570849363580237,3.79209728051450856156634,3.94482457738075353859131,1104.09213267075824660424,1102.9326827789680010028,1108.88068541686016033054,1109.50913399493879296642,-178.70934836241710286231,-138.803081849593525021191,-544.740412695222062211542,79.4804859183889647056276,155.423837709847560972776
45.707500000000003126388,1.25563211262924734334945,0.692612928127217974960672,-0.277835052573102425643725,0.0134322826240205125958305,0.0253675864254481256421236,-0.0194438208916881925814035,-0.00832791243545437549766763,-0.00618170506615263112837333,-0.625359736507465679977713,0.780267572502799322542444,0.0171758989210038515160761,0.0116957575766436783215596,9.99982306547936872220816,0.0218556190645580947218285,0.00503127156682568917045462,0.00668979304264646044975162,6.34833050291370248885414,3.79203838120323233340514,3.9448429158789446447031,1103.70891956350010332244,1102.74948230286713624082,1107.52224752284087117005,1109.63146988911876178463,-119.183776767052179934581,2.18132850363760821821302,-517.514140035162995445717,46.02655635132951772448,155.420207888939785334514
45.7100000000000008526513,1.12093136178653174361841,0.331624251693853733247153,-0.32376538155556777720534,0.0162193629728116066324173,0.0253296063747286449852059,-0.0202895790300112836834767,-0.00828521015758231123282673,-0.00620138600498612319739111,-0.625416857744952925379778,0.780221980296467720883413,0.0147045534251707965545108,0.0130248589367489425727697,10.0244832221185475873426,0.0217457673363026619817173,0.0049846073965134811770139,0.00708667087828352380840524,6.34835593103126250014157,3.79198108150775858860015,3.94486160691664977662185,1103.49621378692268081068,1102.94358942148619462387,1106.29311471668302147009,1109.73926677669555829198,-24.007244601965801678034,186.240841074310310432338,-435.143911822192535510112,71.8716143026284726147423,155.416552286748128608451
45.7124999999999985789145,0.968411739931618109622491,0.0407709804753863952475612,-0.337972629718312878033259,0.0177774984987259798696613,0.0245557714512521021998914,-0.0218946638759826769926597,-0.00823121818308761472871016,-0.00621660876296474453756025,-0.625475572723866557467431,0.780175250200359271524064,0.0122880687115571596290664,0.0144944494854929856186843,10.0504437940304356402521,0.02161676961796088827783,0.00493892553719138364953789,0.00754474907830260301672132,6.34838140352118251996671,3.7919262640070545700155,3.94488055322886532749749,1103.58888334049038348894,1103.68068650823784082604,1105.34652796373188721191,1109.99082796063157729805,139.962527486633263151816,461.904815283596860808757,-324.480901278654982888838,183.300744361437779161861,155.412867546231069582063
45.7150000000000034106051,0.804110131034669883831612,-0.224448937781088375675864,-0.299386622797313539656727,0.0189840904308469088368483,0.0234239408226344369978733,-0.0240860168750051534258816,-0.00817269242149765325067268,-0.00621928174538330293813493,-0.625527558040368525382746,0.780134067601310099426826,0.00994777063256577220862198,0.0158944833802314999804395,10.0776397989857695591809,0.0214742182781557655602001,0.00489285608648729487130113,0.00807054325536345901204172,6.34840674206741795160269,3.79187543606288901543167,3.94490003227513819084038,1104.19602642435620509787,1105.25311349790536041837,1104.67071021028891664173,1110.65577049850321600388,325.332326232971354329493,691.918219891986836955766,-155.877135107004789915663,325.027025343813136259996,155.408415248770552352653
45.7175000000000011368684,0.697269482907092785772818,-0.386918342074345389391965,-0.220237693429430420044568,0.0197858904675573682441225,0.0225724871857281156328767,-0.0255831664832293810551977,-0.00811032892415100223337809,-0.00620973964071983540458088,-0.625566717526632287693644,0.780103318046725613399417,0.00774931946581486341685263,0.0172159253120005573123308,10.1059888983632664150036,0.0213242085020761522329291,0.00484544566115948250467627,0.00867022722117305119637898,6.34843216475716687341446,3.7918292663228996275393,3.94491954058344607148001,1105.21554497165607244824,1107.14027760769954511488,1104.56714228819646450575,1111.61596308735147431435,532.917834787652168415661,864.623402908241246223042,66.2353480704189081507138,477.827366276258374000463,155.404682719858413975089
45.7199999999999988631316,0.621295750178327277346568,-0.50905501639642958267018,-0.107683304294026033209875,0.0206197766995840706116816,0.0219026235661368348650591,-0.0262677274986704567538709,-0.00804850534631286820830276,-0.00618931024400769420890089,-0.62558849476156275226657,0.780086605108246566864239,0.00580834659976259271019217,0.0184046738561067790840298,10.1353899471609558702312,0.0211727798035382143437833,0.00479608158555906195774643,0.00934959657607694651082486,6.34845656727793983264974,3.79178781853537749668703,3.94493910296166916396032,1106.860615598292042705,1109.5762305124426347902,1105.00188695064070998342,1113.0449073298823350342,877.869547541837391690933,1172.23790297897767231916,320.601549273096395609173,728.439418404459729572409,155.400932831960147950667
45.7225000000000036948222,0.547224971993473752185366,-0.629695669400223811962292,0.0359920244902000516229457,0.0219439108645144466402943,0.0210483656997657586629202,-0.0258924254353027939734577,-0.00799472790077350968507286,-0.00616432866421568782799856,-0.62559652221463823984493,0.780080887926163812906566,0.00434856877520028994865697,0.0194214357495403611153506,10.1657233932644999185868,0.0210252769867948531568036,0.00474497943115993140589248,0.010113727225914274573948,6.34847962546827826457729,3.79174884855510629932951,3.94495905103887301024201,1109.60489270936750472174,1113.00146712259743253526,1106.17015003456276645011,1115.25816017937563628948,1131.13650334236240269092,1311.65604134868067376374,532.568481722273986633809,879.289378861135787701642,155.396422196482234312498
45.7250000000000014210855,0.479054626730634314224488,-0.716160560998042261537933,0.141712190098058216092269,0.0234436834873912487708925,0.0200672032064821669050669,-0.0247220602343069216499938,-0.00794930772149143177740527,-0.00613840972976406606953503,-0.625598329573861633434717,0.78008009398178057569595,0.00344897295761062427921217,0.0203063556514691823107199,10.1968571403655037244107,0.02088568450300432033373,0.0046929734829016288635839,0.0109672595072198807153452,6.34850132041264725302199,3.79171074843351796346269,3.94497980873603859564014,1112.51629811500674804847,1116.1345107191893930576,1107.66472935925344245334,1117.44135422419026326679,1277.15508226249517065298,1273.01490191114044137066,693.296250898077460078639,921.641390465057725123188,155.392662882867995222114
45.7274999999999991473487,0.379463930822616590798901,-0.786341237115021907122525,0.219153927847585361377014,0.0252478443198193118479633,0.0186364301796047467096873,-0.0232609301583194018336886,-0.00791503818112880563884204,-0.00611207743457963057626126,-0.625600060200246943509228,0.780079262306794585235536,0.00316027087240788873145902,0.0210199096059424661575576,10.2286452637979472513052,0.0207565293300496674089306,0.00464095807680421027635598,0.0119140316296303637455534,6.34852197004597762486355,3.79167245665602603565958,3.94500245829066154001907,1115.99066812067417231447,1119.36654163214734580833,1109.63663128905000121449,1119.86636713169673384982,1625.13930995954592617636,1405.40633334445328728179,954.476011661620873383072,1099.26975241331251709198,155.388915352072956466145
45.7300000000000039790393,0.206110423746021509394666,-0.839409965688296955121928,0.284329363935344026081964,0.0271699168515985717275996,0.0162620772635270680051001,-0.0218320757728777299633283,-0.00789338271416394066104516,-0.00609321434606148459867114,-0.625608003044015426041824,0.780073268412945997063446,0.00362455750786122576911907,0.0216370484139820629110318,10.2609294546555425142742,0.0206389831037576965133695,0.00459005389819570810278071,0.0129566355003475248974798,6.34854323135104436914844,3.79163196384805223360104,3.94502790387279844708246,1120.64199466480863520701,1123.16154238591525427182,1112.43710941756398824509,1122.93770298625963732775,1755.75087906878479770967,1358.19614938571794482414,1078.32241453669985276065,1138.87440485924298627651,155.384448797067022951524
45.7325000000000017053026,0.0159132232245786202351479,-0.846320987665479917971822,0.33044256676086503077272,0.0280800182032847345237059,0.013811718853623485003812,-0.0210892114359023490066658,-0.0078786727638602872814122,-0.00608386865921074077023789,-0.62562493104727867621051,0.780059924138546967320451,0.00479136539206814759950248,0.0222716415265983291860152,10.2935454278340579037376,0.0205328017129232168191955,0.00454131586484726040842119,0.0140970063378423656613725,6.34856570888339977187798,3.79158867516758801841092,3.94505605801081182804069,1124.7694225160225869331,1126.15752237907940980222,1115.02824336173625852098,1125.56073915599586143799,1667.26948968240981230338,1155.83879036963094222301,1063.12435298633590718964,1049.75603448006017970329,155.380766133705520815056
45.7349999999999994315658,-0.21007749765172081812814,-0.80488826181450767727199,0.390861027457807486129582,0.0279936495912064403635,0.011378391305988637058344,-0.0207580005096119624141693,-0.00786880551547306482385036,-0.00608378813538586454140455,-0.625650025149763089338251,0.780039908558859074183545,0.00661125163754811007166268,0.0229504548174060823972908,10.3263216401397670551887,0.0204369504875966702395207,0.00449562386780594496621388,0.0153360818559629338841965,6.34858836890619926407453,3.79154243550352632041722,3.94508660746312189715468,1128.97834211321310249332,1128.94073633775815324043,1117.7527311824908338167,1128.18648315865516451595,1674.38160857319257956988,1082.97086262195148265164,1092.31096683805435532122,1044.64235837218666347326,155.377143008431289672444
45.7375000000000042632564,-0.451761337657001382783761,-0.721827581169965371010733,0.477380373899632726164555,0.0270875257873418560927714,0.00931642572075710821699612,-0.0206065520381443802178101,-0.00786702823284936292314029,-0.00609246759329410553229778,-0.625676417517524563471909,0.780018700483736227013765,0.00909299532197743731742889,0.0236091209121476811039209,10.3590810722169308633056,0.0203502272859110572289509,0.0044535163492589154368706,0.0166736419470708691070726,6.34860997557368733623662,3.79149276013468039536747,3.9451199572192532372128,1133.14133055889283241413,1131.57237669219193776371,1120.48979819592932472005,1130.78395094785946639604,1634.34708917805505734577,1031.07086903789422649425,1077.14276553223862720188,1028.18552150503978737106,155.373583404963710563607
45.7400000000000019895197,-0.695279804645887677949645,-0.592076965284069056671967,0.601943660870591590317247,0.0253438232252724757187501,0.0073806158534873199730808,-0.0203804449158956277332599,-0.00787230779517595659344753,-0.00610244834481962501043784,-0.625696262444156436899334,0.780002658510804192104615,0.0120719723160268299633202,0.0241606949520631331118636,10.3916481268635862988958,0.0202713353526638440094132,0.00441536180356752114284369,0.0181086586073030235410908,6.34862949377243612758548,3.79144102361786217159079,3.94515642846486880301882,1137.15007755910755804507,1134.09609068295026190754,1123.13844501015478272166,1133.32741076618299302936,1712.04064517752340179868,1106.81088990255079806957,1124.89024701387734239688,1103.29828010294772866473,155.37011657872923819923
45.7424999999999997157829,-0.972820391480723301036448,-0.393032654644107692920585,0.784714873379798616426228,0.022349402364124356518138,0.00513991586715160757303789,-0.0195571742610539320295082,-0.00788164912334224886103495,-0.00610857182624746641863567,-0.625707759662497919883606,0.779993293788113439823917,0.015389266780336502415949,0.0245799941117886763808364,10.423848878257999217567,0.0201994188173392277829699,0.00438156744230205289630797,0.0196388521602703751411934,6.34864745422743848024538,3.79138811393302521679516,3.9451974916126708592401,1141.70153378477266414848,1137.10643114169965883775,1126.11424943099359552434,1136.30044234836918803921,1618.98523625793040991994,1110.55310790799057940603,1048.67668811043472487654,1073.91946648042357992381,155.366083144447344466244
45.7449999999999974420462,-1.18571918204593096390909,-0.206488532937944363476745,0.942646346823888925392509,0.0192678358664861194837759,0.00397464476595746091930339,-0.0180400632631729646027097,-0.00789392627398446435071921,-0.00610546410064498421693679,-0.625710768685192264548789,0.779990772460999126636239,0.018900576034101723710279,0.0248090119873290160246171,10.4555126975270074041191,0.0201343646634579258314357,0.00435190070507371091351745,0.0212607681506953860584019,6.34866499757407698467659,3.79133539258606111488348,3.94524472643635704116605,1145.24500374038984773506,1139.64885622248516483523,1128.3818284507021871832,1138.69700809858022694243,1360.3604431387655040453,1020.63600513654444057465,859.642254727956697024638,936.525607583756254825857,155.362840807962271583165
45.7475000000000022737368,-1.38098103046839537633161,-0.0262487508422279414155298,1.06770239764019314598897,0.0159209432337501163856608,0.00409211869452342103664622,-0.0152869945388217180759494,-0.00790459292179128761302032,-0.00609253140429933618543723,-0.625708737427649097639915,0.779992381579700078120254,0.022488951469646634162558,0.0249096125521268765834471,10.486474886477239465421,0.0200768985654753394365368,0.00432575372532901028521657,0.0229699298063079163090272,6.34868401471143606329406,3.79128420484689776515097,3.94529927603543928427143,1148.50333600046997162281,1142.20961116738499185885,1130.41246070463557771291,1140.98307038629036469501,1360.63524413087611719675,1102.29580191733475658111,841.818421197264342481503,973.453121573631847240904,155.359736458706834127952
45.75,-1.60486249811329306780294,0.150248013711591105190379,1.13325217932308919266404,0.0121218800667005233845375,0.00566646984120079775376633,-0.0105020477792286699020297,-0.00791191531472868608831917,-0.00607007129448620865591613,-0.625703730309665528963592,0.779996487307918373588222,0.0260829770114798242808263,0.0249114372241910908556406,10.5165769657197003539295,0.0200286402816951467076301,0.00430174064305040380201683,0.0247612775255043222888407,6.34870583278450695274842,3.79123571133534564836509,3.94536171520830514225509,1152.04817996104770827515,1145.16033523207465805172,1132.59092055669066212431,1143.56427370645087648882,1231.54011745448906367528,1025.17042734350548016664,760.749030539237310222234,916.055155080917757004499,155.356186265086279263414
45.7524999999999977262632,-1.78919457307372908871912,0.251304327757312373492482,1.09550824601979335248814,0.00935787985493683957538558,0.0076490081922763091329398,-0.00580192363816971201639916,-0.00791675159181076497361129,-0.0060393650480351493067821,-0.625691320025028141493806,0.780006630083774021855447,0.0296556864100531170080899,0.0248153766181149898484293,10.5456677230441364656599,0.019991998102761629474422,0.0042777924284960007136891,0.0266296755864652567868944,6.34872959240204703945665,3.79119020893000113758831,3.94543159454989833534455,1154.66103658773681672756,1147.33546330409785696247,1134.21620585732830477355,1145.5633461616907879943,964.421540446217022690689,757.840145363182955406955,618.297385570851702141226,768.053740265821033972315,155.353383980907182149167
45.7550000000000025579538,-1.96517585025519014862994,0.311564811440998568059513,0.964116974610490728991863,0.00631263573787863539743537,0.00919961801333707245020843,-0.00162277944123474945035956,-0.00792127325579004663846927,-0.00599492566125810633775872,-0.625669019945325866061125,0.780024828705872530498766,0.0330814482210723959099141,0.0245134360890074121108739,10.5736059340345427415286,0.0199694090510966273943616,0.00425175659213211307174696,0.0285706980207031113749849,6.34875328617058709568255,3.79114874949854874230937,3.94550716848427418526057,1156.87028766328126039298,1148.94953595889251118933,1135.68240748454650201893,1147.40454240778194616723,870.269640805336621269817,524.422437589423680037726,619.582707047949497791706,778.428585165840672743798,155.350755082389014205546
45.7575000000000002842171,-2.13165514719639137553031,0.369550595879536425414358,0.740125836729722541562637,0.000901342890130792063693721,0.00978769039881282991444333,0.00150790583602114069278199,-0.00793045574245876405683475,-0.00593820987271756733222317,-0.625644572764831652378348,0.780044802977430395962699,0.0363825859400301876434014,0.0239465810354819175209684,10.6002571060046157924717,0.0199634230638370893662348,0.00422243593056147083902863,0.0305803937178786636175154,6.34877658632775698777095,3.79110988534148818374092,3.9455868059426446592397,1159.01238479176572582219,1149.95757549204631686735,1137.31411939256963705702,1149.45548908752198258298,698.465819819237822230207,190.957916011521746213475,588.477296764075163082452,730.652160029813444452884,155.347812563257917872761
45.7599999999999980104803,-2.19470212721044788395375,0.433645721521920435304054,0.545022841706529037608675,-0.00557609589903860624476861,0.00962363044290052115081746,0.00221335000329239695027184,-0.00794235327231796427172039,-0.00587730957296534687467338,-0.625625722170045306391728,0.780060289620049807091107,0.0395968324159178819421356,0.0232600389366883764097338,10.6254967725787299315243,0.0199761144791842752688193,0.00418969643771107801838438,0.0326555029138068109162418,6.34880009994077543211688,3.79107093127821848099757,3.94566976538485469916395,1160.36261676237427309388,1149.90432553894925149507,1138.62479396836420164618,1151.05780320792769089167,452.06804236199394608775,-204.562197648315247988648,533.937480313124638087174,624.170481171949063536886,155.345544953270376709042
45.7625000000000028421709,-2.14118104307880185999124,0.535033765357232127257703,0.394674685620326204382735,-0.0129302624131554036446268,0.0096948247615965092716106,0.00173081540059348668210426,-0.00794848280621998984352139,-0.00581669372021561062457984,-0.625619119870290618656838,0.78006599805008214332247,0.042613246178602320890505,0.0226617387688953508817491,10.6492129026299267025024,0.0200083929695006983162653,0.00415418405876770945039933,0.0347936330455152070806335,6.34882374435546825708343,3.79103090311327006745046,3.94575529539835967440808,1161.27272500357685203198,1148.93476450380421738373,1139.98380679413662619481,1152.5763414933833246323,295.428338987752624689165,-514.583606890128521627048,570.555126776870679350395,595.887746489383857806388,155.343476957659675008472
45.7650000000000005684342,-1.98393771304099320040848,0.669234040838657562311198,0.306767560560610497155665,-0.0195606540904824620363822,0.0102208249892700702571302,0.00108613435145765149444919,-0.00794201792204243459116775,-0.00575673109398326492136544,-0.625625966438081659859449,0.78006102664438392579882,0.045273066483139001725533,0.0222780873599623396863478,10.6713035042850883371557,0.0200603170292646612593579,0.00411668626869128931322628,0.036992785355012387793483,6.34884654495843925303689,3.79098971489432479131665,3.94584347478405694786829,1161.83975845731379195058,1147.33140750449729239335,1141.4775696022500142135,1154.03724194037613415276,152.00908234592316148337,-742.353067452897789735289,652.069010999004717632488,570.837174873596154611732,155.341579766877998736163
45.7674999999999982946974,-1.72205638592385423812914,0.830333822659157561041354,0.301709831043860399191203,-0.0245279664998875289450009,0.0117061168674599327954589,0.000713858222258435880062943,-0.00792219859332919836003573,-0.00569335646997385248085921,-0.625643370367367945839021,0.780047729311133308804926,0.0474245150871282494797754,0.0220743388909119542251602,10.6916755339215328035607,0.0201313658875172246665031,0.00407775246530504582170851,0.0392508769877595517505675,6.34886795661218528152858,3.79094702035748953861116,3.94593519411935389484825,1162.03277041530577662343,1145.2229991665431043657,1143.24415184912868426181,1155.43052736774870936642,12.4023305295786698820848,-964.905390215614943372202,855.260832385755634277302,595.72512579490182815789,155.339893970734067352168
45.770000000000003126388,-1.33379290619797474803931,1.02745391155035226127268,0.376636166976979103182543,-0.0285078279125617825573435,0.0149057119671090823609383,0.000918687406759239200831901,-0.00789051702489309766952452,-0.00562184680586962689380348,-0.625665855237015455792005,0.780030519118412923873507,0.0489368913871156829831222,0.0219670757349297585125925,10.710245963475948371979,0.0202206137809996661092171,0.00403784984496121691910364,0.0415653043040003777885971,6.34888748359721599712202,3.79090367055752341940433,3.94603123495317120728032,1161.90177010996171702573,1142.50688055341674953524,1145.75387376418098028807,1157.01586756935216726561,-95.7731907363232721763779,-968.697825523718279328023,978.393462544726958185493,565.021220025284605981142,155.338121213427200473234
45.7725000000000008526513,-0.98452401394523958444438,1.17612616208401754569479,0.483728332438254859937388,-0.030414000346093473386988,0.0183055872090348778491453,0.00178790626715689027377565,-0.00785389194282192643070672,-0.00553551535944336696448698,-0.625688170527365805639874,0.780013586530913904937279,0.0497237040645795158599896,0.0217535949355735780397225,10.7269418651924048901947,0.0203268771237569527421396,0.00399689962421211509441266,0.0439326631317949883870355,6.34890547581986020020395,3.79086080682197712476977,3.94613276347556496403968,1161.55390446162391526741,1140.37951003892203516443,1148.13611916185482186847,1158.25563346787657792447,-172.359257154696337011046,-761.130799011117346708488,979.940097519811388337985,476.793524840492693783744,155.336855789959798812561
45.7749999999999985789145,-0.640987528189317590232577,1.29687807260087550886851,0.603683401047557133267674,-0.0313509789065016947207098,0.0219756115614371839994678,0.00343350341815945939161203,-0.00781662173119846044599957,-0.00543666332230790562418665,-0.625709500815148311758662,0.779997523117016089422293,0.0498206406427993131469378,0.0213943835962885492429919,10.7417017378529280335897,0.0204489888947372196181806,0.00395534994039020530720574,0.0463483678156457398755741,6.34892365662778779267228,3.79081832282351127716424,3.94624108785083116401893,1161.03997382418901906931,1138.70122655836462399748,1150.65357425177558070573,1159.39983519355246244231,-247.368428402943067112574,-579.406670302500174329907,1075.68409002687531028641,478.826783543655153607688,155.335813309647392088664
45.7775000000000034106051,-0.253455062358607097205976,1.41172529642080224476786,0.725858770861773194837951,-0.0318916564850470554692841,0.0263679942151284485429841,0.00603960266443946940800869,-0.00778017111591161169420472,-0.00532901396108222992487047,-0.625729516399959773131911,0.779982552930972072857685,0.049257880010273924487052,0.0209150371820946978651534,10.7544787654621689654277,0.0205852827554927862718781,0.00391362871723498206844027,0.0488069613169688498732768,6.34894254131360380455362,3.79077646088300612703392,3.94635691990086323599485,1160.31706231960856712249,1137.48247668740805238485,1153.51453961199194964138,1160.64976738559607838397,-272.895393808309108862886,-286.957661518989482374309,972.087661835624430750613,436.302131243478072519792,155.334822469226935481856
45.7800000000000011368684,0.0468048662696057618526346,1.49212551076047095222066,0.789404361869597281931021,-0.032097522986191888427765,0.0297149632386083488444495,0.00834185748212053386485554,-0.00774305442625616759805274,-0.00521934961257933347639204,-0.625741489261031347268727,0.779974043542225325964523,0.0480868462290492681976417,0.0204286716456998224122898,10.7652418179180386914595,0.0207336763067867239918041,0.0038720447448984977520392,0.0513022101490740525808754,6.34896161263250835560257,3.79073524612695766933257,3.94647986429124708607219,1159.67549685514677548781,1137.26643825076894245285,1155.51401256095618919062,1161.58134584977096892544,-255.789959117788185949394,96.6993711285310411085447,672.538312220442549005384,349.878704924594671865634,155.33421474208626023028
45.7824999999999988631316,0.326697674846590291330983,1.57092255267409575125725,0.798474576167429783701834,-0.0320900864088288981235131,0.0324355201010297494734758,0.0105965088390000197748897,-0.0077015954922366484589058,-0.00511503772689726222966389,-0.625739457940129084612124,0.779976768822915333956303,0.0463509723477066315489026,0.0200922137285843432907839,10.7739770434238799623472,0.0208913421053984124653446,0.00383111054972850792466055,0.053827351387084151901341,6.34898027757359617595512,3.79069439315349443475611,3.94660937573306513925786,1159.0381125240207893512,1137.9659735430502678355,1156.87723117309110421047,1162.399160910217460696,-270.169938475690287305042,520.160250448732199402002,428.398102049512999656145,338.693373514351605990669,155.333834116424384319544
45.7850000000000036948222,0.638496668465737826636541,1.66916821563516482029854,0.738460541646903001478108,-0.0315323587689638681896831,0.0354891211357530600434274,0.0132959381503272265623306,-0.00765559114422136033351052,-0.00502541442820564777244075,-0.625725816765691167375962,0.779988750328181934534655,0.0441871890993865146235464,0.0200319813457936479750288,10.7806865419572375230928,0.0210550298299607731300487,0.00379162283637632943969487,0.0563750299036721233547631,6.34899938991653911557478,3.79065259674623655783421,3.94674547790140195502318,1158.32464716276763283531,1139.8672395030139341543,1157.65600307120485013002,1163.2748127173435932491,-245.445937525038914372999,861.013419947235547624587,147.232568501674165872828,312.020737463876230322057,155.333640186980005637452
45.7875000000000014210855,0.869644806134429848576417,1.74219989953247522684876,0.628971306117895312404187,-0.0302178504627583395525381,0.0386724402526278029923468,0.0154975737240016769175055,-0.00760606997039664674276072,-0.00495524801216827310429425,-0.625704273045717851431391,0.780006977550276481281344,0.04168608007487034639027,0.0202906931025818998426402,10.7853915270808169424299,0.0212204871763061291012331,0.00375401221314923538852071,0.0589376384319079890672377,6.34902015304141009721661,3.7906085764781698443926,3.94688866882214073328328,1157.81088283639496694377,1142.2710406427886482561,1157.61339401559985162748,1163.95926459753763992921,-178.166415546618878806839,1097.86545785463908941892,-134.752834043033317357185,279.761997268160257590353,155.333697320891047866098
45.7899999999999991473487,1.05100361863248004112847,1.7734738047907838698336,0.465283186623667133208215,-0.0278302771766432491262755,0.0429774966405235755995129,0.017318496853612131564093,-0.00755753642478403618587546,-0.00490025909838757815772947,-0.62568014828294915563589,0.780027167700209522749333,0.0388469640762385548526936,0.020728856535728493182269,10.7881329333720579199962,0.0213823465327295167415222,0.00371782029611459610349278,0.0615075153243130057223453,6.34904343748479238485061,3.79056191965676436694821,3.94703897841957607184327,1157.4338150850353486021,1145.35656679228213761235,1156.98223890099029631529,1164.67362270368312238134,-119.652947487959579575545,1308.37603598016721662134,-322.111826757117171382561,303.143910235784915130353,155.333980613953769989166
45.7925000000000039790393,1.17328698021964550335383,1.74028032342274774357804,0.269070466793714435649321,-0.0247049649058548072277919,0.0479131180834331468765264,0.0185074093486989887935579,-0.00751495742129571625556039,-0.00486103856442044682945047,-0.625658738866948005430402,0.780045024551927368428039,0.0357710930500499402207026,0.0212627281120640471145933,10.7889692415157831817396,0.0215355517142571950550689,0.00368304786677101396105694,0.0640765814720653525959904,6.34906906671066906255874,3.79051136963773460664129,3.94719651641701840816268,1157.21261809895486294408,1148.81292082269283127971,1156.00283488181344182522,1165.4749841487173398491,-42.0899880080708754803709,1412.00459437750919278187,-439.755265260739747645857,351.462194463467596960982,155.334450370795877915953
45.7950000000000017053026,1.20702579552185396138952,1.59962851226447710928369,0.054733244956660501157053,-0.0209442905041633126161926,0.0531222300172812383900478,0.0187503837603687252555407,-0.00748221843690007742955217,-0.00483628717098428737020122,-0.625639857102696428370336,0.780060676863918778245477,0.0325259068674079165894852,0.021797695745656889276809,10.7879781688494205127427,0.0216752067834380529598448,0.00364977074367916435454484,0.0666367417785557331066926,6.34909651546621400797221,3.79045700551644326736778,3.94736157627031181149846,1157.22336514499488657748,1152.41658976417329540709,1154.7834625746854726458,1166.43093367600135934481,63.171133981962313441727,1535.91584539425275579561,-548.904461027222055236052,455.20066570079978873764,155.335143146803233094033
45.7974999999999994315658,1.13695761106710957477617,1.28824160200050785718418,-0.195163592023396337271635,-0.0161761547944921334207802,0.0592108552241115970726781,0.01796473523254563109397,-0.00745916961464220418936977,-0.00482043746119333819249997,-0.625618130457756493889576,0.780078480939678575722951,0.0290639100651184645318637,0.022246295386568012975026,10.7852571457472485860762,0.0217965815900996937037881,0.00361842593370574876904255,0.0691801826765219285420017,6.34912371984325307749941,3.79039992627041844031055,3.94753396275326595699084,1157.52847376886438723886,1156.49250004965711013938,1153.25831257667982754356,1167.75098747721926883969,156.590987270021201993586,1395.78751880459526546474,-541.351803729453877167543,499.306753628906449193892,155.336228976721741901201
45.8000000000000042632564,0.995088667630733447744262,0.916611245716000055949735,-0.381018879650852682061668,-0.0124581228652563547054655,0.0634774006866354462141899,0.0165828752445232666112851,-0.00744603687478040052183381,-0.00480439913992974747258824,-0.625589303438650046196301,0.780101918845164332694253,0.0252937270031410588178034,0.0224661222642267843774277,10.7809199627573910618139,0.0218958395080657772235888,0.00358973762279066969244079,0.0716994094405626336552473,6.34914857320890213543407,3.79034190187436248464792,3.94771395659368584674098,1158.00632008134539319144,1159.39552735819984263799,1152.07670355603681855428,1168.9274674441471688624,222.515867204879072005497,1004.02158803088718741492,-423.280040835617796801671,456.240100917142058278841,155.337342442924438046248
45.8025000000000019895197,0.796174933238440019067639,0.463318029035610978727533,-0.534262602477046599780408,-0.00985532341841821417360858,0.065887288136241811686844,0.0149200240209581575651088,-0.00744391988140671173601604,-0.00478154217446366200383601,-0.625554423635131029435286,0.780130194710020652415494,0.0211858906526447010598702,0.022333768595760569719566,10.7750931688501747629516,0.0219708863254970653000608,0.00356514676673885550634013,0.0741871877270894042322169,6.34916992218881670595465,3.79028374369575882241179,3.9479024328566745261071,1158.64105310488935174362,1161.51260798981411426212,1151.14191237250065569242,1170.03218798180614612647,287.261849563071564261918,710.578556352775763116369,-322.017984690703087835573,424.34723618196073857689,155.33866690005345390091
45.8049999999999997157829,0.542859581068104835033239,-0.109765469547873500966162,-0.68274691927466568674987,-0.00855823871113081321992944,0.0661209241763955068993397,0.0132839109445215385746364,-0.00745249886893825826128523,-0.00473911057487621124179045,-0.625517032877707879201523,0.780160559406033349283405,0.0165951154982535153958878,0.0216676031981413441673823,10.7679158877052323362022,0.0220201846890598455785959,0.00354568601539391242347121,0.0766371924357925338178177,6.3491867158717889552122,3.79022717499941386165574,3.94809948836671908978246,1159.44262932915944475099,1162.94842013996048990521,1150.46661363258476740157,1171.04920362505504272121,276.46647092121969535583,332.107483784177134111815,-154.703262876095976707802,290.141083218159224088595,155.340491976152691222524
45.8074999999999974420462,0.35668958597258465514912,-0.559980548126878807657647,-0.781851638267715309815742,-0.00849377022630553278614851,0.0642147035114295355873182,0.0121774150801272889460547,-0.00746752840214597989748624,-0.00467119472319214683320165,-0.625481967213210809930501,0.780189214448070322838191,0.0114425585446644717535492,0.0204455415508688342907107,10.7595346345524731646037,0.0220437299448922180422628,0.0035328818672307024835455,0.0790439051546237142487072,6.3491993448770474017806,3.7901731512916754240905,3.94830469956787499796746,1160.02338545949419312819,1163.17314540873348960304,1150.3683960581208793883,1171.48289339789562291116,187.433095844284764552867,-101.301597362810767322117,66.9046543955686132676419,62.8376008451729433090804,155.3422021546891755861
45.8100000000000022737368,0.227612684630754097403482,-0.931977412414353612035711,-0.855214516765605003989492,-0.00866392116631914226132505,0.0608119617735055073559636,0.0105779649347100788980836,-0.00748310294119285211028592,-0.00457720509894226496028224,-0.625450350589258463607223,0.780215311596707983277099,0.00571815164939776243713254,0.0187462350029375945936749,10.7500993816905054956123,0.0220427677169608045304461,0.00352765492411085714030694,0.0814029693301898671364825,6.34920982238902098515609,3.79012265777123857901643,3.94851775297075446857775,1160.37979480838134804799,1162.44191215314617693366,1150.80113690456278163765,1171.36339162928106816253,84.2285520514475365416729,-501.898103061028166393953,300.501547152435648513347,-184.090838130802183059131,155.344098862457940413151
45.8125,0.155201278941343945305675,-1.25879417665513182456039,-0.903168815423518900331601,-0.00913243686957151620808837,0.0563314932564003972847999,0.00765798659941359372016478,-0.00749334011375049884734478,-0.00446975968962754887509048,-0.625427189076928624622553,0.780234791033625474376834,-0.000365858005951597009541842,0.0168295106820859907692522,10.7397580429606289698086,0.0220204739080229298930913,0.00353109289923169127750624,0.0837111642347550255482957,6.34922095699028066206893,3.79007478390520535782571,3.94873822458725909356758,1160.44452821975164624746,1160.66365489342706496245,1151.8709037938838264381,1170.56243920724114104814,-40.8048959531159241009846,-755.497761382508087990573,456.018634778552950592712,-388.070508389308145069663,155.346577246687019169258
45.8149999999999977262632,0.16380498046462310668403,-1.42912116923903087517544,-0.902102465322275448578182,-0.00957972071095251551109406,0.0528713050111049367996152,0.00490195362795091058027985,-0.00749784029794669376611793,-0.0043653757331019987092402,-0.625417273221994474141638,0.780243673474303456316647,-0.00646028490991895631978537,0.0149195834408724081754372,10.7286529951862998899514,0.0219811229188701801051664,0.00354264335196977694225628,0.0859669166075023860607018,6.34923494858671411122941,3.79002801610118966735286,3.94896517382373080096158,1160.17577032861595398572,1158.66442334623707210994,1153.08123007845347274269,1169.42303908733629214112,-164.141934018705484277234,-839.207249676181163522415,498.214447337631781920209,-518.554198231875830060744,155.348800357051857190527
45.8175000000000025579538,0.23059752662433755099336,-1.5022093235705926694834,-0.85722751030159405338793,-0.00924116159485360855185831,0.0496075501957037659495064,0.00253209075354763994691876,-0.00749672224169749094879744,-0.00428222783692566721924777,-0.625421264022893441669737,0.780241254458626909418228,-0.0121853205666458963563059,0.0132588311986538698317162,10.716919265861314158883,0.0219291877099021953467783,0.00356057481719014232157683,0.0881706520990660214120993,6.34925267008583027461555,3.78998206257136294183852,3.94919528137167175074751,1159.62381854965769889532,1156.46761864504401273734,1154.36197603057325977716,1167.96966821608043574088,-250.418461991384106113401,-860.437427039429167052731,478.215941176750675367657,-599.464380963502435406554,155.351173978429557109848
45.8200000000000002842171,0.329273624736378944799498,-1.50165700872196339332731,-0.780767302296901721803124,-0.0080261386041823746390067,0.0461228753664223931063582,0.000623167699831907368791806,-0.00748737816559555575957052,-0.00423208158407256153366038,-0.625440885815067515451915,0.780226010434432404316851,-0.0173093159896080817095054,0.0120558199414682876149385,10.7046828426020237401417,0.0218677543243665957473088,0.00358230286369428220852318,0.0903250348844433226247475,6.3492738559437427170451,3.78993806985873193937664,3.94942576171168369114639,1158.92367801865839282982,1154.3622362110377252975,1155.47230978433844938991,1166.42571718251724632864,-290.198174643537811334681,-770.915018245269379804085,352.021429495109259732999,-597.365914395002050696348,155.353663281831700260227
45.8224999999999980104803,0.449769407668761722618456,-1.4184242581119594905914,-0.673678799199557198917887,-0.0065336872895399777591563,0.0420999020910733864897502,-0.000879564342678501890834819,-0.00746510618199267787092888,-0.0042136946646591814588656,-0.625474791225274273642754,0.780198997800283677861444,-0.021850557393229191882611,0.011386421349213554643498,10.692057590400509070605,0.0217974543760800464065053,0.00360382596461743948124123,0.0924346807191262220815275,6.34929814309581352915757,3.78989609720267095482882,3.94965741264929226517211,1158.17282767644132945861,1152.61304355382117137196,1156.12208317804720536515,1164.98283864410814203438,-315.118428898970478257979,-652.684431808968724908482,133.713143677073077242312,-567.737761855169651425967,155.356282397736038092262
45.8250000000000028421709,0.609091498079603388404735,-1.23575330921643367076967,-0.51651242921877449365553,-0.00513566349658593074289925,0.0374337601512854181717849,-0.0024954394642215235386451,-0.00742590812991743721288573,-0.00422238789671948184373251,-0.62552042115473527328362,0.780162422027594670836947,-0.0258790372212408248397963,0.011275954945486055258641,10.679140276051564129034,0.0217178298838687465488473,0.00362095787448923813606205,0.0945050607460841407547747,6.34932550896859559941277,3.78985342103168143523817,3.94989133270047965140748,1157.34808587416273439885,1151.09881405199121218175,1156.14087550272415683139,1163.58702837323994572216,-280.623192848626899831288,-457.12696738154852482694,-132.563615724416592911439,-438.311355981480517129967,155.359564630298109477735
45.8275000000000005684342,0.749615468918519822771884,-1.03277306982055461226366,-0.364481863465783206823545,-0.00391169413790184734153188,0.0344600339252570109227491,-0.00378420513521854221319907,-0.00737046009427249921436287,-0.0042484482170353100177751,-0.625573595048944275376357,0.780119777258418301002507,-0.0294899285166160263216284,0.0116111603803650126343072,10.6660080560183008202557,0.0216275909597147437957165,0.00362894016187941502449288,0.0965419174282695635724849,6.34935512593975914796829,3.78980837049377816683204,3.95012774713769676537822,1156.76971171219747702708,1150.3274087169122594787,1155.4592650994247833296,1162.7912818641996182123,-213.041835954766639815716,-232.709295688375931376868,-405.86423234854544261907,-241.940380799716820092726,155.36240927236292463931
45.8299999999999982946974,0.888811276806827588181648,-0.806916304563266240101882,-0.195126715549298723750837,-0.00217938194093470535145363,0.0326005108179069913454384,-0.00480754054192636306325204,-0.00730400003662967558376584,-0.00428136516233699592620665,-0.625624483238813922092447,0.780079017884872771837479,-0.0327351508352290432313225,0.0121974663503493230276575,10.6527175401328761950026,0.021525603964327844064286,0.00362297855016097559294197,0.0985506554430093800744928,6.34938561261044398520426,3.78976069281999139448658,3.95036706876864762705281,1156.28287669438986995374,1149.93526757355039080721,1154.11155434098327532411,1162.37732646924246182607,-212.55889724591764888828,-136.82566983968447971165,-705.128842609841171906737,-116.519791799359566653038,155.365361063421914877836
45.832500000000003126388,1.03713581537816046385103,-0.54339630464552746147433,0.0168478930956827005482879,0.00045306778800299979739763,0.031195505509065434013305,-0.0050480143149708636002293,-0.00723068205928777910790339,-0.00430725814831905019081093,-0.625665264397611942115418,0.780046492111690636939159,-0.0357411275092828495392183,0.0128179489882737362993481,10.6393070905969295836258,0.0214101776521488131044268,0.00359930046750797389548682,0.100536177014624056313963,6.34941568259626976100662,3.7897120987530299451862,3.95060926297023584652379,1155.70691722596734507533,1149.64328036771348706679,1151.93362088637377382838,1162.20868290520252230635,-227.434890327524101394374,-118.812627814243725765664,-849.62291717822347436595,-32.2817203930588618732145,155.369021418590534722171
45.8350000000000008526513,1.13020939176584711560736,-0.349600888785505992117919,0.190018229653189235639488,0.00315305822897121376668927,0.0305164931326548510837071,-0.00429794589711735355863631,-0.00715699942783504933219163,-0.00432079454994110760679416,-0.625691475210036762710786,0.780025765905491663687599,-0.0384656968858881342931966,0.0133329368297342570892638,10.6257958368050751118972,0.0212816394509892474473656,0.00355618450714059947462276,0.102502020958602321765163,6.34944458111902676478167,3.78966335319290958949523,3.95085529887251230007905,1155.14570224275166765437,1149.34120443447886827926,1149.86343975508998482837,1162.21591786727708495164,-258.240278300271029365831,-173.821411731318050897244,-826.662648169100634731876,2.86977546911918546257425,155.37216727159497509092
45.8374999999999985789145,1.17401490252115903167862,-0.198852960995466815363741,0.351189537644186533515978,0.00638950851892851074548263,0.0302991398601409368807058,-0.00319153574919844255225465,-0.0070903743226084052497793,-0.0043168033487980912374371,-0.625699655701038803812253,0.78001958013325023433282,-0.0408578473632545957627826,0.0135887728982830441326612,10.6121868787581945525744,0.021141086767462242967941,0.00349292040046495942326454,0.104450475872719328318539,6.34947204917867669138332,3.78961535316851305665864,3.95110646593558634265264,1154.41571583446716431354,1148.77417330905768722005,1147.80030764553202971001,1162.22303178254810518411,-367.629818001744922639773,-334.831740113087732879649,-850.728777958758200838929,-24.7437034001778393133009,155.375409961590406737741
45.8400000000000034106051,1.15577863266200897562896,-0.0778783472085060463063755,0.530913342106342778237149,0.0106630850279787851853097,0.0304540782380258064077072,-0.00195624526670462334926315,-0.00703171634006289226342945,-0.00429732950156038254196922,-0.625687944262165451903002,0.780029405877878168062978,-0.0428406765440579179182734,0.0136322192529641228464499,10.5984708415163169092921,0.0209905521473405590193728,0.00341184525488082666944134,0.106382403986637466553056,6.34949823115075773216631,3.78956828627130448694516,3.95136359146841042999654,1153.30755315274200256681,1147.66704573391257326875,1145.6097958652940178581,1162.09219935027613246348,-441.495605051251629902254,-475.753092734778306294174,-727.662415497107531336951,-84.023890987284843845373,155.379411055111745554314
45.8425000000000011368684,1.08033970291586700618325,-0.0283499561657620698096327,0.672342366822922699043374,0.0141707365278908644506961,0.0308041107714606375578281,-0.00102369995418513139162631,-0.00697851265751317072910664,-0.00426762278544094014742782,-0.625655159807657179626972,0.780056182400382880359757,-0.0443378565177030559141258,0.0136028034545240261721233,10.5846280254057560910042,0.020832684305088538384565,0.00331725157744502605061676,0.108297432244821689728553,6.3495226556496460190715,3.78952227621740078689072,3.95162736450268203824976,1152.20823780920977696951,1146.39540784538257867098,1144.16199556804463099979,1161.8029123276114660257,-465.058650891492163736984,-560.034035816133837215602,-488.818793716599259369104,-160.011368562036295770667,155.382835442392519098576
45.8449999999999988631316,0.954301329454374291927365,-0.0259649633648214792080999,0.804467144871682915407973,0.016938507749314237610383,0.0311710034424419746290624,5.80686551795633128410234e-05,-0.00692604754561794346695569,-0.00423700786794009576219366,-0.625605121352575621607173,0.780096835789790388204779,-0.0452434481411133349038067,0.0137222810482521828667757,10.5706306885543259710403,0.0206709056631552492988568,0.00321542593647203365364584,0.1101941268157988207399,6.34954497158999942030277,3.78947713116244777609154,3.95189789901749266576303,1150.98225989828665660752,1144.86687555483445066784,1143.16570189671324442315,1161.29214250746667858039,-501.506305938635591701313,-629.113144087156001660333,-333.014444852881467795669,-241.465486922619845699955,155.386351803498058643527
45.8475000000000036948222,0.802951382999358531655787,-0.0524639648222997578841387,0.921163826651965500502683,0.0188927653464664065119383,0.0313153564581852283943419,0.00155770258975600965449526,-0.00687392937583037200860447,-0.00420893124808619650822905,-0.625543962950513177112555,0.780146430077170660588592,-0.0455007603448018271841136,0.0140536835648067820470075,10.5564448641150505636688,0.0205085111751001289426277,0.00311179981145323029251282,0.11207050536928647721524,6.34956401246382995395834,3.78943310174138803247956,3.95217433995036149241287,1149.70070627951531605504,1143.24984212494518942549,1142.49692334377937186218,1160.59558489299774919346,-515.511286601995379896834,-634.935175833282187340956,-220.096867874168481193919,-320.845399362696753087221,155.389943305194691447468
45.8500000000000014210855,0.642679408409701946602866,-0.0966370181226473834446011,1.00070722376852616619658,0.020008563530683091263862,0.0309084451606228063913484,0.00390030440958202308243674,-0.0068286362496848300104868,-0.00418286900309137923276159,-0.625486595959144242584671,0.780192944337329441495399,-0.0450369371137153973183587,0.0144857839064382598603942,10.5420319418984327342059,0.0203491177678271177586833,0.00301062036652120605662031,0.113924142446225937219673,6.34958025393360081523042,3.78938993641133325951387,3.95245549024526710013561,1148.40470346527536094072,1141.69219967566641571466,1142.06521755734183898312,1159.68791551065237399598,-562.759846459687423703144,-632.70419443441164730757,-191.565044621294475746254,-442.907001055157650171168,155.39362410668292113769
45.8524999999999991473487,0.460051418370645115452078,-0.148525667739280109458377,1.02517341173478992999435,0.020742027472015894806745,0.0298886065466898200038148,0.00783027956942673047935344,-0.00679384211513782247660043,-0.00415881345202399974742002,-0.625444742904907702296669,0.78022693809252263719145,-0.0438185011909108801386736,0.0149515434880016645502465,10.5273529243045835812609,0.0201960432708587385441934,0.00291622251594438443647594,0.115752308094900252521953,6.34959464495844638776134,3.78934665277433424535047,3.95274094778953255513443,1146.88690704721943802724,1140.08632115277600860281,1141.53909812067377060885,1158.38104988772397518915,-543.562457298452727627591,-523.173663480707318740315,-236.023834243557985246298,-510.314539426611133876577,155.398142667242126435667
45.8550000000000039790393,0.321434487688495473811656,-0.180711154004718460575063,0.972253967737180868624591,0.0211153466476140631857827,0.0288358041848270733875648,0.0116648579171233900825255,-0.00676620750264127473333486,-0.00412759690363146466290933,-0.625425552718193444867723,0.780242746717146107293672,-0.0420654725567940757091634,0.0153703866476706252353068,10.5123723199771568204142,0.0200498217981441850810143,0.00283205344259734479936408,0.117552407504180680963835,6.34960733595726090072731,3.7893031547966202765565,3.95303212362078593145043,1145.68689117878170691256,1139.07633135826154102688,1140.88509838612344537978,1157.13634281351801291748,-458.564337183353984528367,-321.441856030304904834338,-341.811689529056593528367,-522.304217579772966928431,155.40199162673118848943
45.8575000000000017053026,0.192769342135947291394515,-0.199645613142797051509092,0.845452857060313256454265,0.021467737650531455717573,0.0278800944545388382223017,0.0148279444989247340125349,-0.00674206408800621676685738,-0.00408282243575453993034152,-0.625426328097683947859764,0.780242588635725153878298,-0.0399667658209659770740529,0.0156962395929164943986223,10.497057014671607788614,0.0199112601769436299570248,0.00276070739672983371179593,0.119321499258194380077569,6.34961778502593698902956,3.78925989355340897546398,3.95332978576718740981732,1144.59408536130149514065,1138.47911187262366183859,1139.83003967302761338942,1155.76952879982377453416,-446.44724837921461357837,-168.308083688105682540481,-566.742026180433413173887,-619.121006859240083031182,155.405925784091522245944
45.8599999999999994315658,0.036485989426867329599169,-0.217161194133484836132908,0.635745009247775882954556,0.0219384793791233545512398,0.0272979027218260630882618,0.0166695238347254436062084,-0.00672012641355266161086179,-0.00402198642706646982553087,-0.625439442394988054374494,0.780232596701471270428385,-0.0376255780334907863338145,0.0158896619000983702063579,10.4813766537263628464416,0.0197820466003848297043,0.00270361013430620803627003,0.121056434096337275918565,6.3496263979418232636931,3.78921709844983745085756,3.95363340056806045197391,1143.45465493688766400737,1138.23479093982177801081,1138.05138825522385559452,1154.04073777922462795686,-382.886583078502212629246,-23.7568982868530262919649,-722.742438910966939147329,-641.557147648144677987148,155.410743192578081561805
45.8625000000000042632564,-0.105980145137703929414386,-0.238267969668277124206668,0.438572269463252173427037,0.0222538544563044560220533,0.027365450256490026631484,0.0169539353413423847516395,-0.00669657594121768773992587,-0.00395510666753806118534076,-0.625460729203323517744195,0.780216085629113709210003,-0.034982054548979318875368,0.0161139944322203632065538,10.4653047419227949177412,0.0196656274943390434184476,0.00266346046943910508275621,0.122753930733043248313408,6.34963498830724315524776,3.78917392817733089671606,3.95394202201710109889632,1142.6796524459080046654,1138.36032738118933593796,1136.2163274784709301457,1152.56174306158141007472,-269.607005060332426182867,91.2346414185309981803584,-771.280737481007349742868,-593.662768625941794198297,155.41483617045437881643
45.8650000000000019895197,-0.269656838401679199712646,-0.273918617983486045730501,0.237966320187992991241899,0.0221890570607399181812802,0.0274958756226476690176508,0.017072764103683895492436,-0.00666916315938815337099888,-0.00389317582951209184907726,-0.625484969193234596751552,0.78019720426325145368196,-0.03194907431224799920777,0.016517784196158818987854,10.4488190860764866840782,0.0195658165303607585461254,0.00264146028058014938066922,0.124411076116085206333395,6.34964507059916716258385,3.78912954887699893191666,3.9542553427265958454484,1142.10661991158531236579,1138.69096414691466634395,1134.19498456781684581074,1151.07242393609340069816,-208.001957315407707937993,153.619266781519058895356,-882.497219588897223729873,-654.866353564379892304714,155.419007900725887338922
45.8674999999999997157829,-0.492265841833314232722785,-0.32852191161457344747987,-0.00119562437214887351544235,0.0215573365898086358183328,0.0270784093706833740855533,0.0174320922328579479276822,-0.00663679278933848506433213,-0.00384117882319198701221441,-0.625503758536782306087787,0.780182681110992648498836,-0.0285310051783503326738867,0.0171523626399555789712181,10.4319028406159777233597,0.0194855781661717117336785,0.00263625721359088405204574,0.126025670716331028575752,6.34965733298318379951297,3.78908415333425319104776,3.954573232581111152939,1141.6396426593319120002,1139.12842371509623262682,1131.80384138053045717243,1149.28741129376248863991,-142.348785958158572384491,139.948865651549510857876,-838.400573731940653487982,-654.013409722669166512787,155.424101292482077951718
45.8699999999999974420462,-0.695401130698465430590716,-0.372436172366174877979006,-0.199642694081436672393082,0.0205729465943555490936578,0.0260523679896833004754342,0.0175500102223571964599191,-0.00659464956821346516557814,-0.00379844815232831083118281,-0.625515004216757208865829,0.780174246289073280991033,-0.0248787503119176911514643,0.0180597939838135490564497,10.4145459178165289415574,0.0194264122023646568226951,0.00264557183834618955126095,0.127596372818576830887594,6.34967135065161691898084,3.78903996257414643622496,3.95489439477659132649023,1141.3948759817951668083,1139.39070847517177753616,1130.0029816991609550314,1147.80235688748302891327,-83.5865750623297429910963,59.6761165115062155450687,-654.220123033775962539949,-593.883872136044374201447,155.428415414781625258911
45.8725000000000022737368,-0.905313836050141373945621,-0.399643967600415150887017,-0.394710586163792065406142,0.0189500032853083637263136,0.024481277056075199244356,0.0171475709347548091465718,-0.00654498073333307020527094,-0.00376654096283007139289722,-0.625523847982149217017422,0.780167752298722594339608,-0.021019182287988852353422,0.0192026787478878080417388,10.3967410815684466740549,0.0193916400320637942467084,0.00266562913800518896251246,0.12912218844285106023051,6.34968783728156171974888,3.78899843597816410323276,3.95521802950027367984376,1141.22170978402004948293,1139.42680429765391636465,1128.53274076535990388948,1146.31799193308074791275,-72.0064042916505968605634,-32.5901029645880697671601,-525.555007921824994809867,-592.773635744621628873574,155.432797563665928919363
45.875,-1.10772197852981935106698,-0.406700084553202667603244,-0.58098756018496078290525,0.0166206360979505723962646,0.0228580034576607200869081,0.016317095700767166727152,-0.00649367974056160382478886,-0.00374654923857331394188019,-0.625528275897451857545661,0.780164754949652317073117,-0.0169439974957245054199007,0.0204842730700804109833513,10.3784849978577469187258,0.0193853192380316098619719,0.00269105483775746064101231,0.130602483637997313081769,6.34970712741764042874593,3.78896064964448608947123,3.95554369006826789245679,1141.03484396033672965132,1139.22775796034875384066,1127.3752066595504857105,1144.83848870875840475492,-96.8096102849329440687143,-139.321456210236021888704,-391.42353329110977711025,-585.959687180717082810588,155.437232560284627425062
45.8774999999999977262632,-1.28267818362732288761663,-0.391618143186401868049984,-0.744426005754370234690498,0.0133691377888494385833829,0.0215766696524098168519235,0.0151433010417956794013694,-0.0064445964519165193154504,-0.00373123682485176216827583,-0.625527100125174873035405,0.78016620544519121871474,-0.0128081743307378592700019,0.0217408061578619055120853,10.3597809511155229955648,0.0194092564916049821477362,0.00271555886293267569747689,0.132037133700124875712589,6.34972792179281153579495,3.78892803413945378210315,3.95587090895024440229122,1140.73766173259582501487,1138.73019701660336977511,1126.57562309890613505559,1143.38819349717982731818,-178.531261688749111726793,-287.135982225925999955507,-284.710797355537465591624,-618.445761561590302335389,155.441726509306249681686
45.8800000000000025579538,-1.44093216712545157953684,-0.359980879661706609784488,-0.891119560633073515276692,0.00884621299129399046856648,0.0205654182929169704330263,0.0129761055675015699734098,-0.0064008542713802256754474,-0.00371657425051656392298027,-0.625516375934960011662156,0.78017526230255440644612,-0.00872332693395638791855617,0.0228694117784627171108269,10.3406370808483423218149,0.0194649623962622822515023,0.0027338242723605587353175,0.133425836309367301657502,6.34974948636878089303082,3.78889958605555232651341,3.95620035573732975464623,1140.14218765189252735581,1137.79207804921838942391,1125.95165267277207021834,1141.74625990094887129089,-269.992431802300529852801,-401.216556622943528509495,-187.84101204705106624715,-571.457396138501735549653,155.447180845672420446135
45.8825000000000002842171,-1.52159979011228307932413,-0.333076637850911738691906,-0.951203856887054777224932,0.0051193407049415209572607,0.0200786708349901844850027,0.0101992484358254618254103,-0.00636792191123283172343728,-0.00370115214735930800338259,-0.625489406814402792988972,0.78019725927828753597737,-0.00472513834265267385070786,0.0237697898759909251320543,10.321065648222024435654,0.0195534470478315978991812,0.00274112386890455880447681,0.134767833287274957365653,6.34977142259913396316051,3.78887270129567532706005,3.95653301821522740411297,1139.38769957358363171807,1136.72411423348762582464,1125.63641803867039925535,1140.5309065164858566277,-360.073959255496504283656,-491.22951938215123846021,-102.033940388721049430387,-435.805702251705781691271,155.451772515893139825494
45.8849999999999980104803,-1.5455782013863168522505,-0.315062787847124214923866,-0.925306097613664668699585,0.00150732698425517001004914,0.0197742098134995741842701,0.00682471844400594444129959,-0.00634948905543318131011743,-0.00369098289017489276930828,-0.625449632363487162400872,0.780229374642529394101587,-0.000745989562218302149076976,0.0244740587539506587733129,10.3010835382249972269619,0.0196750743190094203038942,0.00273580777614189276508716,0.136061710717973571860284,6.34979362318810203191788,3.78884400019262379544216,3.95686906922022663124494,1138.34181785561668220907,1135.33593045230986717797,1125.4414829708289289556,1139.56723138969232422824,-517.581922996495336519729,-693.464719750554536403797,-77.9719337677362460681252,-350.806039609053812000639,155.456406263860941407984
45.8875000000000028421709,-1.50653723245594384216872,-0.306207155201072611649948,-0.787830087535851708580026,-0.00311896280129604023395595,0.0193830985885060924633905,0.00319712321454783052199211,-0.0063466452234459957981727,-0.00369001670616203765462604,-0.625403008753169009636963,0.780266805085572445754849,0.00322351793842404199530449,0.0250339054535250599142771,10.280714272227353234257,0.01982750505486071193606,0.00271761879441208623053861,0.137305713315008182107135,6.3498161877171916955831,3.78881094926890327201363,3.95720878332439873759085,1136.79978995859983115224,1133.25679063473307905952,1125.24655836983151857567,1138.77687631843969029433,-595.859766904245475416246,-834.938763362634176701249,-78.1950416757863564498621,-227.183512965095559366091,155.46200811021944332424
45.8900000000000005684342,-1.41702103460217543329236,-0.305085292464758128794244,-0.594195283662847795191908,-0.00719227036058797935397235,0.0188915714466792727943556,0.000985750986473951434571616,-0.00635604668779118919808013,-0.00369864398081412928953604,-0.625353904895479151271331,0.780306079885011882879553,0.007089949147435936627204,0.0255278556050275509670122,10.2599892210828347316465,0.0200054447538924838612129,0.00268760400163891004926553,0.138497874646585361624318,6.34983952160499764971746,3.78877333278579886410853,3.95755226236417190222028,1135.36251902109393085993,1131.16123663549456068722,1125.05050776244979715557,1138.43131382486626534956,-577.999049527150418725796,-907.41797214346422606468,-98.949078935537684742485,-83.4540985500402285879318,155.466705265676040426115
45.8924999999999982946974,-1.2743114282035472584198,-0.299821434726895208466857,-0.342462948470656614041729,-0.0109441363454993619008793,0.0181398211659975217013852,-0.000294334169986333756517671,-0.00637364051297160168901845,-0.00371051098699683602061272,-0.625304943105950972181972,0.780345172102561823734845,0.0106571172249797785358538,0.0259587224519007980783059,10.2389473991523658469305,0.0202011256378099232633438,0.00264668481819334755131279,0.139636137799870468922947,6.34986232411883477766423,3.78873280063183459631659,3.95789914132477260721998,1133.9097947109667074983,1128.71970077401988419297,1124.75181297515428013867,1138.35960582568986865226,-610.009075345721498706553,-1127.89644523456036040443,-166.652363200915942798019,9.77645715037806439795531,155.471425661778425819648
45.895000000000003126388,-1.06013709171478609505357,-0.274233729562579131577849,-0.00870949871380363033201988,-0.0142768678519821102385068,0.0170242956011079325795432,-0.000853148319979286093653337,-0.00639624186863421879956082,-0.00371343385462761122611797,-0.625259398670425237121151,0.780381552444175508043145,0.0136636987052988767565864,0.0262396715751224210433357,10.2176348935628560354871,0.0204051965139509031144094,0.00259542980373091841661548,0.140718385556239777844922,6.34988337586481055296872,3.78869069344221509609838,3.95824927395819736730687,1132.31247364436376301455,1125.52175440931887351326,1124.21724594644479111594,1138.48019611061818068265,-544.412586246465934891603,-1186.03962080386077104777,-229.874361088350894988253,60.967478066791684909731,155.477108783495765464977
45.8975000000000008526513,-0.863211533449286250174737,-0.228242401006293782472767,0.268328378308331116919305,-0.0161132538588078383368085,0.016033147026129998535815,-0.000551299413034873116851164,-0.00641743420337199423075791,-0.00370501418855827052353802,-0.625223320741422283752797,0.780410445959219045697353,0.0159812655178835638647428,0.0264585444834068983510633,10.1961026791843725192166,0.0206096692685993933269462,0.00253757800638906069051748,0.141742061076390979401651,6.349903044584896072422,3.78864668505682589128014,3.95860269848040635665143,1131.18773177973298516008,1122.78950266999754603603,1123.60244116971193761856,1138.66444321602398304094,-398.793493568290443818114,-1061.53416107227849352057,-280.709857329457634023129,73.0430748808185370535284,155.481854136612753336522
45.8999999999999985789145,-0.663751210144286840630912,-0.15174757969624758091598,0.511387076168116294638821,-0.017616495597066142431153,0.0149447776378192238866394,0.000589589698504412035306999,-0.00642919939230177529126964,-0.00368564949413620075030495,-0.625203301618659557092883,0.780426643540994668946098,0.0175226270660899796638432,0.0267592759596065113414376,10.1744065874390070547406,0.0208069067998960278986775,0.00247814373225912522313852,0.142704460152427631269845,6.34992193962855466793371,3.78860055452231359041093,3.95895946732188575012401,1130.31850617652412438474,1120.21408360396230818878,1122.81369665979877936479,1138.84541148502194118919,-307.328648760110013427038,-970.181823173883685740293,-339.365061464976975003083,62.3566671648085701917807,155.48660239561081652937
45.9025000000000034106051,-0.469677377895150627296061,-0.0525660369827634990635978,0.702927864697406756810949,-0.0190151018321764314622513,0.0139503354452473419394787,0.00250266741459078539966399,-0.00643224600643844870301313,-0.00365964735053518576066156,-0.625200978183752642536319,0.780428812619439637998653,0.0183890712266153721898831,0.0271891937933801328131089,10.1526026846698247396716,0.0209919889485367452963693,0.00242081753670524927463115,0.143602572478494810992444,6.34993987532390669059623,3.78855145350184319141817,3.95931981109602881829801,1129.65108853593164894846,1117.93859355412564582366,1121.90561586238618474454,1138.97622655184818540874,-227.228794901995740929124,-804.760181562548837064242,-381.138813502398647869995,33.4437140921465356768749,155.491348582747860973541
45.9050000000000011368684,-0.289118845426985127122776,0.0605247792552980681812791,0.80935343672158177596998,-0.0200385329031927544862768,0.0136967852270414910259566,0.00535103320456253948173009,-0.00643304641840526832130553,-0.00363457660460281880426825,-0.625213299159338986576984,0.780419309312909925679946,0.0188191383466332073925997,0.027738091724312664843044,10.1307468532599180832676,0.0211624040208955900566057,0.0023682625124768594444824,0.144433325830096936925884,6.34995716271726795554287,3.78849806765831376154097,3.95968488607321056349519,1129.18236220201356445614,1116.19028269614750570327,1120.90800259228581126081,1139.01263005548275941692,-175.740168673360813045292,-623.418098723253365278651,-443.092705843758324135706,-10.5723374571067072480446,155.496087684700199815779
45.9074999999999988631316,-0.0989196390140529846490836,0.185734081627326519381427,0.824405563613239245057684,-0.0205896451026342519607937,0.0146062254214713600070086,0.00941719560082233606013169,-0.00643686349302404099692598,-0.0036133098951824332671634,-0.625234126986082050514426,0.780402988733632341222801,0.0189714216358507214987839,0.0283486339676847498569856,10.1088968982908831151235,0.0213154488791100250877353,0.00232207611390930837580449,0.145194318570854435934692,6.34997398937122348172579,3.78844109487045388462434,3.96005523761000688409695,1128.77238769256564410171,1114.82150306051221377857,1119.69015233316940793884,1138.9233648645626999496,-137.330303232668256896432,-379.935055527663564589602,-439.535088856112224675599,-56.6309280404022032939793,155.501761526464605367437
45.9100000000000036948222,0.0285792656788287947888794,0.263360074659091836224434,0.749998767525854703741572,-0.0204648422677336794262004,0.0159331784111111270096917,0.0126225941739478292324961,-0.00645021518908909467088231,-0.00359332937576691512082672,-0.625253879955010805069548,0.780387469620791640600999,0.0189428479799046978193644,0.0288695598729065000531691,10.087109854009280951459,0.0214489609297268402077208,0.00228186391243944113743636,0.145884233003972019204753,6.34999023870971690541865,3.78838221947959752355928,3.96043108641182683982152,1128.49571068584987187933,1114.29060741850821614207,1118.71032714800412577461,1138.72947541528060355631,-112.331358260859644815355,-105.766199553536807798082,-378.635717984786424494814,-102.76669250423964285801,155.506475989489302946822
45.9125000000000014210855,0.115029081242638775428588,0.302453325315777288295749,0.616525842922005851143297,-0.0198991609701144392396976,0.0171102670404161306960678,0.0147996189492010619959128,-0.0064779585391465397195554,-0.00356739891805702043214854,-0.625266626073398668061998,0.780377461159682539459936,0.0187405739931892911798172,0.0291136662802296206087327,10.0654403803260628080807,0.02156118963578042974083,0.00224621771457777976571668,0.14650339884326371575618,6.35000579813114907068439,3.78832371453478478073862,3.96081101737376428673088,1128.21073090126105853415,1114.2926720627442591649,1117.79697374324450720451,1138.4095314020412388345,-143.626643862302103116235,81.4134579018458737209585,-391.743773231147997648804,-167.80837529096771731929,155.511173650260360545872
45.9149999999999991473487,0.167312704122267952300263,0.305725173482913503697489,0.443684116472709166867361,-0.0189048854980681073356674,0.0180189593154031560406914,0.0156987921817564358983876,-0.00651847573010585611824608,-0.00353812633831152674110387,-0.625272515717262833412349,0.780372778129671651470289,0.0184475228915469413593087,0.0291182326498988924834421,10.0439366883745826442009,0.0216532683381667444277863,0.0022165405770847466590534,0.147053818704279803952772,6.3500215358575200497171,3.78826700603112209719825,3.96119226229539433958848,1127.77757746653901449463,1114.69767470801707531791,1116.75160828185016725911,1137.89043353882652809261,-183.020654152093868560769,178.895877844979054316354,-386.490855428276177008229,-209.130993397304678182991,155.516789503508448433422
45.9175000000000039790393,0.17114688689215393213594,0.276379709671389639513706,0.329902777927945922709085,-0.0179762327438061884909981,0.01844248249822787524832,0.0151296589191516756001121,-0.00656859055183061420896129,-0.00351027890604151994458082,-0.625272347101442749206512,0.780372695429669027689101,0.0181592071906228613720202,0.0289689140056910293674619,10.0226382200243691045216,0.0217282113680219227114243,0.00219428696632627436013951,0.147539487035471150733201,6.35003776304755174209049,3.78821352420200030408637,3.96157136545098431668066,1127.29562763050012108579,1115.18715145196961202601,1115.86451946610213781241,1137.36387643505418054701,-221.803763264302006064099,187.211549781108885781578,-376.093216852758303048176,-222.676555176508145450498,155.521450756765858614017
45.9200000000000017053026,0.145849320068671184369435,0.21673988590103612783544,0.279188473068938458609978,-0.0172779597835028830843385,0.0188523751306441250674695,0.0139267014081904914879484,-0.0066283396131614881821581,-0.0034898734297545684103492,-0.625263748515755501955482,0.780379026015584287279125,0.0180257518650275838645314,0.0287133833179979841565554,10.0015724080469041723518,0.0217912147061762075106461,0.00217962633270206646365907,0.147966022896784371587486,6.3500547523186918752458,3.78816391044178635283401,3.96194470150426969468072,1126.66855865021693716699,1115.63373245692309865262,1114.871142197585413669,1136.7770507629434177943,-302.866257458484028575185,154.702804615139655197709,-477.495442651049870619318,-260.746849867346782048116,155.526091712559889401746
45.9224999999999994315658,0.104507111179082609608848,0.108952789556880313970311,0.292183108662836588109712,-0.0172339201451383698671105,0.0194427778325046290985867,0.0132475497659891479351746,-0.00669724094502397761241586,-0.00347991949635483672695346,-0.625246617076783861577383,0.78039192896906628416076,0.0181362543559481503852027,0.0283692819304006624281378,9.98075545079960591010604,0.0218474271900838054594196,0.0021719979378422736224219,0.148340152885333254051403,6.35007262818068962673124,3.78811710751311325751089,3.96231181155358092027541,1125.78129634320907825895,1115.96066547504460686469,1113.47704225284905987792,1136.06014218571863239049,-337.044173303830064014619,74.0762914336831528316907,-547.163852861324130572029,-256.821121745047605600121,155.531635715593694158088
45.9250000000000042632564,0.0778154991235049248166078,-0.0124493425280609165683998,0.34298404223082196162764,-0.017786055145151139639248,0.0198326572794067269855933,0.0140916043801094098553151,-0.00677055447561361947728109,-0.00347359091778024582294893,-0.625221152480255892847083,0.780411396356384901018544,0.0183646478533947554723227,0.0278980007801128832012338,9.96019448470170587484063,0.0218991734679883365277675,0.00216982618018754557301375,0.148669034327892801705673,6.35009095180376537115308,3.78807227599255069705464,3.96267507263119123095407,1124.98333778369692481647,1116.00411391409170391853,1112.13532293327739353117,1135.4929451542175229406,-316.79697394481246419673,-31.4115130962657822522033,-563.0366350573542604252,-213.904217291955944801884,155.536233098805865893155
45.9275000000000019895197,0.0706116521949406300562302,-0.165333091278219102004954,0.399966699016960913759533,-0.0183626069053676420350651,0.0199166042138789779747388,0.0159685609575211488742053,-0.00683939822028961554728488,-0.00347058039450645226461911,-0.625189751527029824451631,0.780435637099306522834752,0.0186260210772438428161735,0.0274081122343948629938026,9.93988473648774473190315,0.0219493691723040319774274,0.00217382820121141216024307,0.14895876509189753811313,6.35011043100827166085764,3.78802807224334658897646,3.96303719477582561125928,1124.19731147348420563503,1115.8036079095631976088,1110.66185907756084816356,1134.99062109925830554857,-304.755474457765330953407,-116.989523312456171311169,-594.377435632572428403364,-188.8127838813841776755,155.54080447059905623064
45.9299999999999997157829,0.0785759256699840452631278,-0.339882146416246255782312,0.441820599844048256255036,-0.0186393702720150655771647,0.0196224709620805362608742,0.0179276718076167955462363,-0.00689141289024238108684717,-0.00346978313689639151357058,-0.625154759782559743541697,0.780462918327994636946698,0.0187705033566392121002764,0.0270528091584728291874029,9.91981228853649099619361,0.0219997709038654530588897,0.00218556684196076489445915,0.149214113418780158770716,6.35013158890192208616554,3.78798437942621779583874,3.96340002293708337788303,1123.45956041140948400425,1115.41916629752995504532,1109.16343575511723429372,1134.54888123481146067206,-282.991017208526500326116,-194.038988069900398159007,-581.278852585757022097823,-165.389071893892264597525,155.545351958400232206259
45.9324999999999974420462,0.0945803863069670514018839,-0.530729996940694226381652,0.455459871038522479125277,-0.018375293243257373454469,0.0187403295552141975488514,0.0195248126780516173539581,-0.00691816836038595603386447,-0.00347080234864054898435981,-0.625117610752609409452418,0.780492188331466607564835,0.0186989893939434881353634,0.0269338918651890191213738,9.89995355566047052775502,0.0220526271146594121663753,0.00220616952066712704652596,0.149438105972896750905932,6.35015322824204098139944,3.78794199441322199106708,3.96376378288223785162359,1122.7823563874428600684,1114.83341296921457796998,1107.75546481463470627205,1134.16367573978959626402,-297.125418333537595572125,-304.470167188427467408474,-574.431738292811928658921,-166.36156945297116749316,155.549867316142325535111
45.9350000000000022737368,0.106695536150426456556417,-0.7616229764255790790628,0.44037907444497526032734,-0.0174315623730557818504838,0.0169157516124186363404291,0.0210570185723867944749266,-0.00692210440176337787887562,-0.0034702896836120867424258,-0.625077072087418583734575,0.78052443562530382514808,0.018392591244176081932693,0.0269498877866790192969759,9.88027640714309463021436,0.0221110084758217272093983,0.0022340648743631435352297,0.149632002385295809210319,6.35017278179159205819815,3.78790164250307181958988,3.96412851372158669960299,1121.97393331974103602988,1113.89681546158703895344,1106.29127706365170524805,1133.7170733875461792195,-313.435924100871204700525,-387.414433090527438707795,-493.178693547290606602473,-171.457134332789394193242,155.555243601280039911217
45.9375,0.103197440846768170863434,-0.941895488765580934931165,0.407651157872473135501679,-0.0163185349018189589098693,0.0148437970383296924392624,0.022141868886906682090121,-0.00690759254042235676385175,-0.00346748566896171129744775,-0.625029712705075346512729,0.780562375073352132659465,0.0178882968297920941225243,0.0270044161523100983979262,9.86074466969055762888274,0.0221781430095712786543238,0.00226803514669178963442109,0.149795376142419389697835,6.35018895086279044903677,3.78786372393700965233165,3.96449492066774222820413,1121.21517676693770226848,1112.89634080376094971143,1105.28957134689699159935,1133.30639006812521074608,-345.72695944056772532349,-456.163130792089020815183,-365.245820405757740445551,-186.129273724633208075829,155.559684565380251797251
45.9399999999999977262632,0.0882232039426243813684536,-1.09364416652914697714039,0.363464908008493847724196,-0.0154327148149658154724362,0.0123438119318195430734741,0.0230522323467337621194506,-0.00687579255610783375562978,-0.00346462512172795349466026,-0.624979362646205238718267,0.780602914545914683408512,0.0172238363748364875505104,0.0270931554127784718355443,9.84132251477749697698982,0.022256064679361513974909,0.00230869565463946669822692,0.149926370055330326902521,6.35020271297456151415872,3.78782721224629170819753,3.96486383695405564253633,1120.24529852253976969223,1111.61599980762866834993,1104.46504796162457751052,1132.78642701892385957763,-498.709177161044408421731,-641.124353323029367857089,-352.189529143153663426347,-268.984190965282948582171,155.564079332471663974502
45.9425000000000025579538,0.0758189501762426554254404,-1.22564746557084669476012,0.308786343160166731891536,-0.0153764664257021628490651,0.00869402358706395685106205,0.0237183848159821589196561,-0.00683416010417020169248614,-0.0034628240671622789736972,-0.624931692388871140586559,0.780641433975912457654545,0.0164931010807622124847427,0.0271056079602083332957818,9.82197494300594975413787,0.0223460892005359242074025,0.00235484744209065594011676,0.150021879279512632132665,6.35021520386134152857949,3.78779027979579963059109,3.9652356025739670108976,1118.72163088113120466005,1109.69071903714416293951,1103.52862370118032231403,1131.96146911329810791358,-626.84918997160582421202,-777.332781057350757691893,-363.024108571240333276364,-344.116625611701635989448,155.569292973883023023518
45.9450000000000002842171,0.0874088476468240088701478,-1.28374282233385583751328,0.268537963853808181458049,-0.0159828029552145124692064,0.00521094324302133829474037,0.0239083358088372673055932,-0.0067951975720801560329476,-0.00346888186187783520778027,-0.624888987280841190496972,0.780675949461168694476498,0.0159362087781744210523982,0.0269277480247394410128869,9.80266904220008328252334,0.0224500693182610421005929,0.00240447670284294617859544,0.150077676771363771601742,6.35022743680239631913764,3.78775001289471324739111,3.96561015749810774622119,1117.11105257268013701832,1107.72933590233992617868,1102.64992741876744730689,1131.06584389086447117734,-711.982419048274095985107,-858.542846352710057544755,-402.286655605350745190663,-405.842359219792172098096,155.573582529776018645862
45.9474999999999980104803,0.134371279217507078040938,-1.28225408861095613310965,0.235584031829910389710392,-0.0166221218475540791215117,0.00173292598942347908855255,0.0241724881184584329540943,-0.00676717746670604022168893,-0.00348585871218641714375241,-0.624854090854465527016259,0.780704084626374306132846,0.0156829724374308865364469,0.0264702673725829423778677,9.78338047693344670108218,0.0225666462598808209571999,0.00245517730329258008006854,0.150089386555924408916951,6.35024072195604727397722,3.7877044422438759241345,3.9659875384135858666923,1115.16171878589307198126,1105.3980048053845166578,1101.51719042315539809351,1129.93225731720099247468,-918.171337837505689094542,-1097.22963768970907949551,-573.168169860061993858835,-550.757284662077154280269,155.577808515636206720956
45.9500000000000028421709,0.228415875909263266230198,-1.21448401537703043473471,0.197925881906609812954656,-0.0170382136752564687653955,-0.00210614330976908493975319,0.024915710875190025253012,-0.0067565303705367793854486,-0.0035152867525867349633717,-0.624829710739312704781412,0.780723597913794531422127,0.0158183832939161328479116,0.0256594016225617366222522,9.76409329734957509572268,0.0226928163251932553390322,0.00250388609608644899934271,0.150052752288466595409488,6.35025687562696283805508,3.78765315117852363613338,3.96636769099272701311065,1112.52019588349025980278,1102.24318771388857385318,1099.78408656946567134582,1128.31205746755267682602,-999.417926128842623256787,-1196.12967582004534961015,-690.145120908038506968296,-630.425637458252253964019,155.582798495644283320871
45.9525000000000005684342,0.324007980604371248478657,-1.10953994113448684011303,0.16178422566029379559005,-0.0167498440886636075497496,-0.00493124828614975498769502,0.0257145124771103635030745,-0.00676236042257438892122412,-0.00355477561172224060595526,-0.624814916765134897858047,0.780735240592562163008949,0.0162805331811848030820755,0.0244906185842765494742324,9.74480253746263080927292,0.0228231924263166303934458,0.00254762840372073882944104,0.149964279281767948193149,6.35027742003331940878752,3.78759726421729858714116,3.96674994340903186440528,1110.16462915524630261643,1099.41735642628123059694,1098.06646481861344000208,1126.78012912990811855707,-946.990275896539060340729,-1137.82860341215177868435,-711.561090442875411099521,-639.416531810765604859625,155.586883260415532959087
45.9549999999999982946974,0.411143727424879923404433,-0.964093401051405729518251,0.117123092208981899320364,-0.0154588283571449863068592,-0.00716809720529856461701534,0.0263182237695927419285358,-0.00678126124573421619479152,-0.00359917803233696835876754,-0.624807578027919308105709,0.780740762104926711018038,0.0169387418197613770498577,0.0229698708434943194012234,9.72551235247211565138059,0.0229520022510459643927394,0.00258308269108085269971653,0.149821450796872979172036,6.35030242101199338122797,3.78753853718698874075699,3.96713314949383066831956,1107.78524450401187095849,1096.55404469683298884775,1096.22628111725452981773,1125.11497480850175634259,-1019.70106197548045656731,-1225.02219514886837714585,-781.127761928528911994363,-751.795481460091764347453,155.590884337638158285699
45.957500000000003126388,0.476086856045772832679575,-0.75216247083613252399914,0.0561775533994246720204124,-0.0129048325155161035249218,-0.00928891143846892475277599,0.0266086907492512313166966,-0.00681015952430645381265872,-0.00364322285464552340222832,-0.624804146583451736063353,0.780743047207535179055071,0.0176682422703302310917906,0.0211021347083008847800301,9.70623399121223151553295,0.0230749003378115935536385,0.00260688652806991168209283,0.149622811657499549253814,6.35033005370448133675154,3.78747902394878854792637,3.9675155990170765107905,1105.06612384536629178911,1093.29224545053375550197,1094.16082600896879739594,1123.02115172260573672247,-952.112119900279481043981,-1137.82364389308895624708,-689.514770134348623287224,-778.423929924849403505505,155.595580094679178273509
45.9600000000000008526513,0.485850773622128417894572,-0.547599680802167143589543,0.00327892449159894461274689,-0.0105155821182933480878452,-0.0110113925937663711951409,0.0265528429334443427656254,-0.00684422551784637320931859,-0.00367885331752053259396495,-0.624799268944016161775323,0.780746456318273884811276,0.018283650656230138187297,0.0188901751340200263484803,9.68698602035407319021942,0.023188310039734316703175,0.002616039632375874880027,0.149368188465646561935429,6.3503580025753354476592,3.78742076788102810525061,3.96789590028991590031637,1103.02468390450803781278,1090.86492647736463368346,1092.77870726658102285,1121.2228551588755181001,-748.200841868991346927942,-884.994684957778190437239,-440.334287667965611490217,-728.645078514663168789411,155.599399360248952461916
45.9624999999999985789145,0.45547133992858890305655,-0.316615097053138117022542,-0.0478284917096300776773177,-0.00861826862201725552026232,-0.0126963808465739534658834,0.0264542837461506225027463,-0.00687920591055725567930512,-0.00369642675718098896731068,-0.624786930600385481682224,0.780755881277734986589678,0.0185848276480500840257548,0.0163133346627851172350177,9.66779214445626067231387,0.0232901212341660168725355,0.00260788528189628788719889,0.149058452480237302317789,6.35038525112056984056608,3.78736546120099371037782,3.96827361426910485420194,1101.32511963602473770152,1088.86727202574888906383,1091.95915457063097164792,1119.37792633003573428141,-611.994252399113747742376,-718.140438537235240801238,-218.354349522521431481437,-746.459807477667823150114,155.603115661015635851072
45.9650000000000034106051,0.409182437161792922353243,-0.0704513455903245933154011,-0.0955932112640029280070664,-0.00749766624891415583292753,-0.0140304779103657059624588,0.0263632257065592422173861,-0.0069065926189100521406794,-0.00368864046106241868713815,-0.624767011917821357691594,0.780771519751133569187118,0.018357516463653134053402,0.0134486965943997616168559,9.64868079158869917932861,0.0233793115945364199381729,0.00258240786296742418776118,0.148695230670630618163841,6.35041147335078548508136,3.78731417937199177359275,3.9686483533265319856298,1099.96471264251090360631,1087.27422428467662030016,1091.68693551896785720601,1117.49055612148526961391,-456.487854140135141278733,-540.039072851319588153274,18.646934385232736275384,-765.921195238815130323928,155.606743713790564243027
45.9675000000000011368684,0.371086281140805662737137,0.174566316960955147941092,-0.136823455928282516902428,-0.00751093752967809096671159,-0.0142752152116379215501807,0.0261934121415000713273269,-0.00692289565887905990887452,-0.00365373916761046590301332,-0.624737927973043727369884,0.780794670511111621458156,0.017531818065132265260786,0.0103660679413033057771898,9.62968029902539157660613,0.0234578868211304664148642,0.00254024546095225249933702,0.148280242386566424306338,6.35043615280877915552082,3.78726785801198007064272,3.96902026145646358301633,1099.0426803653228944313,1086.16707666149090982799,1092.05238924255718302447,1115.54832035383969923714,-307.276666773311490032938,-388.686913582740714900865,272.23972109752344294975,-865.252928678287617003662,155.610263417427262311321
45.9699999999999988631316,0.360587102539905002274168,0.430711524949921376048678,-0.173713628877198600353182,-0.00818211293335890238465069,-0.0127394078659876265613438,0.0256383493601414977347552,-0.00693338260369459873783127,-0.00360060710172039081730655,-0.624694747099811986679185,0.780829175034699840551866,0.0163013949915770117726765,0.00713135767751268967451495,9.61081575639462215576714,0.0235319946899112501792484,0.00248261220672157728248108,0.147814696079436203035584,6.35045839113453247648522,3.78722525850048263862391,3.96938919509893528569933,1098.42832930864574336738,1085.33078971676468427177,1093.04813412445423637109,1113.16429147809776623035,-153.253223485365907663436,-241.769322033782373182476,415.206147802397424584342,-878.530442244760592984676,155.614361231734108059754
