t,ang acc x,ang acc y,ang acc z,ang vel x,ang vel y,ang vel z,quat x,quat y,quat z,quat w,acc x,acc y,acc z,vel x,vel y,vel z,pos x,pos y,pos z,mot 1,mot 2,mot 3,mot 4,dmot 1,dmot 2,dmot 3,dmot 4,vbat
7.49000000000000021316282,1.7572623321109610561308,0.852060141252869995831531,-0.388230038624738538199921,0.0753522677023084064273917,-0.00529614739585516653558317,-0.00630443905146606687478483,0.0022034638533084574367471,0.000630413078493690954423601,-0.92918475005901568497535,0.369607704859220453919022,-0.0270117859462217085875224,0.00626764579975719327009642,9.78919328256647247599176,-0.0191434034043744295827683,0.022496604348045543680934,0.00247368716604731654282179,0.344181994975420402216315,-5.14469628673541823360438,1.18327346279457712441285,1143.41742580120148886635,1138.20743543693833998987,1146.43588732332159452199,1129.02983615483299217885,546.972414017375626826833,678.237274036078702010855,-469.526883890021963452455,-590.237871385319408545911,157.907967663998135776637
7.49249999999999971578291,0.867429735183580130630787,0.703223692810840295130959,-0.18196928759060698732597,0.0793435327906963500099735,-0.00238663907217459992510245,-0.00759224557948284112240955,0.00221521476537290661762425,0.000531709283399139334864991,-0.929176475833378701096876,0.369628637651547076181657,-0.0249195062873847315854103,0.00717465916190337948954436,9.79096910179940316254488,-0.0191145969299340821867528,0.0228125378199256732825173,0.00242377005773045106629127,0.344256618440100081723898,-5.14470177420367580367611,1.18328023290105810438888,1144.82458046099372950266,1140.26389748823794434429,1144.99494565165309722943,1127.37955561555327221868,486.324850988522825900873,823.969052964884440370952,-550.249118552540380733262,-596.615441360121621983126,157.907021398935711431477
7.49500000000000010658141,0.119936613939159664177225,0.532095156523807899517919,-0.00766762580865776310901083,0.0792149853696468841945943,-0.00120020391034745600201961,-0.00699160165755309970930798,0.00220804086397805845662368,0.000441310161311776641239468,-0.929168399723335647344413,0.369649172157957783824145,-0.0225674898065828279103417,0.00751253883645897069243347,9.79274606116776880071484,-0.0190726443275969735624553,0.0231302306650482646099842,0.00237701968862180342337287,0.344334514065238239677313,-5.14470851276176954769426,1.18328550696309919842975,1145.84905005614405126835,1142.32728070176267465285,1143.68464173055895116704,1126.04675894803244773357,379.211525284140236635722,879.074913294606517411012,-497.742968537353988267569,-494.970902050877100464277,157.906220594227050924019
7.49750000000000049737992,-0.551267441905562427528764,0.354797666021531676872058,0.127741095239951113482491,0.0761851654524166310711308,-0.00108407001716827084032702,-0.00526880268326465790729163,0.00219171472683710741660712,0.000357120560914462876599823,-0.929160377228634870583335,0.369669612421683446701337,-0.0201513113384114463111363,0.00736734151560426708815754,9.79452167300656917348078,-0.0190151719093760128431736,0.0234459773273247608360581,0.00233339334886427038351364,0.344415003132102770511125,-5.1447159736892826842336,1.18329020750909963410891,1146.72063808741472712427,1144.65927205471166416828,1142.50623080896593819489,1124.90470110529849989689,346.550032509556444892951,1050.46857709282858195365,-438.579908758365718313144,-427.369219737565799732693,157.905405798792287441756
7.5,-1.21308249622138442092023,0.171451269592193311641637,0.222419709366724338561738,0.0709378883293561024458995,-0.00168998581293155992685828,-0.0032117760499707839749739,0.00217359776024314338069288,0.000279097131854773913145484,-0.929153308344340622682012,0.369687645495656191929612,-0.017841513092435385551271,0.00677982424674208883352833,9.79629416971291178128922,-0.0189407021932866612146107,0.0237562025381093215592454,0.00229285841826187743869303,0.344497085850795914385714,-5.14472426237019497818892,1.18329533879145731845028,1147.58180021869179654459,1147.57962358722670614952,1141.49174218676716918708,1123.90991284934466420964,283.150057569497789700108,1056.19086578665223896678,-281.86801415795946468279,-284.829741873779028082936,157.904409984262031230173
7.5025000000000003907985,-1.63747642278370553192701,0.0553342678549024122314215,0.248159425756647816774247,0.0662850412328992305566189,-0.00232257348964672342625515,-0.00205073366412423076579619,0.00216281600480722506138487,0.000208125957783311161695614,-0.929147113661927925853945,0.369703409889414802425023,-0.0158483846802824901445206,0.00579605237085385749384869,9.79806159099942064472089,-0.018848587479856654391952,0.0240578710281569609075181,0.00225515346499813263900225,0.344579690251034354009363,-5.14473303485851563010556,1.18330195087668221809452,1148.13638837526218594576,1149.94022638364481281315,1141.09689073817617099849,1123.4805523959296351677,186.040593006513859108964,884.709812816182193273562,-55.2681685021992024076098,-77.7499061475298987033966,157.903563629861082517891
7.50499999999999989341859,-1.9505762751230597551455,-0.0252640701848223722669751,0.238481525375199787664116,0.062281325646917032323735,-0.00244759622988809794064125,-0.00165540416642368068585178,0.00216440689042437595449031,0.000143536322261736491029405,-0.929142464940855949961929,0.369715183904218591681712,-0.0142962017390676609379652,0.00446999713123390207680785,9.79982162678586909976275,-0.0187392827004725336104141,0.0243483827162793986520484,0.00222016804918769407664603,0.344662212441462056933261,-5.14474229276255634601966,1.18330947340260239641907,1148.51200318372434594494,1152.00317265130752275581,1141.21540134425617907254,1123.52116331860702302947,120.1365352639211891983,744.692307728080322704045,126.066484017704127040815,93.6267090226485265702649,157.902698383245365221228
7.50750000000000028421709,-2.19413333398214094316359,-0.0855293240930511955433246,0.217384281801284412471986,0.0589387458437299269209397,-0.00214722108592437866195213,-0.00181006011071305097752393,0.00217671121964570528015126,8.64225036156215567885799e-05,-0.929140244139392779132436,0.36972075689074845872284,-0.0131971605254396183448673,0.00278345126728032910001787,9.80157217684609882724089,-0.0186142882339245079037493,0.0246255883241280476569912,0.00218835492689097108748308,0.344744557407324292430673,-5.14475229054556226770956,1.18331658818823126644304,1148.73707105158177910198,1153.66368792228513484588,1141.72722315826467820443,1123.94868594104286785296,55.463662133526028696906,536.213515356314587734232,279.954786017885055571242,252.221232014886396655129,157.901816150994704912591
7.50999999999999978683718,-2.36713933176390067814054,-0.130296127206436629375474,0.197496230687265655889817,0.0552763017698758782336732,-0.00182455167974765572642959,-0.00231137953614431309809496,0.00219325354818779554716413,3.76423734916935762845336e-05,-0.929141031482059731594347,0.369718706926877860308167,-0.0124685805360621355941664,0.000695108021667625863848627,9.80331050370483580991277,-0.0184760566830584199715659,0.0248878076432530979944513,0.00216061479102849134451003,0.344827063694238600266573,-5.14476327911182185204098,1.18332211847623636202798,1148.78932149439197019092,1154.68424022808903828263,1142.61517527434557450761,1124.78226947868142815423,-11.1789093391964904355973,274.397233811584044360643,444.357939146366732074966,431.954436818123326702334,157.900911835287274698203
7.51250000000000017763568,-2.47731153498097889098517,-0.167595330269361492137037,0.177455158843562083026413,0.0487070360721342313081728,-0.0018269605619983058340805,-0.00264852774179981809848927,0.00220975422323033739852027,-1.51835178234571431971642e-06,-0.929145271349452905873534,0.369707942036980874433993,-0.0120635591278145277993605,-0.00182178542002219001627594,9.80503261613150378650516,-0.0183279921633821840654122,0.0251338081172165841992161,0.00213781203690897219152345,0.344909252154241841026305,-5.14477581782927195774846,1.18332562242225325377376,1148.68117650488579783996,1155.03567409134302579332,1143.94901285399646440055,1126.1084581251334384433,-61.4470416035050561731623,-23.407906989037634559736,508.212546839206538606959,512.467173318293021111458,157.899799055793891966459
7.51500000000000056843419,-2.46150188529448898933083,-0.179414682365763411553417,0.153497615333134190818143,0.0413351502891546526696764,-0.00224582744664332837822296,-0.00231318454849634581177442,0.00222847567071402397759217,-3.10124156010494454478038e-05,-0.929153219347078174195076,0.369687801292810702680214,-0.0120365277604793704385733,-0.00471871151777826514095437,9.80673264462459925994153,-0.0181743523873152471037606,0.0253628413961073488624987,0.00212024728324201102575008,0.344990126311813083415103,-5.14479005424757307451955,1.18332816766442250333569,1148.48208628637439687736,1154.56720069314383181336,1145.15623800854200453614,1127.34460534527329400589,-92.4055566888020365468037,-334.963803622493173861585,475.736669335729970953253,483.901622854556364927703,157.898847230554537190983
7.51750000000000007105427,-2.31211691828651044744447,-0.16159662527113249907984,0.102841361053326030283728,0.0336007470994681908815771,-0.00296160940153478678682486,-0.00151409577874624719923125,0.0022518140255456536857892,-5.52678127313946057240154e-05,-0.929165504586405233133917,0.369656681555267929706332,-0.0124022429347539105137788,-0.0078604805443480280091606,9.80840297693768725650898,-0.0180200697512450970505515,0.0255745739158673816848744,0.00210767917550945408158847,0.34506766394512117246407,-5.14480623047323337715397,1.18333098505929612542786,1148.21914872144179753377,1153.36085507323059573537,1146.32769620067506366468,1128.52796623940616882464,-119.438828597324388169909,-664.375535778813741671911,485.200352564389845611004,466.54578273302007573875,157.897868186849507310399
7.52000000000000046185278,-1.98964186946959964430448,-0.0980034389705011499405174,-0.0065966186811953278490428,0.025879077968286787886365,-0.00391343532986472043833093,-0.000529824716544285089468713,0.00228371430235883680903708,-7.9007534946820074306037e-05,-0.929181992110332366507919,0.369614884872367488455325,-0.013190852123432588241525,-0.0110924132422550864029986,9.81003510164564040962887,-0.0178702168939805748626437,0.0257690561620170510703787,0.00209934145285273297126816,0.345141704246746561235426,-5.14482444013619311107277,1.18333532909981742342609,1147.88489214338778765523,1151.24532301424983415927,1147.58223977136390203668,1129.67733425893834464659,-120.328833979740750237397,-845.295997515558838131255,426.67972671034476661589,351.854966045637638671906,157.896660125882590364199
7.52249999999999996447286,-1.63315482034454984017202,-0.00949935590352118941481763,-0.142957008446216837782572,0.0212803414417951815285068,-0.004734819700626793914644,6.39440655765152293462175e-05,0.00231930354359288120116855,-0.000103182359460219120485779,-0.929202862241433891199449,0.369561964528323794176856,-0.0142890792248232950667486,-0.01439075922685857655825,9.81162119239117913593873,-0.017729608172101132823606,0.025946388020068929941564,0.00209476154570362952528351,0.345213370611716974245553,-5.14484481363351253691008,1.18334143473329889140189,1147.61750455154310657235,1149.13437508565289135731,1148.46109483422674202302,1130.28724106963431950135,-103.833525227084862763149,-855.511606062027567531914,315.902831596629198429582,153.77263214295780358043,157.895625045147312448535
7.52500000000000035527137,-1.23596449415650111447462,0.106648320854906844545873,-0.319533686097272173753936,0.0183927668313102130048797,-0.00521567798089864545496575,0.000210854910556053745142313,0.00235133713095340935936295,-0.000128052105618642195683163,-0.92922742984576700564503,0.369499668965554028954301,-0.0155356149750540233067664,-0.0177610081242687012359482,9.8131530358609353470456,-0.017602171634770291674954,0.0261067111365966102176639,0.00209356075254823201584053,0.345283875330993583752104,-5.14486727718611192017306,1.18334901087762434102046,1147.36572451725237442588,1146.96776498393978727108,1149.16175392934701449121,1130.44619741965311732201,-114.04279521075538639252,-892.815606646282390101987,272.955575733709679298045,-38.8960552868419782157616,157.894560552399838115889
7.52749999999999985789145,-0.768215157387664104859937,0.253972056648191057970365,-0.554708804685923317912,0.0164003146549407466392445,-0.00466058952321549840869253,-0.000368828088219158730341751,0.00237013185898525590225572,-0.000151175283519324095155706,-0.929253797387761482085011,0.369432818854356248561288,-0.016735794234924647461149,-0.0212760803132371612012008,9.81462226650010194362039,-0.0174905322493628667679388,0.0262502070427054409740286,0.00209576517864607566460355,0.345354357789959098834487,-5.14489133446587487696888,1.18335671371416006891764,1147.04729057548934179067,1144.67029705242157433531,1149.82587271289526142937,1130.09276079320011376694,-128.360794391713170625735,-745.949785988402709335787,219.724498187183741038098,-212.348133972004660563471,157.893250277340030152118
7.53000000000000024868996,-0.418083707859187914124277,0.361883836661963720349178,-0.744211240598498080522916,0.015775513656536222645288,-0.00334571050674987643946956,-0.00166800810281461371446798,0.00237008990371559077892094,-0.000172282591566180293086649,-0.929279402005925292407085,0.369367893492420884538063,-0.0177474245199197126765522,-0.024941071289485292061805,9.81601895721661144023074,-0.017395893384235378703595,0.0263771452228504510451046,0.00210141078155266997420925,0.345425662074731965045515,-5.14491634955461218936534,1.18336344730267883917918,1146.72392054529382221517,1143.23801605399785330519,1150.26037642028290974849,1129.38445674979311661446,-153.688375196773989728172,-436.964905002069144757115,153.729110093994307817411,-346.683004896347597423301,157.892132517494246712886
7.53249999999999975131004,-0.134460798936820113969048,0.434091249117654842670788,-0.889650790855825546188385,0.0162769334131744256022323,-0.00173300372466449583222503,-0.00397654472356147575123897,0.00235307074501978508856981,-0.000191611532764654013492184,-0.929301548314431791197876,0.369311674600115324995642,-0.0185568520525807856280665,-0.0287001059953407994251862,9.81733147507488901339912,-0.017318087626763976893951,0.0264879599841947310778778,0.00211037705856075182009324,0.345499021690532592820944,-5.14494140864216209507731,1.18336905036451822681443,1146.27884869950548818451,1142.48547252741127522313,1150.59451826336521662597,1128.35934576871841272805,-206.801757019415930471951,-180.813958912771568066091,117.277368773059379236656,-437.557976810612899498665,157.890990609329634253299
7.53500000000000014210855,0.0871082825583375658373697,0.469249903026970727193401,-0.970958374056115292027869,0.0174567062955993841655289,-9.82716065905305126816985e-05,-0.00706927415448136992753847,0.00232403593097206930331855,-0.000208961978225604436219115,-0.929318109383238111220749,0.369269519622234254629944,-0.0192088916869019230015958,-0.0324861218462659667727266,9.81854680224724951642656,-0.0172558148912266388907977,0.0265833423590743044007123,0.00212249514054670433346739,0.345575705588420434288821,-5.14496580742408671227395,1.18337349013521531126969,1145.68991176019676458964,1142.33394625943401479162,1150.84676326414819413912,1127.19666686574009872857,-278.161206626875525671494,68.0543625699449847843425,78.0211126871896283319074,-462.712126713695852231467,157.889831337873829397722
7.53750000000000053290705,0.243466778033905817402172,0.459990627321927081361252,-0.950876194186729639667988,0.0188066128476545510461726,0.00150322634044492949370597,-0.0106740137966882912834432,0.00229603789478868228896014,-0.000225683276139299320711684,-0.929328177204573058212134,0.369243690947600955443164,-0.0198857555072622614600331,-0.036149389969446305004297,9.81964982802778152404244,-0.0172071094177327771346242,0.0266643904774492221387838,0.00213704838484394914199793,0.345655023977934294787673,-5.14498871089444609339125,1.18337783861684009423243,1144.88804266637089313008,1142.8257443402610533667,1150.9846238268012257322,1126.04578513514957194275,-406.509961700530311645707,316.779229104765761348972,29.5621210443193298544884,-460.222052361369435402594,157.888655123350275744087
7.54000000000000003552714,0.388934387325785557720792,0.408039354853636071496226,-0.80030868993346604423067,0.0200545954896867301142649,0.00330678613776800005980006,-0.0147061814261380194301942,0.00227976892788287095747979,-0.000245198083743907715645327,-0.929332318033995630202071,0.369232796115677108783615,-0.0207143574345764365507438,-0.0395246212825767634369001,9.82062406591252923249158,-0.0171697861917383919061475,0.0267327222011661952416617,0.00215319969410749561047891,0.34573593329769619630909,-5.14501010052534102356958,1.18338307566370537493583,1143.65736195169415623241,1143.91784240495780977653,1150.99457386936978764425,1124.89555660393330072111,-492.451356158618693825701,436.757303253043801305466,-22.6300447249746241595858,-359.631731304678794458596,157.887229941024600066157
7.54250000000000042632564,0.507786566066601552371651,0.345132601390087667692086,-0.580759252717740204197128,0.0205065069695892290835282,0.00447333771236563520340423,-0.0171586645038256553619238,0.00228454519112438522027153,-0.000270540532579349756771292,-0.92933173736663043928985,0.369233892643112293630026,-0.0218032577740986562020442,-0.0424695412206640976471306,9.82145179290072967148717,-0.0171417404439362548729253,0.026790568262082092854115,0.00217008418550803695856732,0.345817071376348261768641,-5.14502968340791611012719,1.18339022341886157541069,1142.42578588557785224111,1145.00953085652622576163,1150.87147360317635502724,1124.24762647862621633976,-519.528710237829841389612,417.263964327830535694375,-69.9784857521095915444675,-181.098327469639343689778,157.886035290982277956573
7.54499999999999992894573,0.660354769831400290058809,0.284970506613682950103339,-0.294022389643833870209733,0.0202643361862959447972088,0.00476484628774194191730418,-0.0183671738962387157134692,0.00230782535503130980039654,-0.000301550779907606633645223,-0.929328950384398999595703,0.369240863511099692839679,-0.0230729617546992366028391,-0.0449926318626397564459651,9.8221149497229021108069,-0.0171212962079469593890124,0.0268405651959093445590998,0.00218764944591412317798085,0.34589711755753133060054,-5.14504768965950365355866,1.18339895595950617135372,1141.05971840050506216357,1146.00416222659691811714,1150.64468144060924714722,1123.99006496658512332942,-598.257166516408688039519,365.246895741264381740621,-107.654558450442451089657,-26.0488697851547925665727,157.884838714810541659972
7.54750000000000031974423,0.900475668943798934762413,0.240512671857016219201242,0.0822106993223162274553317,0.0200130379541575524615649,0.00425549088073792422526331,-0.0185432507780113262074728,0.00234304699196242983624816,-0.000336728356190836271635836,-0.929325847569230312217314,0.369249258464397211998431,-0.0243858705696432948029084,-0.0471627312937599879605344,9.82259430244664066833593,-0.0171070931343905024979435,0.0268857042210636325296758,0.00220642896226953431557116,0.345975096856204200612694,-5.14506477958865726662907,1.18340871861575558376956,1139.43450005299587246554,1146.83576533523250873259,1150.33320081092415421153,1124.11738212970044514805,-561.999393146982697544445,226.113562853475116298796,-106.722369436649842100451,108.13262617607736615355,157.8834068417174876231
7.54999999999999982236432,1.13503465700868688692537,0.233783088624105683805965,0.3888021669098098986872,0.0209772579683859435040194,0.00384314546533951915605054,-0.0177904786171439524555815,0.00238031352922691164658575,-0.000373400589949447715091418,-0.929323596204994495373342,0.369256535271091479444294,-0.0255583563833439685042404,-0.0491007168426314602460714,9.82286944481358403891136,-0.0170980396711186387326276,0.0269290170805306892931608,0.00222768683566700823744933,0.346050280711616031759092,-5.14508134092665869729899,1.18341829796709752109507,1138.24972143477020836144,1147.13473004086426954018,1150.1110695934260093054,1124.5307280974654986494,-401.335311361035053323576,37.2521958854130161853391,-67.7414672173214000849839,211.167963738539526730165,157.882221558380024362123
7.55250000000000021316282,1.36051058317173523271038,0.250094360706992924203718,0.65099972459448518513625,0.0241156467482120384637767,0.00401508762751501529358888,-0.0159461808380945771479453,0.00241314325885285405406955,-0.00041154135271224875350024,-0.92932263920383484379073,0.369262002407892586663962,-0.0264569042420306939356056,-0.0508601213189186357466198,9.82291818459099985716421,-0.0170931559753954159797118,0.0269732450523836597700011,0.00225297977207603809107761,0.346122692691854028090859,-5.14509758493288238412333,1.18342667218407293638904,1137.42782349619074011571,1147.02202631465956983448,1149.99449347483755445865,1125.17322194839312032855,-247.287701997498317041391,-127.487930118607422969035,-22.7036460380536766479054,316.432708894178574610123,157.881050056052686159092
7.55499999999999971578291,1.55521775615667734449232,0.272082746455459600909421,0.879914132556132821960659,0.0300957817968277169251579,0.00502586853126024257071292,-0.012384288651323106800195,0.00243748141290439255743361,-0.000448974233258617703989923,-0.929323259499883702616785,0.369265380308903712336388,-0.0270154917602601525594697,-0.0525207816319082851364008,9.82271744275132796531125,-0.0170914174038533615840318,0.0270204184125781496361718,0.00228427467905559927752179,0.346193880500470785310796,-5.14511362177026132513902,1.18343288800375923131014,1137.01328292478274306632,1146.4972903902712459967,1149.99755136323574333801,1126.11289164193635770062,-49.8408122436568845614602,-241.955358686214509589263,18.3765662921363670534447,362.400851575338037946494,157.879666679021539721361
7.55750000000000010658141,1.61817507980859631722126,0.273447571059332705800671,0.986223018813417340311389,0.0360607208629956446643838,0.00659346242276359281730969,-0.00870800844638772338079935,0.00244950437586811346074578,-0.00048435025960457192550912,-0.929326033398066297941398,0.369265613578674822825576,-0.0271743471469137083673662,-0.0541490318161114425610236,9.8222438596693990575659,-0.0170916161330430249609691,0.0270715730268332246954976,0.00232367778770294595991341,0.346264878883187132707633,-5.14513010561642847306985,1.1834358479756459381349,1137.17861943497246102197,1145.81224952122852300818,1150.08637630629823433992,1126.98522620626977186475,158.943253236450516396872,-313.258448098709948226315,36.4211374739113509235722,359.613127136470382083644,157.878537344321131286051
7.56000000000000049737992,1.56594745391418710411813,0.244207139279613905102906,1.01097789413918581757912,0.0415980933845646883018077,0.00866998207244334614940406,-0.00531808126666657478287537,0.00245437299948151818607123,-0.000521196066371399616308502,-0.929330518827441887097507,0.369264023918678296887208,-0.0270103723151736904717346,-0.0556587785066109813625346,9.8214739620195210534348,-0.0170921063407374305975761,0.0271268197686375667210257,0.00237241043374384090111628,0.346336939008715316568043,-5.14514755189807271307245,1.1834359464949979479087,1137.80799919096511985117,1144.93099814977745154465,1150.17965705060532854986,1127.91095727761899070174,304.53934525840588776191,-383.346056425315509841312,22.2755418210913589405209,374.719280332200298744283,157.877438239489578108987
7.5625,1.43408726800543551149758,0.194439336511774835125621,0.988382219350402935198474,0.0459466450862845363078968,0.0104209938445268060491777,-0.00268541417079881097537686,0.00245858892827321116880679,-0.000563006261643492255178356,-0.929336799230937482541037,0.36926037190499316764658,-0.0266335556228003492162948,-0.0569550317415202234094806,9.8203866224482716518196,-0.0170909800423598504104383,0.0271852639654601678509405,0.00243092375455248883159287,0.346410454205368090185857,-5.14516622920842348065662,1.18343449055206262343631,1138.70131616126445806003,1143.89551923910198638623,1150.1977540154036887543,1128.85882260793073328387,381.804424647142639059894,-455.666826481193027120753,-28.6045451801334564834178,377.670806291970507118094,157.876368842011856941099
7.5650000000000003907985,1.24418640797498425420997,0.145716161228532481430875,0.942539250400287631492802,0.0487066613917963575630665,0.0107636325848336714822162,-0.000979673507908909724228863,0.0024686891240141683317999,-0.000612479284129400429297074,-0.929344263516598045882233,0.369255764257037988329557,-0.0261682995907732557361314,-0.0579559380531528695046362,9.81896497770833676099755,-0.0170859137037121487645575,0.0272453284494178701868883,0.00249864669217757804156599,0.346485594556421416800873,-5.14518588867146497989324,1.18343317241428436226158,1139.71702131420079240343,1142.65266401737153501017,1150.03663432470466432278,1129.7993113090788028785,425.746136692405343637802,-598.534393619469483383,-129.492541505672335233612,398.818823793871501948161,157.875341322365471796729
7.56749999999999989341859,0.999985514835657895993393,0.131435414414750983969071,0.899834852445460131598054,0.0506223016392426602982901,0.00940376439933664556858339,0.000400526576415435788675046,0.00248198594953432565349272,-0.000670793272706935524325733,-0.929352376846086403183733,0.369250610293001380046718,-0.0255894192197334627292271,-0.0586719680308328689344322,9.81719901989217547111366,-0.0170743001029087723696698,0.0273049124266358314572223,0.00257435251984322122434379,0.34656198836559282128178,-5.14520609951599094955554,1.18343274404022325008157,1140.83004684472643930349,1140.90284727100470263395,1149.55029130787534086267,1130.85291672690004816104,363.554546115400171402143,-678.974958279892121026933,-234.464543370773299102439,360.948493833173813527537,157.874165114811859211841
7.57000000000000028421709,0.809376479844762575233119,0.176970007135378248896984,0.891555658801180594963398,0.0515264132650789311029804,0.00769149113707361109515404,0.0014003006523643807702123,0.00249639777960777202794884,-0.000738151519483559942838569,-0.929359177580033390952963,0.369248095127520437053192,-0.0248967178054385306074092,-0.0591238002881417507028416,9.81508678293666925185335,-0.017053174751550437271419,0.027361760202422324289584,0.00265566925534351872331684,0.346640395912124421595735,-5.14522642561211185352477,1.18343389628112838352081,1141.53479404477775460691,1139.25778922597214659618,1148.86431160785082283837,1131.60405377824463357683,220.295544078048948222204,-674.462094061860398142016,-334.417739977932626516122,256.814152316979743773118,157.873238838468779476898
7.57249999999999978683718,0.643917042551520268922616,0.277119582302896405590076,0.913669698852008660416857,0.0522130061027040459631365,0.00690915934784511187594092,0.00268348370963904974198511,0.00250706380708912461227622,-0.000811643805523800895319886,-0.929362018553160362799304,0.369252140026699260388909,-0.0240677935812896523493087,-0.0594053765558868324125896,9.81263649675151938822637,-0.0170194876594908124645134,0.0274135694317528440244747,0.00273948813382888459871944,0.346721707383339183827786,-5.14524652844744601054572,1.18343655503224431946308,1141.93152456511666059669,1137.53053680069547226594,1147.87820260798571325722,1132.13698748848491959507,107.255712977032558796964,-734.045908207751608642866,-495.83540375252744070167,164.653372028627785539356,157.872376823370728970986
7.57500000000000017763568,0.463863457621251251694616,0.419263385434133717399874,0.95665359677431105467349,0.0531547904155289588357114,0.00798704306875714503677344,0.00485229399284564828775945,0.00251451281277683888482066,-0.000887286382563048665189642,-0.929359705123796620007681,0.369261695164876002639431,-0.0231910752647249800151297,-0.0595873130117945473682717,9.80986739819132580464611,-0.0169707617769440863297881,0.0274580332934814368150978,0.00282166160772209101414987,0.346805726638249378623868,-5.14526591481422101992393,1.18344087557592914095039,1142.07107260966290596116,1135.58755968493346699688,1146.38513458908823849924,1132.42732063838775502518,9.71368017776360836990079,-650.497546589429703089991,-587.633556950139791297261,36.5661053420296582316951,157.871426987563609145582
7.57750000000000056843419,0.310529028266523343670968,0.517177652083716909992006,0.983502762980678402193746,0.0543522329295131265136654,0.0104483700968078709742093,0.00738233292548180330266971,0.00252249412636654799305114,-0.000962057496914787307375205,-0.929350855732471003989303,0.369277471584605720966721,-0.0224090799559343266389444,-0.0596958883232931447615499,9.80681078479037715567301,-0.0169050770612828374361847,0.0274933045956209931581782,0.00289725301630576253728022,0.346892356926033984532154,-5.14528470824744932343719,1.18344699330148439564425,1141.98009296600548623246,1134.27804906774781557033,1144.94003482323455500591,1132.31981801519509645004,-53.1551096272789820318394,-412.269337667666775359976,-600.083320343095806492784,-124.104059836011316519944,157.870713868872684315647
7.58000000000000007105427,0.129360454215061981830814,0.559474710453423229594705,0.972491174703799754475142,0.0563096282723015012505741,0.0134893668103438606198363,0.0107693271956112134046801,0.00253197850450473773212257,-0.001034958115701037611317,-0.92933668673944380689278,0.369300121360780053691997,-0.021799162761939570864822,-0.0597379263678233796142081,9.80351073760684954550015,-0.0168215582217439256484948,0.0275180968800740541335692,0.00296103727064767454149607,0.346980540428662942442628,-5.14530374732217765654241,1.18345473444531812390323,1141.80529706152651669981,1133.52621299659517717373,1143.38471798737282369984,1131.80680033920771165867,-62.4336509213676080776168,-162.336808860258145159605,-680.609308333365333965048,-317.835135591992582249077,157.87009172548445690154
7.58250000000000046185278,-0.130332275870383235139016,0.53861108875813545893152,0.895931743337161079487885,0.0586638404791648832015127,0.0164902469506541943244926,0.0149897745319372988764828,0.00254585950192380257653402,-0.00110628577272489040522752,-0.929318992924751841044895,0.369328865071535283881587,-0.0214621364474229317509391,-0.0596808829765477222295544,9.80002361716113412626328,-0.0167207010398366870407294,0.0275318497564668550336986,0.00300752542304132466921551,0.347068768516529624346134,-5.14532282967483389768404,1.18346468075068389502746,1141.66792471139865483565,1133.46636502344654218177,1141.53698828156780109566,1130.73064233723516736063,-16.9361056811798320609341,128.435325526200358581264,-649.524722886112840569695,-458.831720791032012130017,157.869460254634844886823
7.58499999999999996447286,-0.365180951745044557466002,0.476814904327863942068433,0.781652103635041339835254,0.0593761976912190805877323,0.0180503702972607399379612,0.0177716181275998676147854,0.00256404320413830414185363,-0.00117440356953654777630303,-0.92929888053750442367118,0.369363478023267799432716,-0.0214535413909069001825447,-0.0595483947894085707819301,9.79641758858814704069573,-0.0166043373247476006016043,0.0275348621095021298121885,0.00303162263890028108037633,0.347155636419939850334515,-5.1453419219929568129146,1.18347718492989351091182,1141.72061653312061935139,1134.16838962422616532422,1140.13709437294232884597,1129.51264173525260048336,71.0206412047242992002793,421.311785692259832103446,-499.875411252752826385404,-524.563827302574509303668,157.869035894025955713005
7.58750000000000035527137,-0.572076265900036351474967,0.399853511464380306783539,0.635001929236840068071501,0.0576430368905421694480928,0.0186670477613230731406269,0.0194382896863992196689885,0.00258704763240497504633852,-0.00124017603123376921221699,-0.929277341826266645163912,0.369403027423239715965053,-0.0218147577639743531219274,-0.0593145806881557255407778,9.79277037652934012612604,-0.016475676139672979642059,0.027528213655578698260129,0.00302862319905172023767892,0.347239606102742848214859,-5.14536137207870325482872,1.18349285338300336256623,1142.02302791742226872884,1135.57292395190779643599,1139.03761122530409011233,1128.10782320072235052066,163.420704025433082051677,648.377089208693405453232,-370.267048461718047747127,-563.612770399880218974431,157.868722790179276671552
7.58999999999999985789145,-0.714956327517626610834611,0.333530891449738131626646,0.481824754795259380113492,0.053904014464565268294205,0.0187490973011837681883041,0.0203435503543517998137347,0.00260972354328543355850289,-0.00130150860026374847779052,-0.92925602553242192538363,0.369444240910523746812544,-0.0224961884579334102374215,-0.0590500047932599608779825,9.78916759018681403858864,-0.0163391705824696663318374,0.0275134738520077352930127,0.00299516124464024261625505,0.347320518842551384519624,-5.14538166771228766549484,1.18351064404131034457635,1142.5377200532477672823,1137.41027507026956300251,1138.28575913063377811341,1126.69457788325325964252,246.263495618591861102686,790.450041305865397589514,-205.316748066347656731523,-530.861370542618260515155,157.868504898736176755847
7.59250000000000024868996,-0.752461963524012622528403,0.298979093436323284382894,0.34205631465120073242403,0.0491307865754124772905698,0.0186517955832467621779536,0.0206342376465993154743828,0.00262851550963996791893118,-0.00135595669578786933578973,-0.929237275324888645222643,0.36948158930156382862009,-0.0234689198039234256376595,-0.058822550054807840047566,9.78569908881209826745362,-0.016200207639790374647415,0.027492511246150371645447,0.00292912532341922486611718,0.34739825311193650581032,-5.14540348942363046091941,1.18352921514977382777545,1143.25434539551520174427,1139.52517415843703929568,1138.01102748497237371339,1125.45351634800931606151,337.835389635081753567647,929.905451527767354491516,-19.2495394424444832282006,-468.023951251517246419098,157.868403967854590064235
7.59499999999999975131004,-0.691043525905402633568997,0.302618795587094979726572,0.206089874554548774243656,0.0447327566151001637662077,0.0188192924154940502412536,0.0206210132967625421607227,0.00264578735943047727366406,-0.00140273730075678670047024,-0.929223476850197793730501,0.369509080524265731693134,-0.0247875849243656687370674,-0.0586303546699902256023051,9.78245502814598388852119,-0.0160645961749662224971047,0.0274673906489028701871646,0.00282960664264481380134053,0.3474729000134982870307,-5.14542725516188159673447,1.18354761335557290280462,1144.22689700142313995457,1142.05980232790830086742,1138.18951143342155774008,1124.35445812699572343263,354.779261905431042123382,887.980349544405498818378,125.494263144676494903251,-321.483159409815527851606,157.868419030607100239649
7.59750000000000014210855,-0.597231390332462752645881,0.339435169160715755065638,0.121705529440988946543456,0.0433254094221511634743571,0.0192276267382496049429541,0.0204948005219606696480916,0.00266510266797122643070428,-0.00144070119540220717944956,-0.929215762778988318970619,0.369523630869659447384379,-0.0265185302921350334048878,-0.0584733554306671732270217,9.77952241137259292713679,-0.0159378577582351445285358,0.0274403344173968014030329,0.00269730318263233402251156,0.347544365351562467569835,-5.14545337059665541801223,1.18356501156702642596485,1145.02824170504231915402,1143.96507590615897242969,1138.6384988006957428297,1123.84610055096027281252,295.866501577983513016079,684.888897123512151665636,195.923447334386139573326,-116.339899387303375988267,157.868544470381749533772
7.60000000000000053290705,-0.529086497205536576693419,0.39915874072415497009203,0.0603620520649109301714041,0.0439046554426054599917784,0.0199153462415273610486288,0.020388727692581709582953,0.00269012822777111876987322,-0.00147150181722852536198021,-0.929213511862672869590085,0.369526296428124567672313,-0.0286972444072182628072021,-0.0583037235926318064827001,9.77698099214906513054757,-0.0158246232225341711130628,0.0274136880932560542123433,0.00253441738075579642980317,0.347613681794221196508232,-5.14548120723448842994685,1.18358180668623536035966,1145.70622950931328887236,1145.48424681352639709075,1139.16912867009364163096,1123.77275863005911560322,250.993368772838834956929,562.813724723412860839744,192.977922023332695289355,48.4314515254947153266585,157.868784983435489266412
7.60250000000000003552714,-0.53671624055943123465795,0.477474175146304913308626,-0.0035520800346650468690135,0.0451724314316878650110709,0.0211772111923011173428844,0.0203612288011909663143495,0.00272554471192528510042896,-0.00149673229859999907739865,-0.929215314569785788556544,0.36952009158212689721168,-0.0313667050581601519754216,-0.05807109062727777715196,9.77489959016939735647611,-0.0157283379437399145617249,0.0273897744721460743855257,0.0023446544223360761029229,0.347682592081378138981762,-5.14550904365536432294448,1.18359753828124270036426,1146.2832085489064866124,1146.77914452977597647987,1139.60338841081238570041,1124.08825780858774123772,165.583902124084374918311,391.370307209316877106176,90.9911986919288438002695,155.781188872928083810621,157.869202987550494299285
7.60500000000000042632564,-0.631441169107690547512846,0.532506362158605139889289,-0.0639341332863906236516627,0.0457054407941921980729205,0.0226722305167046979390566,0.0204322668634431998946344,0.00277374543633680760088001,-0.00151794951922608681305071,-0.929218839818375608174961,0.369510418558885000983594,-0.0345187330103829681515748,-0.0577453430676828360912367,9.77333287474696099650373,-0.0156510367654842698359463,0.0273708590854602473729784,0.00213330283823678305138438,0.347752096673165533857741,-5.14553524496506220486935,1.18361151371936967890974,1146.53414901993369312549,1147.44109834957293969637,1139.62408466355327618658,1124.55166457442373939557,53.345951681013730194536,200.588021550861128616816,-80.1623589532044888983364,187.119669063490050575638,157.869655885841126519153
7.60749999999999992894573,-0.79898279341238409578807,0.560748129124783334376048,-0.149329906230388997911973,0.0451523116365592017129593,0.0245660567966424527031055,0.0205633880401832232209802,0.00282804961250404272507519,-0.00153399678128099598885259,-0.929222261913357661100576,0.369501547030874011312562,-0.0379921425395994688534174,-0.0574133732965408025150644,9.77231931255001029512641,-0.0155936383096072859327785,0.027358941281522091565348,0.00190751336647197234676343,0.347822220327707487541602,-5.14556000128453749908886,1.1836225357343530539822,1146.54993830731154957903,1147.78208463753026080667,1139.20257661604637178243,1125.0238561539051715954,-38.9354132183606580497326,114.487296382915417325421,-272.494252793563987324887,167.601557804531637430046,157.870212726428377436605
7.61000000000000031974423,-1.02988771076449614483295,0.55424815613570443950664,-0.2954484868064356506423,0.0429250557441146485260219,0.0268544935025520764559914,0.0206710829209518984206362,0.00288398811946969681196951,-0.00154331508945580991171154,-0.929224070316956196613489,0.369497017381251680046006,-0.0416630829068569685791346,-0.0571544423791105690724201,9.77187809604571100408066,-0.015556206118695407175645,0.0273557020182515660267075,0.00167535716479489359131971,0.347892421816630215136712,-5.14558326040592195482759,1.18362950686556933632687,1146.33947195384189399192,1148.01353483148750456166,1138.2616133995854852401,1125.38967236344637967704,-107.151573329158523506521,84.1612346836900258040259,-386.99088764820686492385,80.7850968539713818472592,157.8709948942884295775
7.61249999999999982236432,-1.19704939187608583317513,0.516516346836252915331045,-0.457252477711767912893492,0.039223552413649102887927,0.0284042482883843476482166,0.0205687797370063159274611,0.00293192052816593305003545,-0.00154415399381930672911833,-0.929224290748161929620608,0.369496625383263443964665,-0.0453116079092842974351818,-0.0570884927616758935942087,9.77200863231711380763045,-0.0155383103989966166180725,0.027362259336688413147165,0.00144572706246368695021109,0.347961651507971980734624,-5.14560517335616829370792,1.18363155870231073762966,1146.01418044066576840123,1148.20289081094870198285,1137.26762217780537866929,1125.42778163817501990707,-152.240928432459952546196,102.362255962182103985469,-393.924540211955218182993,-45.1433607155659544218906,157.871736550994796743908
7.61500000000000021316282,-1.28463003113911655717061,0.453899220541222891966981,-0.6533895866686960651748,0.0336661657938893757457954,0.0294523173367407520295558,0.0200021317260497856482804,0.00296667469531737169538554,-0.00153575306675568967924861,-0.929223123165136555279275,0.369499761580779240155437,-0.0487900462478879637373552,-0.0572835755360281764780872,9.77268938282572641185197,-0.015538979920812377374939,0.0273790976687883422235892,0.00122722810286625210428324,0.348030223265687110867361,-5.14562623352275227972541,1.18362903076686754033631,1145.57826731167961042956,1148.52534611129840413923,1136.29199069852575121331,1125.1639555598685547011,-187.873440519755973809879,163.341580394220585503717,-353.818609705384290009533,-144.287793003880665310135,157.872564668087250083772
7.61749999999999971578291,-1.28827376991658426597098,0.378419780494761825995198,-0.862911334576739630364273,0.0278293604763249768918598,0.0301648821061606363380658,0.0188021039887202416618361,0.00299199868765770340267585,-0.00151816104811115099026964,-0.929220484575144611838482,0.369506509826081741554304,-0.052106999337381415537962,-0.0577253162229816249584324,9.77387805851995494776929,-0.0155566917185677531382249,0.0274058937805710528534675,0.00102734248712456474258992,0.348099245193109640972295,-5.14564591789118974674011,1.18362309771376583711344,1145.07481323806700856949,1149.01959871291978743102,1135.49852912927849502012,1124.70634267315563192824,-214.586910073971949941551,243.72907660818393082991,-245.93471577873583555629,-199.786250946458210364653,157.873458883580866540797
7.62000000000000010658141,-1.20909094005728379173092,0.293912425913692709755765,-1.06017067319305713368749,0.0233472849097382528782418,0.0306439247202030702610376,0.0165514489368539900737698,0.00300978597230646760865569,-0.00149329253786719654169268,-0.92921762029954879658078,0.369513673074072124258294,-0.0552259369804070504583748,-0.0583740500568397865932546,9.77551451511701152696787,-0.0155896824998689557950637,0.0274412204091899480928873,0.00085238652522278432564079,0.348169405903547224401251,-5.14566429343330611345664,1.1836148389979264106131,1144.50533276130977355933,1149.74399149433929778752,1135.0623171196320981835,1124.16502430513628496556,-265.95320228880547119843,364.939072982076368134585,-95.698757268367941719589,-205.779882816536542122776,157.874425546329064218298
7.62250000000000049737992,-1.08197031151774170076862,0.184515421431211412706119,-1.24053649878737370926274,0.0207367619092630253718745,0.0311431160433582460145274,0.0125064905436368181690376,0.0030244624384525740576346,-0.00146773182021051008458445,-0.92921535903136209810782,0.369519111487915163927198,-0.0581259141076492791277985,-0.0590804224206147518549948,9.77752295618190281345505,-0.0156359068155622338291977,0.0274826244620269728724526,0.000706820456984083751728054,0.348241200816887919167186,-5.145682442669317069317,1.18360612262271858163842,1143.7450472266227734508,1150.84429407783045462565,1135.02003534293658049137,1123.67744325907278835075,-295.16866671224937590523,426.201378065761673497036,60.2452211367575856115764,-113.213109561823017656934,157.875659823562443762057
7.625,-1.00245731378964797464448,0.085159635089507856875457,-1.31709378690345113582794,0.0208259433668116777926826,0.0315625920357831130091952,0.00834027130131324324902042,0.00303533046581664408408718,-0.00144698729449753101840292,-0.929214792425624103167081,0.369520119572234184701642,-0.060705243338399411667794,-0.0597438204069952460972814,9.77981669969627276373103,-0.0156933300519147972407197,0.0275266078852942734644937,0.000593699288325821600970089,0.348314257883453382014238,-5.14570190854457987228443,1.18359797212185613446422,1143.0294894277485582279,1151.87499838466806068027,1135.36354322531587968115,1123.5989587573271819565,-311.381160630896658858546,402.141800197213740375446,198.743692290194900351707,70.5673706657322838964319,157.876743475696144969334
7.6275000000000003907985,-0.987480976373148910951727,-0.0251130471594312038030594,-1.29974928992584115583497,0.0216028702438339770264264,0.0319145400802260184591752,0.0042237041000957745509603,0.00304414712381540462915464,-0.0014346239372577114339069,-0.929215700342155392910115,0.36951733538507003373752,-0.062926220709300331734859,-0.0602722980693287807563152,9.78230126953312151272257,-0.015759796956336995232828,0.0275689576813284292766681,0.000514386116863137145965856,0.348388439105908775950127,-5.14572306568616344435441,1.18359136635849027108236,1142.18814142346832340991,1152.85500307881648041075,1136.01375380438753381895,1124.03028011240144223848,-409.966447366113811767718,362.635157310531667462783,329.704977416675092172227,318.454356167155708590144,157.877876306021732943918
7.62999999999999989341859,-1.02735315050164688344125,-0.168951983152336865368071,-1.17239705277572081598692,0.0211261342146404837438745,0.0319572852644772614771895,-4.7249115453046341712301e-05,0.00305210725648423584349667,-0.00142923157632322914839529,-0.929217905793607967801506,0.369511382522896891789088,-0.0647830918164276764459331,-0.0606594870209579278830248,9.78487909034540059849405,-0.0158331963045154622271582,0.027604911618879783563596,0.000468999877412478772837484,0.348464186262100072966064,-5.14574619419525536301308,1.18358511433245805477554,1140.9796571909180329385,1153.68817417122068036406,1137.01206811239921989909,1125.19123053816292667761,-480.395136930484341064584,201.718789450983166489095,383.189762301398332056124,518.5324443235114131312,157.879283430171483360027
7.63250000000000028421709,-1.06040833917477916870098,-0.293671206937438311612709,-0.990093671578956335821431,0.0187943130769403637936321,0.0315526954076742541244194,-0.00301892481169560231157867,0.00306331751103772718936025,-0.00142830400638048991834861,-0.929220473388361223321397,0.369504775320385336900841,-0.06633760702455633595509,-0.0608893683279935205021616,9.78745314936845645092944,-0.0159112840254771736869799,0.0276295818117027643101569,0.000456234359451248628648801,0.348542347155570975125727,-5.14577210341861412956632,1.18357769313939087396648,1139.78616573881595286366,1153.86359702607137478481,1137.92970261589448455197,1126.62294233401894416602,-510.851733960054843919352,-84.2434001359851833967696,368.839556446899791808391,629.118444479276831771131,157.8804892466307308041
7.63499999999999978683718,-1.01769041517489911008454,-0.414426020083624668810529,-0.75176986218109931314757,0.0146664232369643297154704,0.0308033740404217541708487,-0.00537952973362741324048208,0.00308326612038188792308535,-0.00143187225924171191403234,-0.92922098676642761461153,0.369503571530332752814729,-0.0676651583019470537205819,-0.0608823299469022638508164,9.78993127522388739691905,-0.0159915363885086460327134,0.0276384880185333581259499,0.000473262939206588759220168,0.348624170394817634033302,-5.14580052648656494085344,1.18356962289783451680591,1138.42539852111781328858,1153.26695717054076339991,1138.85626589463367963617,1128.33682276055924376124,-614.676879971615903741622,-463.388350299111039021227,404.909469569256089016562,755.047279989883236339665,157.881721822315341796639
7.63750000000000017763568,-0.806987584197046636802497,-0.541716295968211691835847,-0.434781969266060608347857,0.00868399507814554549867125,0.02952184098117987404164,-0.00706558288619432445926138,0.00311965869419614152263653,-0.00143989120550228532832704,-0.929218792343707966630006,0.369509336003324861952279,-0.0688892223026224687076891,-0.0605392729279151525778602,9.79223002907991890708672,-0.016071673803233512550781,0.0276278817012559976817876,0.000515698117544464702637075,0.348710166462174231405413,-5.14583097531737099217253,1.18356239037797927871054,1136.71278133895793871488,1151.54665527457586904347,1139.95424996374072179606,1130.39817873396827963006,-615.264310315882767099538,-785.274075920292489172425,405.942841119104059544043,706.480809788744068100641,157.883223035100542119835
7.64000000000000056843419,-0.477346863808922716732042,-0.622302163337269176324185,-0.17152408922243345124059,0.00385053059359974012010319,0.0280686431327613582220604,-0.00712975575764804043316092,0.00317723949795166785148304,-0.00145625120824676422028043,-0.929214101590561614152364,0.369521327208787275786506,-0.0700578034640215868700253,-0.0597086326454214083581107,9.79427875123879765340007,-0.0161496860943064340920827,0.0275954648739596061779444,0.000577716798383813741335491,0.348799298855756723103383,-5.14586196122523720219988,1.18355790616774814161261,1135.34907696953791855776,1149.34058679093868704513,1140.88598010022951712017,1131.86922680950351605134,-496.928054376404929826094,-994.505444538866186121595,389.129833817477560842235,483.953223486206582037994,157.884486170856945363994
7.64250000000000007105427,-0.0130245073210106393490904,-0.66355038399429444595512,0.0646983425923425697900981,0.00111052637844879760822825,0.026197794950196338220616,-0.00629139899922126922399146,0.00325134667147145266924424,-0.00148224790786219569847793,-0.929209017973306017346147,0.36953414748648477639037,-0.0710729982064183807288771,-0.0583553275463811471635012,9.79602353044752582889032,-0.0162241934145398551680994,0.0275408180998793945815084,0.000652894871098573807872978,0.348889834189745950965289,-5.14589296952948860308652,1.18355669401011587282824,1134.22814106707596693013,1146.57412805188164384163,1141.89989913282806810457,1132.81794485139926109696,-384.142530812922814220656,-1147.10048989488950610394,428.268740066287193712924,264.73693087478403640489,157.885754699599715422664
7.64500000000000046185278,0.509220558909924569945815,-0.664895840282625494310764,0.269033162366417721855782,0.00136396596879517664584192,0.0241517022161824024273358,-0.0054044266654828384752185,0.00333463115837061025575894,-0.00151659343294556991053879,-0.929204460575445034820063,0.369545464697501990780637,-0.0718123554773012900964702,-0.056514834953710645082392,9.79742821968780575048186,-0.0162941713516427492958183,0.0274659501372379877270902,0.000734294517606283599596428,0.348979615024058109629124,-5.14592298044460516592835,1.18355923079392599817083,1133.42836431547334541392,1143.60508434146436229639,1143.02732380056090732978,1133.19291146387740809587,-222.627623948260605857286,-1169.0543858555679435085,482.001342822342223826126,-1.23900631251674808730456,157.887022691001277507894
7.64749999999999996447286,1.01801517471518532254038,-0.615201276346178271836607,0.434180945155669684165645,0.00522041473768904661090229,0.0223193547589551032073185,-0.00472116570451585823575691,0.00341722782548503460631206,-0.00155507300598020929867371,-0.929201241041550329846643,0.369553291512403181418023,-0.0721340561396364432500405,-0.054301839925200198755384,9.79847545806383024569186,-0.0163591721274676492325906,0.0273751919023566235578127,0.000814972147744201166896794,0.349066408890794266373092,-5.14595079871252014669381,1.18356531542413367930067,1133.11500294733468763297,1140.7288561226039291796,1144.30990584693972778041,1132.81174981983667748864,-15.4364457374416463864009,-1170.67256698353730826057,591.66462927829695672699,-328.650805916920660365577,157.888284430147933790067
7.65000000000000035527137,1.52497475340401367205345,-0.50003058462645944004521,0.588542824764870520226623,0.0120174735163365072748709,0.0206841462606084762476666,-0.00368535856696969440701728,0.00349665375786698765653293,-0.00159512023743737358337513,-0.929199657333347306398252,0.369556886461495426310364,-0.0720234973118275556558388,-0.0517581159620858627379292,9.79916492405858718939271,-0.0164192284007822729419157,0.0272748974196249382995205,0.000887818019574662707985024,0.349149176306166653116492,-5.14597519362953548238693,1.18357436311038743959045,1133.35118208678613882512,1137.75172150654680081061,1145.98564694695232901722,1131.54965743429283975274,184.811140087462575820609,-976.841787294299933819275,622.544823057127928223053,-567.178555345811446386506,157.889784623307122046754
7.65249999999999985789145,1.82939442178168820696271,-0.362583207204290935976587,0.677883097742357443316052,0.0179554640996644788997205,0.0197840139459936684152019,-0.00226201383082232825375013,0.00357559876079321112621323,-0.00163486332738559808630541,-0.929200101421331581263985,0.369555242143685513944718,-0.0715596650578407267317971,-0.0488882197598986822928424,9.79951257353660487581237,-0.016474825666349786346121,0.0271727552258817887931297,0.000946179939665485188020344,0.349226808275499123190855,-5.14599614233526381212869,1.18358607756054556858771,1134.03905864777198075899,1135.84464718613253353396,1147.42262996222530091472,1129.97585704310768051073,361.866100745517996983835,-625.563778261370885047654,560.147080704667246209283,-687.757203772767866212234,157.891018752360110966038
7.65500000000000024868996,2.0120304020668942079908,-0.186737394782631294098962,0.719279705888747455944099,0.0232235624310589416907646,0.0192441886874318845990217,-0.000389105934440342536399793,0.0036548122484167167890734,-0.00167330127961476198515667,-0.9292029046355863020068,0.369547529288189291474254,-0.0707840420421302352060877,-0.0457090527417847169999732,9.79954973749902435997683,-0.0165266750307660990892966,0.0270769829927094973776036,0.000984629565362892672508721,0.34929836658935442539331,-5.14601460278342948129193,1.18359971380498341098075,1135.16051259051369015651,1134.62390261524001289217,1148.78638235047560556268,1128.11087141542907374969,566.057680021516034685192,-384.92546181779198377626,555.637644095543691946659,-825.217686137802388657292,157.892231406527457693301
7.65749999999999975131004,2.1189783553994532283582,0.0658371857099525614742674,0.706410612842312657377875,0.0285552757344910666803539,0.0188980164122962944472928,0.00215056896794238103232111,0.00373882529949738076288646,-0.00171071100230744759483625,-0.929206639795221223110389,0.369537299047560496845222,-0.0698015141092484525664474,-0.0422009060764742330307264,9.79931937696325761066873,-0.0165751586046161726584192,0.026995605201797473471359,0.000998994853690181924127378,0.349364643616985715013357,-5.14603069739552765327062,1.18361466910402080010556,1136.86934704787950067839,1133.92001987704361454234,1150.2008181827029602573,1125.84976861241875667474,662.173732904707776469877,-149.157186943378746946109,464.834689267591670613911,-792.504893652784289770352,157.893656753638509826487
7.66000000000000014210855,2.13655526042323584690052,0.308657310581852362130206,0.642590178416565405150607,0.0325578657097724891156254,0.0188613172057495101507918,0.00436312266407356055819555,0.00382966191456074727533787,-0.00174853814758463201733951,-0.929210460748460476132493,0.369526664048073716362097,-0.0686670649010152206459523,-0.03835461725860621340356,9.79887365545579847037061,-0.0166202832875671675794127,0.0269354185840377131910817,0.000986924707541090304521725,0.349427342694349774010476,-5.14604516950379586859299,1.18362996529233299725092,1138.47138125503715855302,1133.8781166805231350736,1151.11055579681351446197,1124.14834694716523699753,644.961955573388991069805,66.2314996545215848300359,295.2908580562955194182,-607.176833489025398193917,157.894816376885870568003
7.66250000000000053290705,2.09278330525123257288556,0.577388635615174616866341,0.530818968841247684764539,0.0367933492833425676571402,0.0192278366550207580054632,0.00628280295609597201622609,0.00392888740664792783519044,-0.0017876012226714073447692,-0.929213785331860275817917,0.369517083081393193921826,-0.0674363728250268051889194,-0.0341874938067930900231772,9.79826994083904345700375,-0.0166613387818835730069811,0.0269013629909580463672736,0.000947979851013118100452881,0.34948845815937601422263,-5.14605861519012997007394,1.18364482567861584172419,1140.09415682574694983487,1134.25117737531627426506,1151.67727247298466863867,1122.81388444497315504123,681.623942019874448305927,221.61723202439605984182,165.731629800988116585359,-480.531017959093560421024,157.895943042747347817567
7.66500000000000003552714,1.96469669314823658368141,0.908653126344339034936581,0.36133243481544058406385,0.0425077445366546374794225,0.0204770183304581430971947,0.00791024556393200850568093,0.00403078719192652337038885,-0.0018272633662565246522036,-0.929216699860463180016268,0.369508412748663361835355,-0.0660480870468095615510862,-0.0298051644835198165095491,9.79756813100183698850287,-0.0166967754788546543509575,0.0268960829310968020655626,0.000884006163239440092074806,0.34955012660178891303886,-5.14607194525902755799507,1.18365794314634764639038,1141.87950096513645803498,1134.98620284064509178279,1151.93921394581843742344,1121.74569185736982035451,604.604640245419545863115,291.163395523432711797795,29.0442460702712921261082,-299.067468301479493675288,157.897252693615740781752
7.66750000000000042632564,1.78535166158534797098412,1.16640223742370729986817,0.210938428526715210375997,0.0474865397192394955716566,0.022513086085661642571365,0.00862597486369146709828115,0.00412673236822270941143165,-0.00186732781202333985096087,-0.929219333862652763222911,0.369500432400788059172925,-0.0643898502039104841943029,-0.0253321425554713097749726,9.79682610094438111048021,-0.0167241132262953735854172,0.0269198829966467087504434,0.000798683119285081713836782,0.349614339008292307475756,-5.14608569987498487563471,1.18366813800947778823058,1143.11718002697398333112,1135.70699435293340684439,1151.82249370333602200844,1121.31854710346578940516,423.897736074250076399039,286.648648374700030672102,-108.035285545431662512783,-81.3328704325630553739757,157.898305705153603639701
7.66999999999999992894573,1.52259876963610230049539,1.36513176469687724789992,0.0776304910484970078776712,0.0522345683369906735316057,0.0258912969968755207750277,0.00829665348384240469714612,0.00420687067505051606047806,-0.00190831626668285523132362,-0.929221871482974859368653,0.369492795108680049942507,-0.0623271711511579895592661,-0.020891186845956560835802,9.79609602925774325399289,-0.0167400900990827793124449,0.0269709061131782924791711,0.000697090064200330743020284,0.349682486636781586497591,-5.14610067510240831722967,1.18367437359262739349219,1143.99898964550766322645,1136.41944608251856152492,1151.39903751809129062167,1121.33902750520701374626,286.513074992905501403584,273.782869483426509304991,-210.765199198935931690357,72.3508976766440383698864,157.899315251378425273288
7.67250000000000031974423,1.19257349984595362180073,1.48401383867958558404609,-0.0252175245809243726846649,0.0566282825036779069449722,0.0303600554851696201319466,0.00718304917702117240452253,0.00427170459015247926809478,-0.00195191174558578687051047,-0.929223336344282113685722,0.369487943258464734963553,-0.0599103551399060990645395,-0.0165081396021752868641386,9.79541967176736072531185,-0.0167407669716353388333907,0.0270456627932832358029991,0.000584601601858137243789004,0.349755477204254316969667,-5.14611724874240739069364,1.18367653588985555224156,1144.54974540193848042691,1137.07590870035051011655,1150.76866770734136480314,1121.6803015918490018521,140.347401769216304501242,248.288976759709669295262,-286.446272789641341205424,198.91532424126549472021,157.900286045808144308467
7.67499999999999982236432,0.798531926087734156283204,1.48006015025683135277745,-0.0855202820774991767649453,0.0601405654107010217979123,0.0356267872942542668246446,0.00588988111087059354464834,0.00433234927397303359181135,-0.00200073127478033645568201,-0.929221529325466755189211,0.369491255547492236654961,-0.0573798232208223429884342,-0.0121116008491087140397369,9.79482638415693784850191,-0.0167218553419012858074488,0.0271396196815196742713194,0.000466305172207653385353654,0.34983436927954775219618,-5.14613461435054819759216,1.18367537974783632037656,1144.70072665435372982756,1137.66089096631708343921,1149.96680615414311432687,1122.33360412641332004569,-16.3443476290016249663495,251.236370432621583859145,-369.417040875904319818801,339.387124925868135960627,157.901206847984042269672
7.67750000000000021316282,0.296010642944295743195227,1.32713915574058782809175,-0.123795210725125809370084,0.0622152843735723215523592,0.041722789422517579660532,0.00519771143520131231191561,0.00439700046517921792899042,-0.00205457098523738291781515,-0.929214897970507380797756,0.369506533578957685470812,-0.0549459911193800748518967,-0.00769739811537012430520122,9.79433475296077027394404,-0.0166794401288559920870647,0.0272476807535086545941638,0.000347306509679011260645354,0.349919167459789126617409,-5.14615179601007977083782,1.183672048115616215469,1144.4680236637934740429,1138.33209055251359131944,1148.92158250296188271022,1123.37723721647830643633,-141.230118321621660015808,253.810638078499266612198,-381.903520118620633638784,411.682658995605038398935,157.902249816223616107891
7.67999999999999971578291,-0.103858041077791798945107,1.09599464548035374633628,-0.14861090916158886665599,0.0616722232009705093047636,0.0456408751527105568945863,0.0055910496476802807805373,0.0044711432814887970207951,-0.00211501364395148220426401,-0.92920358071266639932162,0.369533353418754151320513,-0.0527581919467696239256504,-0.00324183671886206503653938,9.79395173116510520117117,-0.0166107530679386813932119,0.0273647053462634931575437,0.000232164935319729634488617,0.350008391576833277625269,-5.14616816908762508830932,1.18366822984060182655242,1143.99457606274563659099,1138.92994415670955277164,1148.05728855355005180172,1124.39201742139130146825,-226.378288919482031360531,265.440235521060685641714,-333.695574908058745222661,420.894001942597128618218,157.903064348551993134606
7.68250000000000010658141,-0.435436642673965645933265,0.803447848968028566218891,-0.188133493315626842967703,0.0592025511823082994933287,0.047754551719318374947143,0.00658327472530138152473356,0.00455022083751413508601047,-0.00218032696381429942980579,-0.929188869023235164412711,0.36956852821826863264576,-0.0508056568444768263947964,0.00115313931084361220857915,9.79367499656568263333156,-0.0165147159104258173245583,0.0274860177557509736956387,0.000125289444278888552905885,0.350100300464200653305369,-5.14618483725000430695218,1.18366473079675937896127,1143.33613221919608804455,1139.65929173011886632594,1147.25310462842162451125,1125.48170722619124717312,-304.12590052505743187794,373.678292240479777319706,-341.110751070883793545363,482.861680420653101464268,157.903819416378325968253
7.68500000000000049737992,-0.725156065455564213806383,0.444081376056406185170999,-0.256026221372089413108597,0.0554759101623583314455423,0.0482732706814947287732309,0.00735113816745569092353518,0.00463034668528285956595747,-0.00224740078998459042250446,-0.929171700716380000173444,0.369609781720374508395821,-0.0490952068829897322888023,0.00537278630102273890845055,9.79349223100502008776402,-0.0163921786472692523894956,0.0276078702979162121655676,3.0317992968330892563332e-05,0.350193384651472761071034,-5.14620275573381746880841,1.18366140326683666472718,1142.47394656012011182611,1140.79833561791224383342,1146.35173479819536623836,1126.80632582349494441587,-307.320347794672841246211,477.552418517199100733706,-329.647098667608361211023,480.988001101251256841351,157.904655026336513401475
7.6875,-0.879720719773351311765452,0.175055374697632215585941,-0.314077130912923496719458,0.0525891614508092672397588,0.0473479752066321354919687,0.0067945238855563689153727,0.00470619722211802152950222,-0.00231090726431969510287767,-0.929153302286083171424025,0.369654175691594422126229,-0.0476162388348188234110658,0.0092582968098160328684898,9.7933833707474704510787,-0.0162461855437637872623391,0.0277276330117804947761329,-4.9693511340573372236408e-05,0.350285737187743195786283,-5.14622269294721235155521,1.18365715151396466708889,1141.79953048022275652329,1142.04705382270481095475,1145.60486913508361794811,1127.88664723169745229825,-239.066038213246059740413,578.423424216465264180442,-316.608041266779252964625,421.110847646022989465564,157.905292432104317867925
7.6900000000000003907985,-0.970572730359102520125703,-0.0409788954898243074076447,-0.344313686569209409515935,0.0502531747581019955228854,0.0456557182736054903426925,0.00476705670542712511839056,0.00477535810921047871452361,-0.00236729696785157282812317,-0.929135376129536116884822,0.369697568805736176411614,-0.0463882362467009992657019,0.0127099290242661672190039,9.79332138145197106382511,-0.016081896254222710629378,0.0278439248768009052492634,-0.00011268220081318429436415,0.350374749100627214115633,-5.14624506225892019983803,1.18365134493597756737415,1141.27861636905390696484,1143.69045273899450876343,1144.76869459186150379537,1128.9118800617250144569,-176.74659008853646469106,825.152737766592849766312,-410.021272828234600638098,434.612140654653728688572,157.905869654200017748735
7.69249999999999989341859,-1.04825228347801724382293,-0.251119456905744609098718,-0.326128979415456932144934,0.0479996530102161991782062,0.0439050589761917561815174,0.00197092461266955851564853,0.00484189729074131942898607,-0.00241552540699046169522801,-0.929119213289863909999156,0.369736801614429011486607,-0.0455178890376072425860698,0.0157248648262783147222521,9.79327389054288488523525,-0.0159060418577992752908745,0.0279566705705137398541016,-0.000157939081706600314113087,0.350458610350144694756125,-5.14627008141171060628949,1.18364384227170971186638,1140.91579752978009310027,1146.17281751153768709628,1143.55476277094248871435,1130.05970793497067461431,-83.9651696962864377837832,990.746186028557758618263,-487.478832126872873686807,406.334679390883593441686,157.906495455350011525297
7.69500000000000028421709,-1.11479891587871482450112,-0.414941169192122483178053,-0.268805889594126767860871,0.0464830013068504091511279,0.0434731059992718368856224,0.000516244584804186968166051,0.00491413206719842985542579,-0.00245548542992675726190366,-0.929104821061191965547721,0.369771846112448399068739,-0.045167851005923013996135,0.0183512485571867695055559,9.79320635278769735521109,-0.015726125418918993764672,0.028066964226730727743897,-0.000186141343933797883325107,0.350536702933886723521084,-5.14629713589549542263057,1.18363517871437151640635,1140.85879052057248372876,1148.64418366913719182776,1142.33130043122719143867,1130.94355345867938922311,25.5838032925117673244131,1044.7532478191301379411,-524.215540146007924704463,339.284996812792030596029,157.906964245629552578976
7.69749999999999978683718,-1.20312840007127919150776,-0.608794228488456656833705,-0.190614702660878682083379,0.0451125864189253836245008,0.0438203602078853921009127,0.000348040182370572943014453,0.00499856202078640884933769,-0.00249098648664490334922461,-0.929090794417435916763282,0.369806036448534380944864,-0.0454240440761933469970835,0.0206973630359957028179707,9.79308500883471211295728,-0.0155496301970341321146973,0.0281767143388161542261194,-0.000199342515614914212286959,0.350609393720018758244805,-5.14632526495764253127163,1.18362717733007682952007,1141.0437165462426492013,1151.39658375063322637288,1140.93368507021250479738,1131.75613291903459867171,106.013771022710429292601,1110.08927492296243144665,-566.560938772466442969744,314.788049981104791186226,157.907383130443747631944
7.70000000000000017763568,-1.30921534178225074107615,-0.847577925664072640010716,-0.115325138076449826285419,0.0433067304439844757979472,0.0438034054019267662938297,0.000709764524251193444463748,0.00509512188941266350866721,-0.00252405112899544304544408,-0.92907700373425561313212,0.369839603681281769986811,-0.0462521531918822226270294,0.0227926598218983061938658,9.79288125574127121808488,-0.015383692080363130239018,0.0282879710433773176592176,-0.000200517990051807509354481,0.350677279932600838296963,-5.14635407340286388233608,1.18362160473331434751287,1141.38885937568602457759,1154.19463004375188575068,1139.49849573736491947784,1132.51749370858487964142,160.878776306319508648812,1071.57488061449453198293,-544.806664712274482553767,294.235342956153033355804,157.907765018361317288509
7.70250000000000056843419,-1.41709204039154568199876,-1.14036974162732640536433,-0.0598829241778908172300078,0.0403223862823140349886941,0.0424217156863331626426294,0.0011481978357123379802518,0.00519979261031935750814181,-0.00255751174619266901169579,-0.929063042655273951808681,0.369873563821239759175086,-0.0475271570930331857529616,0.0246536019174405790499449,9.79257300512315609353209,-0.0152342655996677792812344,0.0284025861045680561023374,-0.000193560495769073482360406,0.350741946982233210317048,-5.14638323065892233643126,1.18361978295616410150615,1141.84811042777437251061,1156.75445815370653690479,1138.20965174665070662741,1133.22730963381559377012,202.664347480281094249221,995.33821680263224607188,-479.808138999043194417027,300.681606382983829917066,157.908107991001173786572
7.70500000000000007105427,-1.51029638087756712394594,-1.52845521153835361971574,-0.0240620181124872878353216,0.0355103132408793042973372,0.0389514929994956016212626,0.00155012053093444429618941,0.00529632910577175746585921,-0.00259143377318338339471149,-0.929049591240809657932687,0.369906413088731012006605,-0.0489117034397031219539187,0.026158689631928452867804,9.79214866250330118191414,-0.0151058760272831764381873,0.0285217080476822641699197,-0.000182267272038809320698974,0.350804341418310461353514,-5.14641354283621410559135,1.18362141250969954420214,1142.40218111308740844834,1159.17132112776494068385,1137.09945504236975466483,1134.02090174049976667447,182.972399078975541897307,733.429223212731130843167,-300.684960360928982936457,277.973860438356950908201,157.908481914601168227819
7.70750000000000046185278,-1.53161227068693417407985,-1.85467132575580428976991,-0.0178968116204023218462904,0.0311503241896782696873647,0.0348882948741328288710939,0.00161887730653905727827568,0.00537208176555291610360099,-0.00262398996938038257115133,-0.929036876422213997450683,0.369937768952443790659856,-0.0501401123910444335152192,0.0271794142311278380530482,9.79160552073815537710288,-0.0150010517523603923578657,0.0286456437514255521370465,-0.000170621002478787362746301,0.350865276659090508104555,-5.14644480532865777888674,1.18362537507064935482504,1142.76297242316923075123,1160.42160426977011411509,1136.70622694484609382926,1134.61717893600734896609,100.251237184559016668572,314.548412575920679046249,-21.2934315834449989779387,215.92690692664751850316,157.908767462129077330246
7.70999999999999996447286,-1.47386826960107675255074,-2.14904648063993963802432,-0.0294752953343628866511583,0.0270642496464412463108573,0.0299762927399238425507644,0.00133227757019929097907773,0.00542710959355696253431089,-0.00265543211439001969678686,-0.929025554835653299967646,0.369965973631660727249937,-0.0511593099589253558212576,0.0277191994833789617791453,9.79094760771387662146026,-0.0149202166441405100621997,0.0287736458721694690621185,-0.000162951502537143103023151,0.350926338528198822341864,-5.14647631190350995922245,1.18363071963253907448177,1142.90343729901019287354,1160.74406319064451054146,1136.99298788445253194368,1135.10053627513298124541,-7.67487766529500703427402,-68.5793773451692771914168,288.670795147442504458013,171.776284217325184044967,157.909032249623976440489
7.71250000000000035527137,-1.30230924810506043520775,-2.42713533160174144143184,-0.0571244570128947026788069,0.0228137507702525429986729,0.0230706770661010182599249,0.00089302368854767780886883,0.00546455042393109886866842,-0.00268584779664016474673427,-0.929015738302123028624635,0.369990694089866400950939,-0.0519729411962705778460503,0.0278035803926064833957454,9.79018744193621870408606,-0.014861455577801026620155,0.0289039622041542994257401,-0.000163072081164508382415679,0.350989913306266942960576,-5.14650768243517031663714,1.18363676127341754806821,1142.72459803484275653318,1160.07870738304427504772,1138.1495809205832756561,1135.47606035709395655431,-127.769681145221511542331,-397.121230278443647421227,546.034457597545724638621,93.2870215312524919681891,157.90933321336103745125
7.71499999999999985789145,-1.0712537056511799438141,-2.57111751565172497180356,-0.0902060539539991795843221,0.0198326165338228999068804,0.0164766286011969464997406,0.000641247804574805930523385,0.00549704050867088137022343,-0.00271694332052836457630507,-0.929006632016065148071959,0.370013695692261890268782,-0.0527484628224631144077783,0.0275598223654455881659331,9.78934366663467159241918,-0.0148206532985637566557369,0.0290339705368629144577319,-0.000174508029028593253471208,0.351059004355905146521621,-5.1465381804460852421812,1.18364309705181613985303,1142.26458889328409895825,1158.7584570392523346527,1139.72316017244020258659,1135.56697138278923375765,-240.705983521370995958932,-647.707109005400639034633,720.95541114223749445955,-17.4892879230814379809544,157.909575250624243381026
7.71750000000000024868996,-0.748134119076716119778325,-2.60196586815056951635938,-0.134935338416686312346116,0.0173268404480937318612455,0.0093963892370798988984415,0.000613247029332937478723897,0.00553007825408121257010352,-0.00274982132947218646176757,-0.928997681851082113269058,0.370036219608253114099483,-0.0535339938676598695033171,0.0270563732262370376657756,9.78844324897674589180951,-0.0147921865431672339835645,0.0291604053505043966931787,-0.000199519531728325729335802,0.351134777912451900849788,-5.14656694481219556536189,1.18364917706447547729454,1141.52106811723592727503,1156.84017183801734063309,1141.75435797629438638978,1135.38861391747855122958,-368.683944629409438675793,-932.087622713262931029021,940.103395465413996134885,-141.560872911807848595345,157.909814356632750786957
7.71999999999999975131004,-0.258495621572374933982985,-2.49897786218525119750211,-0.201715531211354270890723,0.014822603999723887174822,0.00110633512926206194898482,0.00084208213364973685897269,0.00556736472893121225880009,-0.00278611137671258123765794,-0.928987460411467180776413,0.370061694582877021009182,-0.0543489870322137191838152,0.026362257589844825811376,9.78751872989829685423047,-0.0147695656659409136485239,0.0292798731115226709698085,-0.000239416278589235908278235,0.351216930434600005384027,-5.14659349215348793649127,1.18365467101391774740193,1140.42116917013709098683,1154.09801892568611947354,1144.42367714976717252284,1134.85916701823020957818,-414.169101399110957117955,-1043.47817568402615506784,967.321721453183840822021,-241.858426025970089767725,157.910104942048405973765
7.72250000000000014210855,0.222460579340684722060573,-2.30182528556459198298967,-0.262149270556478242166776,0.0134327291813313310503419,-0.00529510037048673120468889,0.00111789207747304002345257,0.00560815495461769713408939,-0.00282714547405128182808176,-0.92897659731558668294582,0.370088414307484292464778,-0.0551446486205403180180795,0.0255124932569773393842283,9.78660707814836072770959,-0.0147468155139660484637121,0.0293890426134473942143543,-0.000294459836914770349287213,0.351303856118994894952579,-5.14661903367797091135571,1.183659132462018037657,1139.45022261024041654309,1151.62278095959732127085,1146.5909665835602027073,1134.17932178734872650239,-370.271532560751779783459,-989.647226260812999498739,796.812507175139216997195,-309.669120393479488484445,157.910355078979563359098
7.72500000000000053290705,0.746907390749836364030045,-2.00768200718310829699931,-0.308546959776892115723257,0.0137042807933457078117812,-0.0109265477441949122872078,0.000734974679466187958559731,0.00564653749138240880489636,-0.00287289439061486550838764,-0.928967357317167730101914,0.370110604254780317656781,-0.0557986610869899424258733,0.0244828190959175268082149,9.785748141706436697973,-0.0147191927703831833273984,0.0294850533877744902522267,-0.000363893709401880941379376,0.351393334047405025977184,-5.14664518982890495379934,1.18366288551227483161199,1138.56981150733304275491,1149.14978279438128083711,1148.4077396856434916117,1133.31082141626256998279,-337.444963252626564553793,-1043.62132232415615362697,665.792190517245785486011,-405.156451852926238643704,157.910618947226510044857
7.72750000000000003552714,1.36624960229973790859503,-1.57638946726901485462236,-0.314637013970660905926024,0.0170202933445442530779879,-0.0161739438502182426848908,-0.00148957263917465004485208,0.00567499583093642248621258,-0.00292074933250851881058607,-0.928960766161383677541608,0.370125588971040475616547,-0.0561869869991940898423799,0.0231924137068525854088463,9.7849823132576450035458,-0.0146831744111748721537403,0.029566067520939116192169,-0.00044617678689176784243009,0.351483194245577001968428,-5.14667296942382446189868,1.18366619127249705911709,1137.76299779397731981589,1146.40467434797665191581,1149.91992753614636058046,1132.15353952808413851017,-238.509176422763260916327,-940.271761951473308727145,421.752521463358675646305,-425.472595318942694575526,157.910957174204895636649
7.73000000000000042632564,1.82534547553527404240015,-1.18066887695304933991736,-0.259807975511855193673227,0.0219250149729841824208787,-0.0190633473398636212048363,-0.00423859515481415319998471,0.00568956969354817224115983,-0.00296981433985806560910126,-0.928956980779475749443463,0.370132747910147164027705,-0.056245638496724231769619,0.0216180353111695977563755,9.78434686218965410375858,-0.0146365882411161659509835,0.0296314664147322229248438,-0.000539499005381158659548635,0.351571279180082907345195,-5.1467023281817878554989,1.18366910244877754365689,1137.37726562521925188776,1144.4484239846240143379,1150.51650229296024008363,1131.18345843966790198465,-82.907999959936148570705,-685.994605038391568996303,98.9316822851854453801934,-368.175684321257563169638,157.911260780240553458498
7.73249999999999992894573,2.17888843921384323110146,-0.778787527609836605080318,-0.147015367451827305700363,0.0276740199809472967040769,-0.0206498415581415559194589,-0.00595931021865972639084408,0.00569755471728425767069526,-0.00302359355889352671153958,-0.928954677856006938441169,0.370134904175299650486153,-0.0560893490765418945009912,0.0198972562484756726464141,9.78387238295379546570985,-0.0145783072805326669590942,0.0296819613440532717452136,-0.000642323471359032842527281,0.351657321777163522913412,-5.14673252858880125870655,1.18367133478711195060384,1137.34845779417764788377,1142.97470132278476739884,1150.41458594757227729133,1130.31266110647788991628,51.7636312584283686533126,-496.375515583269248054421,-141.364981925610948110261,-320.358044355186848406447,157.911590972022935375207
7.73500000000000031974423,2.42337685701033800356186,-0.388344216360709204582946,-0.0104435272076599163643129,0.03362668746491806470722,-0.021469053414981370542236,-0.00606337293837879917624001,0.00570340487840833351013137,-0.00308385491320168920320599,-0.928953064298487674044225,0.370133589653421746223927,-0.0557987060826554553960577,0.0181133737385867493729918,9.78358523879327357519742,-0.0145082602059410700062747,0.0297193752783909415082775,-0.000752478540471142342584143,0.351741825230230398258158,-5.14676306440642150619169,1.18367217266597957170404,1137.63608378151138822432,1141.966546406707720962,1149.80967738333220040658,1129.58166821789200184867,191.114868438630281843871,-285.954670856569180159568,-328.958494751448313309083,-254.300931482299318986406,157.911945845458348003376
7.73749999999999982236432,2.52118864908110840161726,-0.0218205574888449826964631,0.116806880631191337127639,0.0399411424173401058412836,-0.0216766307417298603743561,-0.00478848967785243904982106,0.00570942824666916242531967,-0.00315018249761628548605286,-0.928951727512725700108831,0.37012947151353586816569,-0.0554340868514648366094377,0.0162912719815909851073243,9.78350637803475287057609,-0.0144271697682126689293858,0.0297465052031407641008887,-0.000867286299890800116939304,0.351824665139697401183838,-5.14679234279913355720737,1.18367162011030901958009,1138.30403213637077897147,1141.54492796850195190927,1148.76979347381507068349,1129.04115644906642046408,375.766301787515487831115,-57.6173425984064593308176,-502.474783413355680750101,-201.727435999559673973636,157.912333232387595671753
7.74000000000000021316282,2.45790914026401496883523,0.385059696444925436686901,0.223015473062705915641146,0.0479002075456335940639718,-0.0214045821216017582988567,-0.00289766281928513329269048,0.00571413876131893032350728,-0.00321822933016482426796245,-0.928951406523476186372079,0.370120528082342803433136,-0.0550167971703664215876728,0.0143530512451158082098956,9.78365110827249395697436,-0.0143365502949625387568711,0.0297668146193387390952001,-0.000983570664867208181020297,0.351904448251847301598616,-5.14681979569399405960439,1.18366939867153964094371,1139.51491529044892558886,1141.67845969371569481154,1147.29730346626547543565,1128.57303103789422493719,504.497662163078814501205,140.034583157081158333312,-536.461938463169417445897,-154.513816708434603697242,157.91283864745452092393
7.74250000000000060396133,2.25406933989955460262422,0.692962009723840477448675,0.262842236094160297543709,0.0546226050005338137349753,-0.0206969879997187071463127,-0.00154130081905097613553801,0.00571873480192371195368617,-0.00328269520497988156332303,-0.928952407523330525584981,0.370105995832616052609865,-0.0546230171874112074847929,0.0122190270204395601272296,9.78402691161055670932001,-0.0142383588411961817254969,0.0297841206766429889007952,-0.00109829356668131252090792,0.351980731744359176538239,-5.14684522301467861638002,1.18366571499249140231314,1140.82652044718656725308,1142.24510088428746712452,1146.08748378149880409183,1128.26858736552412665333,575.551493465685325645609,292.59937341844931779633,-442.316520331369588348025,-121.246962579973882156992,157.913295219155912718634
7.74500000000000010658141,1.90714418655915163292036,0.957676812521836118285989,0.256602613502922849431087,0.0606475861465095369973177,-0.0192521431969520998017664,-0.000623529663248039768032316,0.00572774245598588627875758,-0.00334281645757587885306461,-0.928954871421605710146707,0.370085785704990788413937,-0.0543544833380174147174912,0.00991265947790459511779204,9.78463231254844600925935,-0.0141349141269829885192433,0.0298020099335851995636659,-0.00120901626988959161844439,0.352054404962580169691222,-5.14686894819226115060928,1.18366086540259352055671,1142.3926727577772908262,1143.14145656080791013665,1145.08572086460867467395,1127.96679622499436845828,731.664378389829948901024,428.769666629532423485216,-373.485725990266246299143,-146.191123936071960542904,157.913789576599327801887
7.74750000000000049737992,1.36378860728091644283211,1.20130918826463783943836,0.21243330654326600392956,0.0657535919836017002104711,-0.0162990701363374887455926,5.46902937164951290270956e-06,0.00574189157299112400145713,-0.00339956926517168654677814,-0.928958345863079348880831,0.370061902333744696669271,-0.0542280496487473895328435,0.00745925999739650846809269,9.78545893912059661090552,-0.0140287094431476924705215,0.0298233501689783540855583,-0.00131358772335201431230578,0.352125539262747311308743,-5.14689163122214399237464,1.18365479433727749380978,1144.48484233913563912211,1144.388949217435083483,1144.22005515154751265072,1127.53763174584378248255,789.099250092811871581944,453.856198703679751815798,-267.201124888885033215047,-171.791330772206521260159,157.914426570029263530159
7.75,0.843054286756126480817386,1.32022149384427511797924,0.158940622180431145871182,0.067877809404295358364223,-0.0126714036191298839995056,0.000233440770176446314937771,0.00575929947719617911505718,-0.00345356960664995344539863,-0.928961569060466563207967,0.370039155876562497748949,-0.0542117193622427759325255,0.0048580561183369508349017,9.78649221855446960205427,-0.0139222538379256150636865,0.0298498792969985604628391,-0.00141024753037481925636853,0.352194997075162719024632,-5.14691458724640504840409,1.18364792854828526635913,1146.33816900824126605585,1145.41073755432626057882,1143.74971524016427792958,1127.10783957113335418398,745.620236718439173273509,371.626311730877830541431,-163.039449254396288324642,-183.362017411858971627225,157.91499317244617373035
7.7525000000000003907985,0.294949868033538287193096,1.32929710788781596519925,0.10240957549724569175531,0.0681641157906326400350849,-0.00813827789496297977767103,0.000278240444918285013530673,0.00577699734625929366832464,-0.00350554225234161586505222,-0.928964821418280628506636,0.370019448753954538489097,-0.0542494570420737551308399,0.00210372272583324304573438,9.78771178423471610585693,-0.0138182757187518909930413,0.029881759327050276542348,-0.00149782550924211802986785,0.35226307029779269086589,-5.14693937576043669679393,1.18364101011971700749825,1148.21294352272775540769,1146.24708077608943312953,1143.40485790527554854634,1126.6208216587845072354,804.168423492473152691673,302.811909872713954428036,-165.732699087588002839766,-219.60639643680693211536,157.915595180625501825489
7.75499999999999989341859,-0.36090781550421974221976,1.20800664151328263073992,0.042509655577776597756845,0.067265721383226950713663,-0.0027436179043081932761583,0.00023085666816187913716503,0.00579522784699189157098242,-0.00355578608735620171552028,-0.928968537439587960236054,0.370005479812369975078923,-0.0543428912243105466384208,-0.000789940159381607998057007,9.78909175425390642999446,-0.0137192289081111643694877,0.0299176216262443429860785,-0.00157594357146046359051395,0.352330237393706557913475,-5.14696699603102736375604,1.1836348646284882146773,1150.35901112570354598574,1146.92479710368979795021,1142.92105174472635553684,1126.00980758894934297132,747.416685711020818416728,193.542439976503857224088,-216.040770892100283617765,-224.409004891281483651255,157.916355383075199370069
7.75750000000000028421709,-0.893407473531250828635564,1.01281526415614830938239,0.00421821832118594777089049,0.0661027337307062839988347,0.00103009886893235869977092,0.000157677428228960024884572,0.00581251877696783731536145,-0.00360428758253778826203817,-0.928974304020924068758802,0.369995897338944446097742,-0.0544620145938631006199415,-0.00382144185435924488292159,9.79060246876015760619794,-0.0136272687349288292718574,0.0299545573628928751830358,-0.00164470083584333836082547,0.352396898818353454529984,-5.14699773725295006698843,1.18362965973471334635292,1151.95002695128277991898,1147.21479297597193180991,1142.32465405081507014984,1125.49877663432812369138,565.245721824533802646329,76.5651797997650618299303,-292.404011256946319008421,-204.064934252532822256399,157.917017334624432578494
7.75999999999999978683718,-1.39994120285741363574061,0.760377618013634015703417,-0.0189073729421143366113967,0.0642404670747648565143351,0.00359189981134507875515371,7.87461939680705359789759e-05,0.00583654578885705460633559,-0.00365149203053516391292987,-0.928981862244080858204143,0.369987737514189896081973,-0.0547378553714827076337457,-0.00690673427213350787923218,9.79220952530732624552456,-0.0135436812950104762398595,0.0299884378296715534140127,-0.00170506238017550395234811,0.352464269672803975907982,-5.14703108368764628011149,1.18362609383705397192443,1153.18523973482615474495,1147.30762300268861508812,1141.45903168844165520568,1124.98948291768670060264,411.715776397622562399192,26.8588417914094215177556,-381.920695850893878287025,-204.182962865893188109112,157.917704305530435249239
7.76250000000000017763568,-1.86941837301977931140584,0.500997976178618298348511,-0.0283889761581828693748353,0.0610643075705053425816793,0.00482560662018941596146382,4.14606836935932485024153e-07,0.00587008602478080940278993,-0.00369632231689315899833548,-0.928991147528680172307247,0.369977603173869462604983,-0.055222249901581754727431,-0.0100158644637797222820552,9.79387715392199886821345,-0.0134686585424459090432059,0.0300142791744719798774366,-0.00175787236257779217601938,0.352534116917780193656284,-5.14706685682269693415947,1.18362433848075521147791,1154.00860583327084896155,1147.34908718492897605756,1140.41505057156064140145,1124.47786181999867949344,206.117174852319806177547,32.5417559860347012090642,-426.698076084837055077514,-202.341123916871964638631,157.918408158591063283893
7.76500000000000056843419,-2.26370043080321892148277,0.283409884735569939095967,-0.0207323455990165265994118,0.0559682959912189553763895,0.00450104854659046267617573,-8.03700450137696397086284e-05,0.00591276001490454849313094,-0.00373728534480609591444944,-0.929000589207238047784188,0.369967106356469788153163,-0.0559122409394079283861956,-0.0131394865640530045247658,9.7955683636053905161134,-0.0134009077520126362870201,0.0300268361660840192584043,-0.00180372503869697872747047,0.352608040774607722767087,-5.14710409037221605643708,1.18362325037553683948488,1154.21582560908791492693,1147.47033178261881403159,1139.32554130801713654364,1123.97777729810218261264,-67.7147662220264408006187,96.0470757814184707967797,-428.152476856948908334743,-202.370825243319586661528,157.91912749868865262215
7.76750000000000007105427,-2.60608629632247135177181,0.119313431872950778678266,0.00875860725962808797651071,0.0481622721593775657278336,0.00325481330885147353976228,-0.000183278983376622417195839,0.00595703866194533231820385,-0.00377258075660487487631989,-0.92900946474223922155744,0.369956757048184148306547,-0.0566782638583483155958476,-0.016315978835043931649551,9.79724604017015288093262,-0.0133382489249640467932068,0.0300209810771884626212636,-0.00184259925122731574656521,0.352686908941791332772198,-5.14714203632574474056582,1.18362145556158848691553,1153.67003200216072400508,1147.82932256383605817973,1138.27428818727594261873,1123.46600769378210316063,-329.109470101009435438755,169.469905914915187850056,-296.904420842117303891428,-152.578418461056173782708,157.920002244281818093441
7.77000000000000046185278,-2.75610895759438889740522,0.0796725606899355703882648,0.0500016548323699364098083,0.0407983424476134684533157,0.00222650403025251688096664,-0.000266494696432378441307981,0.00599490227365866764491775,-0.00379995316980566173042932,-0.92901717172463238458846,0.369947477503819843747124,-0.0573870891412973233025596,-0.0195866929183209081966055,9.79887232843581656993592,-0.0132778947343779925999163,0.0299923191651692983006328,-0.00187415759678109848998528,0.352769791878286165243139,-5.14717952029485648068885,1.18361837332849151316339,1152.57027825858290270844,1148.31768131219337192306,1137.84101920380658157228,1123.2148852057969179441,-548.804824518595410154376,217.473311076996736801448,-41.3025147234756957459467,-32.4839554502893932408369,157.920736115268113053389
7.77249999999999996447286,-2.74818599933399854151617,0.137063599355639054167,0.106454599318509063321514,0.0332555151628256412399409,0.00168156345523739320611811,-0.000314327898496699175822505,0.00602469486585157937980073,-0.00382310339945328469049568,-0.929024665750652345330707,0.369936603651651152446789,-0.0579808583388636555877582,-0.0228311633036845651467672,9.80040725153933678370777,-0.0132171875200476247880221,0.0299375193151637866706416,-0.00189849223373982621022871,0.352855346650655543605524,-5.14721569245150512017517,1.18361438761687232101849,1150.92600787956780550303,1148.91668911922101870005,1138.06777561365856854536,1123.30358791653065964056,-797.873378128650756480056,252.21679101855980320579,267.026444981144095436321,153.053692179540661300052,157.921469417697977632997
7.77500000000000035527137,-2.55631514254309655242992,0.292001454091229684095765,0.185283582441608529745025,0.0246194853471218139118193,0.00173666230811751645495,-0.000248870862808529423517573,0.00604331854217492019099023,-0.00384393219392881397081241,-0.929032333735334225899294,0.369923262705933175720219,-0.0583909543144251058643945,-0.0259669727921309489993007,9.80181134055295544271758,-0.0131537391409777080358845,0.0298547628998197117633495,-0.00191554933783361297852665,0.352940682025283114509051,-5.14725019748092993410182,1.18361034985375934702745,1148.58091136793973419117,1149.57876526728614408057,1139.17615142871227362775,1123.98015366669460490812,-876.513728555956276977668,204.569600911513390428809,532.211850230953587015392,360.250313510012745155109,157.922342056183254044299
7.77749999999999985789145,-2.25735670577161151584278,0.465042909699390882849457,0.251735781650221313032745,0.0180064041145832805235205,0.0023494503909352072723582,1.55680136149520683204364e-06,0.00605460534029970097458229,-0.00386229733292904262031975,-0.929038887102714650012558,0.369910883686688229943229,-0.0586919149187451541505034,-0.028896086640487497754215,9.80304476770642452265747,-0.0130855461807559969589221,0.0297437956268815500981972,-0.00192556956628652637363019,0.353024031444019670278323,-5.14728356839943135270232,1.18360716343535687933297,1146.54343923678811734135,1149.93953712377856390958,1140.72883486481327963702,1125.10483948408068499702,-781.040104695619675112539,80.1470761004583209796692,710.42625523770459494699,568.514432494169682286156,157.9230582265037412526
7.78000000000000024868996,-1.84342182422710765266061,0.64476848940747655269945,0.304246203447656182738967,0.0124166598567184618268078,0.00377038908498710922251318,0.000596963401556755888198447,0.0060638185519472261042484,-0.00387755931811837760078698,-0.929042934128116448810886,0.369903230622733614207931,-0.0589897355132787334919264,-0.0315195874951352955628536,9.8040685041810728961309,-0.0130113409176472408917968,0.0296056058935500812645536,-0.00192884166615902002267502,0.353105530903596198655237,-5.14731620847940263274722,1.1836047035624726042613,1144.675710844461718807,1149.97950064778842715896,1142.72828270490072100074,1126.82272582916539249709,-741.363905827272333226574,-63.4649730026935543492073,915.73100079574169285479,868.306845448496801509464,157.923756998855537858617
7.78249999999999975131004,-1.26421423668650012572812,0.82139551118691611630851,0.330604706892037913945614,0.00769133701557859171538123,0.00673537370960900286243067,0.00186113574085113248415824,0.006073889520643480435802,-0.00388951152330654003827504,-0.929043216572247421147779,0.369903791836390327674167,-0.0593456768634544884477577,-0.0337510540016529164697445,9.80484533768989230395619,-0.0129305796325387533513007,0.0294421573572310711630617,-0.00192545255410978238645725,0.353185457662755553087663,-5.14734829833293350276335,1.1836028443744988081221,1142.83661970765183468757,1149.62221225876510288799,1145.30748986879189033061,1129.4463737113230763498,-595.938188990397975430824,-188.605155308509353062618,924.169870743818705705053,1021.83396713655747589655,157.924568409737020147077
7.78500000000000014210855,-0.756371755811469981267692,0.907655178124301742492719,0.308566133101496054003121,0.00583267639405545944980558,0.0100663662408517432661492,0.00340103098685046179028291,0.00608122713257798572922264,-0.00389648870698977795382079,-0.929040076664982006349192,0.369912133950598631670914,-0.0597126358126202627651935,-0.0355844637044295947214678,9.80534127008433564753886,-0.0128435943639144140721031,0.0292561077687785477119409,-0.00191492201480826084586395,0.353264611606601941495853,-5.14738055498862934200588,1.18360018083293150326085,1141.69601989950979259447,1149.03647487124590043095,1147.34913205861971619015,1131.93189566484807073721,-385.05307475732826105741,-269.52747778896417685246,742.175204652878619526746,1005.20233748900614045851,157.925216812386878473262
7.78750000000000053290705,-0.271103524155638764270293,0.913496901474983413748987,0.233758807040754829076334,0.00579130255365538706979756,0.0133843841495712052858114,0.00523077795602003032399141,0.00608017443588116605207583,-0.00389719162789752080616745,-0.929034766622625185483741,0.369925518263873820412613,-0.0600019499371488226890925,-0.0370313751024231863073766,9.80552542081875877499897,-0.0127513944086219375984026,0.0290507635739182916434498,-0.00189652875537118115883972,0.353343804266235572697497,-5.14741308126101326791968,1.18359532754367857698696,1140.91135433386489239638,1148.27457486982007139886,1149.01836589205686323112,1134.47238539876889262814,-276.233084312576920638094,-311.7204696093788811595,580.099877990336267430393,986.302557956444729825307,157.925830127768961119727
7.79000000000000003552714,0.16959499642042308309442,0.855070176707404261406964,0.121876480342336779294499,0.00662969099803494953809802,0.0160125813902922096987336,0.00681851699841364705667601,0.00607165387298774002905466,-0.00389178927140949567145545,-0.929028383711065330885503,0.369941407869792293627853,-0.0602319474031625806675905,-0.0380405524587649895851271,9.80536960418285019613904,-0.0126554367199780450070623,0.0288301710720446149882612,-0.00186996918060126308264168,0.353422560895061299568454,-5.14744582223594004943834,1.18358831200443370690323,1140.31485447794693754986,1147.47787252319903927855,1150.24963144857133556798,1136.86340845463018922601,-225.39550230745160774859,-303.642768443803220179689,375.37487055043021655365,880.845066230240831828269,157.926409607298865012126
7.79250000000000042632564,0.541418985212403613971333,0.734409066522811793120695,-0.00919004850599264982990988,0.0083797920257297001112029,0.0176461297852201180746956,0.00728023905063682717775375,0.00605812214302120857767342,-0.00388068877491037694457687,-0.929022289763548614338617,0.369956515153275933283084,-0.0604442202985854271091171,-0.0385591229651424116653402,9.80485028375284528578959,-0.0125576635757688598316051,0.0285991585917494857416177,-0.00183538753298904478220011,0.353499105632763210849134,-5.1474785264440123810914,1.1835795982266739123645,1139.78437682232765837398,1146.75636102760108769871,1150.89524024480897423928,1138.87661072992000299564,-252.779471744184718318138,-283.502929913135290007631,158.021627401334370688346,764.2112262878689534773,157.926942471150880464847
7.79499999999999992894573,0.906443965163099218962373,0.538879061540458836887524,-0.142312730855033653387665,0.0115584487528880459905611,0.0188655372584349556586147,0.00611648946401074401768572,0.00604480990990217612046642,-0.0038676312366396144344638,-0.92901725080805774847903,0.369968915065900072480787,-0.0607031772776461669982595,-0.0384687994942193994818425,9.80394937213491424188305,-0.0124602397574932084733934,0.0283633162347842297801304,-0.001793853744702804831751,0.353571742359219565177142,-5.14751043056915413842489,1.18357040030681104347821,1139.05095711922604095889,1146.06035787363339295553,1151.0397395855779905105,1140.68446458606945270731,-297.76147079183556343196,-227.914871519265346933025,-31.9380197838206640881253,549.75454067422367643303,157.927520399457250732667
7.79750000000000031974423,1.15447305476661754575218,0.34368987108374410288647,-0.202565388077689645385249,0.0145426937194015337695419,0.0196531053574580359677437,0.00434632582445134991316893,0.00603650899325373999776412,-0.00385641741184862768890285,-0.929013145145859975393421,0.369978875491858039126214,-0.0610609798224198002669638,-0.0376699462193293282963324,9.80265623730228874421755,-0.0123652645600244373569332,0.0281287526099910784038727,-0.0017472420455932437862584,0.353640018093874852755931,-5.14754082188174422185512,1.18356150379197999633618,1138.29556946836851238913,1145.61678667000478526461,1150.73555014588987432944,1141.62538343329106282908,-328.00505249575297739284,-164.354795228113147231852,-178.913459550816867249523,258.354003781329140565504,157.92794511535922197254
7.79999999999999982236432,1.370133880243274981936,0.120158408989527107357809,-0.191886762265740223876165,0.0172720585716717792146291,0.0202650969454205298614369,0.00275368436596021889245511,0.00603694659479978024130276,-0.00385118446682069246259084,-0.929009668982446412677234,0.369987103834913622080194,-0.0615441806620027551111285,-0.0360815874610892484142255,9.80096899105823027298356,-0.0122746025444788343233826,0.0279015974086825463418293,-0.00169824903882495430174071,0.353705430045478663725333,-5.14756954869309968358948,1.18355323392528233306109,1137.41093185674731103063,1145.23858389749284469872,1150.1451722878239252168,1141.97623460497607084108,-392.399878719615287536726,-177.675622799737681134502,-293.214799160165853209037,30.3627602571402448461413,157.928303982992758847104
7.80250000000000021316282,1.62396184889611427948353,-0.177152423713010431782777,-0.101746242265359915224465,0.0203266185696239637392679,0.0206449934610775272247896,0.00163438746499620967192468,0.00604924115142214512824692,-0.00385713050265948983325037,-0.929006849507612808558576,0.369993451630901748483637,-0.0621571245764662855259886,-0.0336247173214803823926289,9.79889542341353880772203,-0.0121897611574233715597826,0.0276875172553770650119009,-0.00165038321694371391962219,0.353769176905432802815454,-5.1475973969218218329047,1.18354643210343990489264,1136.33357007477047773136,1144.72840855600611575937,1149.26947615008907632728,1141.77719723457676082035,-369.443790538104167353595,-212.88283788732169909963,-332.547203951792482712335,-160.968313506348152941428,157.92865083529991920841
7.80500000000000060396133,1.84564234709768548725606,-0.443250127414799743874596,0.0225350557081790102420538,0.0230414013997888474094555,0.0205222912501347477809421,0.00147541716718154868742685,0.00607402325225109805673096,-0.0038776805953729173020994,-0.929004749020693965100293,0.369997723796780975114018,-0.0628688870653396347787378,-0.0302866013644467052534637,9.79645432829889628578712,-0.0121117388600291697731137,0.0274914458587434129555049,-0.00160760685756558357149826,0.353831347193515555193954,-5.147625065705554447959,1.18354216136286649607712,1135.5637129040565014293,1144.17416970805606979411,1148.4824362680647027446,1141.1713930374442043103,-247.779666745105544123362,-254.765650841778523272296,-318.041444849184188115032,-311.047730303432501841598,157.928864970583987314967
7.80750000000000010658141,2.07462591451889188931546,-0.713281868343320857306367,0.174566131891604636727777,0.0264901629633650971540337,0.019696189690491666679506,0.00201446621124298438920697,0.00610634863957761325065077,-0.00391155484213444575719576,-0.929003456087110324190803,0.369999786850310319330504,-0.0635791821134011891913929,-0.0261949236179042643790638,9.79367680763214210060141,-0.0120409339519013027647309,0.0273174334895917754473249,-0.00157380634703211275821078,0.353892411251606198163699,-5.14765243238972569628231,1.18354028223425422616799,1135.09467174104497644294,1143.45458030179725028574,1147.67926892584318920854,1140.22195858305963156454,-111.065519621299799268854,-339.078359324783320971619,-359.748451776120816703042,-470.223791255658397858497,157.928996022120003317468
7.81000000000000049737992,2.32637372849101664584737,-1.01215541073553882966962,0.364599922922169472627729,0.0320194516924333580365492,0.0175424471414557144044455,0.00308080351330250381408637,0.00613926875405017887649128,-0.00395535892116022271686182,-0.929002343451815315589215,0.370001352261864202564112,-0.0641654780413241643266531,-0.0215424998290194708028267,9.79060570897742898921479,-0.0119769567504388312756403,0.027168587649432949376882,-0.00155272177474515384390519,0.353953500475012339254732,-5.14767924684145317115735,1.18353981113877249065069,1135.00838530595001429901,1142.47877791143218928482,1146.68369400918413703039,1138.82027408116596234322,52.2466971672667810366875,-352.231684653459751643823,-378.160079156858841997746,-540.529537102213566868159,157.929051977834575382076
7.8125,2.48074629541743751914851,-1.21259383176166690709863,0.515302297698578937179548,0.0379646440354148295703851,0.0145853314168198616024297,0.00404236170856580798171898,0.00617176227813370607833132,-0.00400706512367907715516102,-0.928999581981844291256323,0.370007030581045726069789,-0.0646028585913894920489398,-0.0164639403871689460334693,9.78729355691311653231423,-0.0119185737967569087281117,0.0270470423714816721183496,-0.0015481457348936202532419,0.354015375227700823668187,-5.14770490094182164853009,1.18354044606975472575527,1135.35590522688130477036,1141.69342187852998904418,1145.78846853005893535737,1137.51931089754862114205,214.903310263075610464512,-274.175056472955873232422,-382.375167810149775959871,-533.882105108170890162,157.929010968617404842007
7.8150000000000003907985,2.53110261627992461086478,-1.33013482469683053110998,0.643063927977247651313064,0.04514905683791300278207,0.0105245851015956133622797,0.00540223956567763025776729,0.00620585663597185942241818,-0.00406661788429818916307257,-0.928994534867579990766728,0.370018368511822570710024,-0.0649082563041052246211038,-0.0110431040186076689924022,9.78380180757151407533456,-0.0118642239854023518602633,0.0269538045005851545354858,-0.00156361814078937767791277,0.354078312385267324202687,-5.14772897746505275762274,1.18354222983238943633921,1136.08290185726536947186,1141.10790262906743919302,1144.77181817013342879363,1136.15086355562516473583,337.868189933677001590695,-179.807690856663811018734,-430.730461737457630988501,-554.688616650594667589758,157.928875883276845115688
7.81749999999999989341859,2.46873987017220608564116,-1.36257150256377612684844,0.739956587832050538544593,0.0527293912383097682083921,0.00608388140904885053178441,0.00742713498585695092862879,0.00624275213864722202522506,-0.00413514091293853622288701,-0.928986812809004525171019,0.370036297820616866260934,-0.0650763283580085283297478,-0.00535279063794125153918912,9.78020000729719640730764,-0.0118121448949194216698766,0.0268888282034252211472047,-0.00160205558287449282769965,0.35414287581680231609127,-5.147752143495476495616,1.18354479053219208140035,1137.04524617654965368274,1140.79438342424668917374,1143.6348162213716932456,1134.74586781429570692126,421.940178666736642298929,-47.5325194472599079631436,-478.406810240231777697772,-574.6568005337062459148,157.92866100695093223294
7.82000000000000028421709,2.25954349262554687882698,-1.28939238993522620191357,0.788129193724128151998798,0.0597321564328561899204217,0.00197219158600122571739499,0.0100352525352965481209022,0.00627889327361627093415652,-0.00421187146124537593883108,-0.928977017147233463667533,0.370059365849018884198074,-0.0650310115333673083304333,0.00046383852829123828342972,9.77656501994181681425289,-0.0117607751394518886267626,0.0268510416407316265807736,-0.00166531849373890029203382,0.35420929608735624016802,-5.14777579392849293782319,1.18354742878516172588377,1138.19260275059900777705,1140.87024003183114473359,1142.37978411893232078,1133.27757955295669489715,530.055969523766520978825,118.884285580227498257955,-558.639668895114596125495,-672.650933976197620722814,157.928348424798457472207
7.82249999999999978683718,1.85328093947960703680167,-1.0965097811377455538917,0.786469789022172904857655,0.0661494599020793494492665,-0.00217077133822755809905436,0.0129102782103558914178487,0.00631145514972285444355027,-0.00429490814887061901627963,-0.928965120370814245731594,0.370087704700733544083135,-0.0647199123796755731996555,0.00624946654056676709210194,9.77297783418101140284762,-0.0117087466853269227262668,0.026838622271001564417725,-0.00175439041117101779225507,0.354277410969925543593462,-5.14780040479023970334538,1.18355018842469972284448,1139.69552602416843001265,1141.38880485214781401737,1140.84161787689617995056,1131.38261314441479044035,567.910327054517665601452,245.877477867412153500482,-548.018856056853906011384,-725.473450228871115541551,157.92785929086505802843
7.82500000000000017763568,1.40862798147261325532043,-0.871487875074525519814017,0.742292437168116436829735,0.0697596436788812251927894,-0.00486625278419075980168573,0.0147714477547878086927113,0.00633515859767940468783021,-0.00437717336427438565710224,-0.928950911269553980531555,0.370122008279004266473322,-0.0640858149227569173778107,0.0117387554259156534630648,9.76952241043310110057973,-0.0116550962412919987404303,0.0268492680706228954712333,-0.00186904154749205635328846,0.354346925983419214212233,-5.14782676850762932474481,1.18355245767916117394236,1141.03215438587153585104,1142.09962742116817935312,1139.63968983864810979867,1129.65021230181241662649,557.342238245613998515182,315.61103533185428204888,-440.475504156278759637644,-726.11241808729141666845,157.927356471730973908052
7.82750000000000056843419,0.882326642600410271377598,-0.614966206885815713789611,0.666358524762700188404096,0.0725692207945344142094868,-0.00647424894936581875326542,0.0164005670590471504255436,0.00634849488442627320206046,-0.00445450421421992974468917,-0.928935762359355932105132,0.370158898995530227793438,-0.0631216891769942056722442,0.0167523880200258906691957,9.76628066898361169023701,-0.011599564034494145095544,0.0268803678186357829227315,-0.00200842313835230277044297,0.354416775554572738293757,-5.14785510551408442836419,1.18355392993330466033797,1142.48223721539693542582,1142.96686002880733212805,1138.63924035611444196547,1127.75205105397776605969,677.83135607966494262655,385.645248050431348474376,-379.333092589794318882923,-856.002212219364196243987,157.926755340732626109457
7.83000000000000007105427,0.187662555808305153703941,-0.313346137945967828652982,0.553211461936991000243324,0.0751475710233253657577279,-0.00706025462099648878910862,0.0181236448805848077148184,0.00635172210646840068593022,-0.00452424875439377208868885,-0.928920603999419003393712,0.370196069771591862451743,-0.06184386579330482247574,0.0211590503982163891105728,9.7633302394427055048709,-0.0115422241915580196802704,0.0269294175041103339696136,-0.00217097776122092151612764,0.354485892098653387893847,-5.14788478074256605765413,1.18355443825676509561617,1144.42131116626978837303,1144.02785366142029488401,1137.74302437569917856308,1125.37020124071568716317,752.816134172023907922267,373.229039934002457812312,-279.500253648945147233462,-865.452520076742302990169,157.925921833634163249371
7.83250000000000046185278,-0.413906027771261342262932,-0.0927970837696981271092156,0.450894279192331826067175,0.0757399037525322699204722,-0.00694610688865765230765037,0.0191743110736765642876378,0.00634572215167986206779682,-0.00458731891500806059080997,-0.928906409116046272167466,0.370231056393633406464971,-0.0602564952890456279055442,0.0249059148738107610787651,9.76074157339997938720444,-0.0114833918726117128333852,0.026994127972619547106703,-0.00235456543602096833242565,0.354553472130107905080365,-5.14791508195661862146153,1.18355344361688241683339,1146.24631788625697481621,1144.83300522847730462672,1137.2417390878697460721,1123.42478845359414663108,774.447445374897256442637,292.361200997181072125386,-162.735214771649964404787,-733.293455554819161079649,157.925135494154261550648
7.83499999999999996447286,-0.989517836760064106726986,0.0757467599114671347182437,0.351049691896448801120556,0.0736953439403102150695446,-0.00646245179261742061505025,0.0198024597097472554452224,0.00633987482038359494163071,-0.00464710567882257227084741,-0.928893595466477539623895,0.370262603185274374872904,-0.0585019913515569256468041,0.0280572316595335130573474,9.75857408799275738431334,-0.0114232996391810132791322,0.027072406987538478323474,-0.00255686711588260558863928,0.354618651375372295753152,-5.14794480354547623335293,1.18355134803796180342772,1148.29354839314419223228,1145.48965966640616898076,1136.9293483018409460783,1121.70373396294166923326,935.521145975300782993145,254.905760249090207025802,-113.520298318556029926185,-668.999611677796224284975,157.92425668207079070271
7.83750000000000035527137,-1.58809704286239661286118,0.206424858406655920006756,0.241594955771036762337545,0.0684882936208473791506179,-0.00517804729250818246422128,0.0201976102923441501457713,0.00633982406682242777967717,-0.00470439856895778565903932,-0.928881934678360332569014,0.370291173568502773871813,-0.0566758613462267288318763,0.0306150216698287819250268,9.7568774235563004992855,-0.0113619050791412459083807,0.0271621762108553398140653,-0.00277477818553174306048792,0.354681089945839855825938,-5.14797312044742216841087,1.18354900541388019519218,1150.92392361613337925519,1146.10753402972272851912,1136.6741375962769780017,1120.07979039520523656392,969.117629194827486571739,208.636338696446614449087,-83.4853346909785187790476,-506.766600175625967494852,157.923099322727637172648
7.83999999999999985789145,-1.97582923644397001616824,0.255866268263175267172471,0.159608209183380617135484,0.0624628580439645433863838,-0.00384989066661026516080746,0.0203467257207659985018822,0.00634880430627442118168835,-0.00475817144963129774748456,-0.928871398822789573479497,0.370316797280541343262428,-0.0548456928818639652400968,0.0325440775898015038913869,9.7556893137775588797922,-0.0112988593521797849733579,0.0272609258027461456852514,-0.00300451964721077215483835,0.354741971888187124228864,-5.14799996662471759378832,1.18354659753417257306296,1153.13913653911822621012,1146.53284135988837988407,1136.51192162838606236619,1119.16990096206359339703,851.036050085731403669342,170.439990374510671244934,-54.79533024831769694174,-270.478968016237843130511,157.922052816311492051682
7.84250000000000024868996,-2.23313118843578806149708,0.256342737241266882541879,0.0819313889225123243020832,0.0556548672194383739486589,-0.00294929308072200543552888,0.0204289280649650115129212,0.00636266516442424243799048,-0.00480738644991469694228714,-0.928864001794325711003353,0.370334505502890098949109,-0.0529489985531091528203618,0.0337697042173959599553612,9.75503470771437619646349,-0.011233753071702577003288,0.0273652246061330955972934,-0.00324145968879382484831297,0.354803560223447222998772,-5.14802652545081596002774,1.18354376591728760459432,1155.17910386656194532407,1146.95973398159526368545,1136.40016094503539534344,1118.7273955551240760542,752.896123118141645136348,183.758197697993011843209,-28.2776143049438033472143,-110.040046828683060198273,157.920926020929442756824
7.84499999999999975131004,-2.39342032132769277907869,0.232674085661842916517017,0.000432881919625996425260439,0.0492981370737330601428106,-0.00262030924464686258354429,0.0205123021140820281649209,0.00637489749217907790412863,-0.00485330399868294688758841,-0.928861083659808905999,0.370341034291404302969397,-0.050866935322825310161754,0.03425683748536585693234,9.7549232284786508984098,-0.0111657736627522076455765,0.0274707052658537329015154,-0.00348038168731293773988655,0.354867749266216336856417,-5.1480547423756215508206,1.18353963935397832329954,1156.90361715470885428658,1147.45163234837832533231,1136.37053355686134636926,1118.61970072792018982,573.402914310521282459376,219.419721911031189165442,22.0800013034936597478008,14.0674087734626755974432,157.919736385478387319381
7.84750000000000014210855,-2.46965574149728972486173,0.199903651801319137693014,-0.0962674584666362853635491,0.0440192269249756878979341,-0.00286943283362747075804222,0.0206128284222385493862362,0.00638156465719049315749034,-0.00489837855017988352962499,-0.928863252680831585905707,0.370334900579831094447059,-0.0485217517960931515874634,0.0340260713714208157254504,9.75534795849428881808763,-0.0110937961836668676912643,0.027572250125082062299775,-0.00371570303514381569676139,0.354935145779169625157579,-5.14808537898969387214265,1.18353282022811545637353,1158.04611843811449034547,1148.05683259115039618337,1136.51056095155286129739,1118.79773259899138793116,325.491581209320486323122,287.557097234685500097839,114.765861064670644964281,107.108063036122615585555,157.918475416369972208486
7.85000000000000053290705,-2.50792344642066966642346,0.165271236229770135395256,-0.241271483785867768556699,0.0381237997128647601585705,-0.00327797941581016915799096,0.0206917221009499351092042,0.00637997075639987979572831,-0.0049414909284302126896149,-0.928869444375205577379973,0.370318841949819788084142,-0.0458867945322573161925916,0.03305757472215183068176,9.7562868947398087016154,-0.0110163595305456211981276,0.0276645391915724472853277,-0.003941446663170126811504,0.355005412340638704105089,-5.14811824259166161965595,1.18352213247090376491144,1158.5310750607557110925,1148.88941783455197764852,1136.94436286218478926457,1119.15524104310088659986,11.1145920882338575808035,310.680653321385136678145,205.813725492366586422577,129.132369359561408828085,157.916885411954837081794
7.85250000000000003552714,-2.51662717448363615346807,0.140497472617284985263453,-0.389716917482219704638169,0.033136482694160633577507,-0.00322477108956114102977786,0.0206084398674831748010661,0.00637554784498889186294956,-0.0049807680453255610136809,-0.92887767349807404126949,0.370297767817446998872555,-0.0430913208167188130359726,0.0313912868864289901216225,9.75770199958029671449822,-0.010931853461110991460048,0.0277424875602031092980404,-0.00415204635074749393158777,0.355078329171464035507455,-5.14815297299939889086318,1.18350815216458715717351,1158.1016913985556584521,1149.61023585775728861336,1137.53962957901467234478,1119.44339444578918119078,-348.501036178921083319437,273.952850856454858785582,279.534241774405529668002,91.6638241315032615830205,157.915500401347912884376
7.85500000000000042632564,-2.50942240654598158755562,0.110896580335402852868221,-0.561630358043922583988206,0.0279698379309288348848472,-0.00281795232030552372792798,0.0201450139252568639902652,0.00637184057987952301438384,-0.00501506707776024941713988,-0.928886666221824475186963,0.370274826147517888141891,-0.0402287869895943395182059,0.0290802893472907192373711,9.75954221596696136487026,-0.0108389403854279326583354,0.0278016501717809616511801,-0.00434245606904328645958557,0.355153526922847295743679,-5.14818923050329591006857,1.18349153960473629787487,1156.78856987986114290834,1150.25918208883422266808,1138.34203407105678707012,1119.61356016375839317334,-760.797852309376935409091,246.766523687625323191241,384.196084195636103686411,41.484493990493291448729,157.914057824147846531559
7.85749999999999992894573,-2.47254717841064763916847,0.05701195899581856102456,-0.774997971166413002208628,0.0214823787833587180606809,-0.00222182593661831824863317,0.0187991117354086439972249,0.00637047728386722772464523,-0.00504160848544154237271808,-0.928894482657330655683836,0.370254893303002874382912,-0.0373727171631721352684785,0.0261459986984762943196259,9.76174609730513331840029,-0.0107364651924837708335536,0.0278387236251911862616737,-0.00450843684696299734637748,0.355229243399969640826441,-5.1482260534333468271484,1.18347272389911650769534,1154.29770213700885506114,1150.84406847619538893923,1139.46060999999281193595,1119.65081691574164324265,-1035.11701148142878992076,170.170084893656166968867,421.701037992906890394806,-4.41284277249006073873261,157.912265552319894368338
7.86000000000000031974423,-2.40153970390194571038478,-0.00975561662874168365744421,-0.935908948276041208202969,0.0157229005924554403328397,-0.00164420812452193820102364,0.0167649155966491346381186,0.00636663437066975305966832,-0.00505698945993774112012131,-0.928899919892731684711862,0.370241115466668602174138,-0.0344872189860874478473107,0.0225617021597929040543917,9.76424484346155097114206,-0.0106237823886661548328236,0.0278516945041583224851323,-0.00464673021552351479118714,0.355303647946049627748266,-5.14826236593681851871906,1.18345213125196968562136,1151.61298482245410923497,1151.11003251330248531303,1140.45053926102127661579,1119.59149594989594334038,-1151.1610470962086765212,52.1856711559405326283922,391.214930031455139669561,-16.9003036402049424680172,157.910724868502626350164
7.86249999999999982236432,-2.26389811404077656575851,-0.10032708768018228084884,-1.04836854894070619081958,0.009584632632642895583297,-0.00118929576203425160785265,0.0136478489006857453547106,0.00635696483242104235650283,-0.00506023285220517666377349,-0.92890252398092432173371,0.370234705409854869539998,-0.0315481920537675555871182,0.0183629296918268458682633,9.76696340639615279144436,-0.0105007207851506041001999,0.0278397401340290361060337,-0.00475575801953695333906813,0.355376439968076496267457,-5.14829750380779938012665,1.18343071004289646097618,1148.54189690152793446032,1151.10499683197508602461,1141.41668465015004585439,1119.56631539754062032443,-1377.16300845643877437396,-67.2894295076290092083582,403.52663185518343880176,35.0934415338095462288948,157.909139808668754767496
7.86500000000000021316282,-1.9985796776034412403078,-0.226215765759135101209409,-1.09949808826633277369922,0.0023428190811571464324814,-0.00122990393099046144489983,0.00907749430212305592757804,0.00634077587039868096480122,-0.00505330369190402570178655,-0.928902211865354932029959,0.37023586284915904753845,-0.0285603222980028680078046,0.0136630964910911950616068,9.76982367210366930976306,-0.0103674843726577810970602,0.0278029921676466035274089,-0.00483582740337503130118035,0.355446523530406621738109,-5.14833138454465810696092,1.18340981997501981659582,1144.72716978017206201912,1150.77358536576434744347,1142.46817242029715089302,1119.76696315756498734117,-1375.98578059420424324344,-172.996812893161660440455,360.195777142178542362672,138.226776293118973626406,157.907191622662935515109
