t,ang acc x,ang acc y,ang acc z,ang vel x,ang vel y,ang vel z,quat x,quat y,quat z,quat w,acc x,acc y,acc z,vel x,vel y,vel z,pos x,pos y,pos z,mot 1,mot 2,mot 3,mot 4,dmot 1,dmot 2,dmot 3,dmot 4,vbat
78.0700000000000073896445,1.05107965766932798246103,-1.14843640850040618062167,-0.533584824610122798738132,0.0101854646430631044784487,-0.00142261167688953991949941,-0.0121198360645635733884307,-0.0149774698365889840506737,-0.00661874597986584090741902,0.990060310783230868025839,0.140014745636527104810654,-0.175757250721498836654177,-0.150003533286983542494042,9.75999593395265740980449,0.00226359728845534772037618,0.0109153738529763639358849,0.0042131684116727911165734,-1.23944139861628732646182,2.3361402756911742173429,3.49911484260292171555307,1139.76951241281471993716,1133.99674482195473501633,1129.48516268425032649247,1132.75567027962665633822,-197.811693092062029109002,294.644467239617256382189,-272.400789085232759134669,250.410570227193488790363,153.001574983888303904678
78.0725000000000051159077,1.06063794439791747592494,-1.15643877453027998924995,-0.303248352982219027129673,0.013146955634564303980194,-0.00500809182515340057390008,-0.013395276795295247423967,-0.0149939282496024933050149,-0.00661037885964534457916564,0.990068805774752536130734,0.139967951274014901219545,-0.175935944910696584475573,-0.148173783786006929563683,9.7585853595845293284583,0.00239012877749493219542432,0.011049871132914170293593,0.00407894416489315396467941,-1.23944619344071571553911,2.3361184954483955600324,3.49912744501031180988093,1139.34711895856366936641,1134.8283867213974644983,1128.78130188651448406745,1133.31898084568774720537,-154.060533303212707778584,372.568855149140802041074,-290.451871544283164894296,187.810877775234814635041,153.001749360536848598713
78.0750000000000028421709,1.0613640266786301680213,-1.0482921627047936397048,0.00442677936311070691077774,0.0163721830442461850629865,-0.00963529815283418501759005,-0.0141852366773334605254409,-0.0149935360043633812004993,-0.00660109632603583362103761,0.990071473847064953410779,0.139928625897037861580685,-0.175542695005605986491304,-0.146133325399150110213142,9.7574633537612118772131,0.00253347613033445828722989,0.0111994149542547702380624,0.00393333421029035210786384,-1.23945138327424264623744,2.33609611522494464708188,3.49914022860221285426974,1138.9992097462993569934,1135.85958909769874480844,1128.03290332653023142484,1133.69472466850197633903,-105.782272954007368070961,355.123154742891642854374,-238.604659820601767705739,74.8293685412362066244896,153.001981477118476959731
78.0775000000000005684342,1.07197051160443757034102,-0.860497604160855300570176,0.268559760719022988517679,0.0185305093729322446771679,-0.013124763469936275017691,-0.0143686918556769089444503,-0.0149811833300496233950527,-0.00658763216210853617960108,0.990069562247802847920752,0.13990053771096927492934,-0.17472580333891940540525,-0.143872989393120293000194,9.75665361653789098284051,0.00269476451103814592866192,0.0113665453063250022902597,0.003777461857911697164919,-1.23945716793086124773993,2.33607377392578241526166,3.49915328713900031232242,1138.81820759379411356349,1136.60400249511030779104,1127.58827858741256022768,1133.69312768839358795958,-59.2421623676357214094423,245.01220960282353189541,-122.509365857306434577367,-67.5301000324612061831431,153.002195818387264125704
78.0799999999999982946974,1.1135352002484419919881,-0.592000734194610522820312,0.512492746323732539792672,0.020322989603992633322882,-0.015435416364639045067042,-0.0134663305046597292502497,-0.0149589662051618655508323,-0.00656978476434419856461178,0.990064078686025972331208,0.139889433234426346919221,-0.17357563152140992324135,-0.141442351524242060367698,9.75617558576355570210126,0.00287391522040961839776219,0.0115529724478700759893179,0.00361302893536332575541437,-1.23946419463774804015088,2.33605179212082170181475,3.49916627766538068655677,1138.70299893446144778864,1137.08465014571174833691,1127.42035649724425638851,1133.35707416833997740468,-48.6519922170361027724539,130.194330880413133399998,-0.95222649538386783252264,-211.794311310551876204045,153.002434064674275759899
78.0824999999999960209607,1.2102256141189655647139,-0.219276662117725229528276,0.743740344016004195637493,0.0225320627501958761773615,-0.0167309547891793114482439,-0.0107004282904680295129829,-0.0149281540729359878810767,-0.00654952760796536498366649,0.990056093602869835557101,0.139896135905692275969159,-0.17216270660140375881042,-0.138935044732974632974987,9.75604267934238933435154,0.00306987016158246327213188,0.0117594934788917901413718,0.0034423812812041233548388,-1.23947288415752820966986,2.33603077911861500837176,3.49917804351581596122855,1138.57494763270915427711,1137.25497414951178143383,1127.58351745493564521894,1132.63415613184179164818,-53.562139027995890216971,-9.26424457364220366173413,115.625571950890204675488,-301.171042456880968529731,153.002750128134948681691
78.0850000000000079580786,1.32540678443275683484615,0.09730495760380764025399,0.862712445049793719142883,0.0247217298261527829161821,-0.0166505884576580963363224,-0.00742040522752932928812752,-0.0148856485663579340972262,-0.00652435984526139687439406,0.990046503919435050278253,0.139920099769076156093206,-0.170484888649063803800487,-0.136348822427057453365862,9.75626355407515433171284,0.00328071076613839279420559,0.0119859625404641068069367,0.00326827883647762447438812,-1.23948402807797974922721,2.33601005085663926408301,3.49918708173508807846019,1138.43518823932095074269,1137.0383289228434477991,1127.99848435699982474034,1131.85121895605266217899,-67.3909388749114413030838,-154.558056011930204931559,201.79170081175578843613,-324.91649269769328611801,153.00304046629884169306
78.0875000000000056843419,1.45638791680659451799329,0.378470259219902072089781,0.89659317599494736672483,0.0274434017148050754530964,-0.0154636331522378621394775,-0.00418805118553586524371424,-0.0148319110065733839043389,-0.00649416016212054063999615,0.990035871702318215348271,0.139959885826457436364123,-0.168599599418731760369639,-0.133737427925086443947222,9.75683740269438537495716,0.00350385911612726731745315,0.0122311750909199577069808,0.00309389602709077282671757,-1.23949790214781319086512,2.33598844325074450622992,3.49919306773459526382908,1138.23799293833394585818,1136.48218386945063684834,1128.5924759589963741746,1131.00957366835018547135,-85.9118820523562192192912,-268.070610930833993279521,239.508232727975610032445,-326.187644878315211371955,153.003360727865469925746
78.0900000000000034106051,1.57613791660616509027193,0.604344749566110062133362,0.869385650761641315398265,0.0307248908826733731214365,-0.0136315937697088478824936,-0.00148770023045115685859929,-0.0147702030335898192719979,-0.00645784191527339502397753,0.990024416323842859632975,0.140014149759152023433373,-0.166616442759711436139014,-0.131141817666597937375172,9.75775438302529352085912,0.00373636289807731869147545,0.0124929841400713993043725,0.00292240418386766152153422,-1.23951493502227227949675,2.33596427939002371232391,3.49919654649932576617744,1138.00562882905956030299,1135.69797586819049683982,1129.1960255206386136706,1130.22028073166256945115,-90.9441839372365734561754,-351.246399310640526891802,202.1033802037455586742,-281.866579857370993522636,153.003706958757987877107
78.0925000000000011368684,1.64574603855989987089004,0.741904393181488819308811,0.792943597840030767187613,0.0348149157059514935408373,-0.0111877847978080757762598,0.000487188283366889033666747,-0.0147088689657546133754407,-0.00641466479721865354829413,0.990012505174239332284003,0.140078647331377093010474,-0.164736283774654101996759,-0.128619438791063911420309,9.75899469653654705325607,0.00397524965047382165123091,0.0127685526242759007919947,0.00275670515214571174716918,-1.23953446168149228334698,2.33593689962922557157299,3.49919861904610041136721,1137.78327201864817652677,1134.72595187289903151395,1129.602992860014182952,1129.60024076906461232284,-75.6188564085510961376713,-443.127197357756017481734,81.2889422445380489534728,-216.268912201409222006987,153.004085496826661483283
78.0949999999999988631316,1.62383139159582468025178,0.791774365377872269000648,0.680635606862027731089881,0.0405664827496464291956002,-0.00775986573162953333776537,0.00214168442691529091470581,-0.0146548297744660653563198,-0.0063632383544367111111173,0.990001171564755533260893,0.14014388594823509737175,-0.163127216293155075099719,-0.126205327349574958351042,9.76053171587320811397603,0.00421784637785988132663295,0.0130547548407478342102905,0.0025991327086133195894968,-1.23955540400872665784959,2.33590746465793763775309,3.4992005738732032682492,1137.62753454701714872499,1133.48233988140373185161,1129.60247023186093429103,1129.13893617065650687437,-22.6604340198015599128212,-443.72045775480160045845,-110.757193961863549702684,-120.56770442111024976839,153.004577854589598473467
78.0974999999999965893949,1.49088824246838735909648,0.740777716859904677981774,0.593585882534134134935755,0.0455333763990487250250538,-0.00510992955325813898864729,0.00295938562236214633416331,-0.0146084116450963408945229,-0.00630576590757752752230969,0.989991158889469313741927,0.140202667055931873285601,-0.161812610425565384097979,-0.123979576699463939215562,9.76233422765882785654412,0.00446170856802687726405665,0.0133485633997903613279234,0.00245144194053719018111526,-1.23957689422228067854803,2.33587729465446791721206,3.49920326417321136958094,1137.66996984854927177366,1132.50734958412704145303,1129.04920689020536883618,1128.99740224695960932877,69.0560916850729427096667,-342.257050843475269630289,-352.21052481706607295564,-22.0545078658716491304403,153.005020093815886639277
78.1000000000000085265128,1.22466891110784503737818,0.613135743716255787738589,0.532099168007686529335842,0.0499377893072694561960034,-0.00319778134469961457242437,0.0031921298337923378375669,-0.0145690176390825109481453,-0.00624618998293266156074388,0.989982229311968553453482,0.140254820387634260292486,-0.160785841070255952622858,-0.122046543866317996895887,9.76436514068785754716373,0.00470445301908238751320557,0.0136472522274402371239566,0.00231492035887440050778707,-1.23959907428125015727005,2.33584758049301965954214,3.49920636480542057711318,1137.97281500544318078028,1131.77105462718304806913,1127.84141760777220042655,1129.02866363132693550142,204.089816832780627464672,-228.176190978515592178155,-673.50448654312344842765,13.708194481951858634261,153.005495256460875452831
78.1025000000000062527761,0.760116056824580388351364,0.405601736022692616057128,0.490088228483711696448211,0.0541906139758109445248024,-0.00163901650393050786654048,0.00323877116911554675110496,-0.0145327791287646508611164,-0.00618509613900238789524488,0.989974202889155385776121,0.140300653564351729407633,-0.159978886870886183313445,-0.120428488804202232786977,9.76658372018332876507429,0.00494393066054462856917517,0.0139483220204907384237591,0.00219035784702735492057712,-1.23962237663555208122546,2.33581863641418463473087,3.49920935028393964572047,1138.6904189327151470934,1131.36646862923225853592,1125.68168445748324302258,1129.06594321936950109375,322.000707084473106078804,-46.8603977725223188599557,-885.379683178994469017198,-23.1212706103389074030474,153.00610268116702172847
78.1050000000000039790393,0.275147775073794786937498,0.214947996896499682328852,0.466815944204534927219896,0.0565900819369416011039853,-0.000891705858240898069366764,0.00369774818911702265675223,-0.0144979510147574298939421,-0.00612384452406430825760486,0.989967373706669317989792,0.140337545142203951042958,-0.159355717780031269636964,-0.119159536884816119606256,9.76894417712273188669769,0.00517836049659446424203724,0.0142492890102727792073223,0.00207830405312948865784173,-1.23964693881406962105984,2.33579023813211961169145,3.49921248881641222538974,1139.5828185408640820242,1131.53675263832064956659,1123.41451919188125430082,1128.91305727827534610697,407.472530789898428338347,179.435695301644443588884,-956.471201781693252996774,-138.278101986532675482522,153.006638925580006116434
78.1075000000000017053026,-0.265001245757241710165886,0.0391767821957445805391984,0.422372691539768529978005,0.0571752470039461613282583,-0.000845065244548157535990629,0.00514359151424920689466003,-0.0144667285863028498987815,-0.00606095186383818693154346,0.989961498589467137065867,0.140367322645391395807835,-0.158958440832710601320343,-0.118221416676038193482867,9.77139629677148136011056,0.00540621824274757026979055,0.014547619033665222867957,0.00197906782134418986196511,-1.23967256433127093195878,2.33576166999982115513035,3.49921602894943051254018,1140.72778158666278613964,1132.26364710573966476659,1120.89932844857912641601,1128.37455270943746654666,484.919162529317816279217,368.382946690843141368532,-1002.5784079339724712554,-295.407096151525763616519,153.007205121508832235122
78.1099999999999994315658,-0.805039226267305507711569,-0.100906088058724474620931,0.332754270806838226004487,0.0557422014633351392554061,-0.00141629045435229077021244,0.00743797058423877489180542,-0.01444048053823336619228,-0.00599987034020066974798757,0.98995612934939603011486,0.140394350863128236639454,-0.158794695954686482242124,-0.117680903308595430356576,9.77388781233277015303429,0.00562638505084188302735049,0.0148405996782069258405068,0.00189295695881774818022936,-1.23969903640049539106371,2.33573206923496146103503,3.49922035721612578740292,1142.00741435350846586516,1133.37866737177319009788,1118.40162715221595135517,1127.43602179751906078309,520.94948915407348977169,499.973084638668296975084,-936.05438186453829985112,-468.04264920680731165703,153.00779562986681980874
78.1124999999999971578291,-1.28670208142632769288127,-0.175570520443428773615935,0.168866278266034869348644,0.0516692176821915774564964,-0.00265863354283492683838297,0.0101350173412030619690682,-0.0144171252332959288350311,-0.00594817024060628578296939,0.98995122712150041000001,0.140421743741395460558508,-0.158789983662066591652007,-0.117666980989967182025246,9.77636654895292700473419,0.00583829445558645392794217,0.0151253215645319322169016,0.00182034963411268290410516,-1.23972652755616530306781,2.33570095311198855370094,3.49922484266353173154585,1143.3325290324307843548,1134.76351252893073251471,1116.21905653926069135196,1126.03433946340555849019,563.306981131530164930155,604.874125920018627766694,-814.949288323091423080768,-689.372440592605357778666,153.008415562236763207693
78.1149999999999948840923,-1.74072942148353515534609,-0.175026677960102683417887,-0.104061253180341845014922,0.0448418921819680321716461,-0.00457252004969183403759736,0.0121739685758261873688157,-0.0144011615614450180777872,-0.00590908253859059786478047,0.989946993220431670224002,0.140452052453026388079138,-0.159006205428645630561846,-0.118235535149929849030315,9.7787782034883719006757,0.00604186986057166173363919,0.0153988223483259578650006,0.00176170716953026021585338,-1.23975438187548259172388,2.33566747834890575674649,3.49922832906653624718274,1144.82394925916355532536,1136.40303800137053258368,1114.32688071060420043068,1123.98915959455916890875,512.77029216254084076354,549.923155038988056730886,-529.488576699418331372726,-769.882772629320243140683,153.009194588108186962927
78.1175000000000068212103,-2.00018502492456562436018,-0.103546571507891135843771,-0.361481982411342495087325,0.039137620673295341056086,-0.00594371060778396426843573,0.011840253022683660741321,-0.0144005665339308440431321,-0.00588646040623367651500875,0.989944509441227582513534,0.140480953099935024219747,-0.159569114253398425251618,-0.119457340901727007698163,9.78106827859081029430399,0.00623767025136044185595896,0.015658185071688857786798,0.00171764689898093437202264,-1.23978192054230196283982,2.33563200278231697382125,3.49923072147545521914935,1145.89638049324844359944,1137.51312830413098708959,1113.57161365575848321896,1122.18492560025151760783,381.306737985632707932382,351.417254481433019464021,-100.892996873231467702681,-687.762900055248337594094,153.009874511069057234636
78.1200000000000045474735,-2.14576010455149868150215,0.0184303197361671312892728,-0.594720870548212432460389,0.0343017912647230333034187,-0.00615887349018471707412514,0.00942209708143948443392901,-0.0144129223222109175556183,-0.00587351721441842309495707,0.989944162855548537294226,0.140503477256168490816535,-0.16043215171851449296625,-0.121163951610445297379925,9.78318934603402823313445,0.00642660238164082225215124,0.0159008711711365463559176,0.0016882503056485705528883,-1.23981003146710655471452,2.33559432568495850546242,3.49923192680010641808508,1146.73048294909540345543,1138.16012427378109350684,1113.82241572623706815648,1120.55034509427628108824,308.585989462388681658922,164.592338398519672182374,343.833135001244784234586,-624.067162304094495084428,153.010588907969662386677
78.1225000000000022737368,-2.21173016912534103894927,0.184290202692578619636521,-0.793600109374598572387072,0.0286868414398133812770464,-0.00507666250560647597245278,0.00545501064405813380214783,-0.0144371227563943205912667,-0.00586422989155801262922685,0.989945683444777402293369,0.140518482918443043949708,-0.161572622155417511269349,-0.123202673015070485185163,9.78509719971138025584878,0.00660959867077092963483231,0.0161249556938031744779405,0.00167340154587089159909929,-1.23983838534442525336488,2.33555493283135007231976,3.49923150250606518341101,1147.43931044055898382794,1138.33608999612283696479,1115.2907793307631436619,1119.06458978873388332431,213.400922789163274728708,-23.9836101771052057074485,708.881891833115219014871,-437.264565907832775337738,153.011490039132922902354
78.125,-2.187864136727929231796,0.314424711176384652500104,-0.873675023367002645535706,0.0237469578612724586952343,-0.00377524417580272836011956,0.00220199461785320184728509,-0.0144710948604813739726271,-0.00585843450031384594539619,0.989948353467114183779074,0.140529219306805008837813,-0.162934188373489940993011,-0.125531118796795099212815,9.78675276091566281877476,0.00678749252370262380618104,0.0163293367835415544064848,0.00167270268674156257458774,-1.2398666658528059159039,2.33551431833071054811057,3.49922935621772346337366,1147.79748756304024936981,1138.04020622289567654661,1117.36682518539942066127,1118.36402226473910559434,98.8858701177367862555911,-179.959896353993798356896,953.788226356576842590584,-154.239132643810307854437,153.012281089113230336807
78.1274999999999977262632,-2.08859184618366811037049,0.419048589659714476596264,-0.867819197143727683041448,0.0186628489269080426182779,-0.00260038700297687136453462,-0.000523165400735684568006567,-0.0145099926226433372650204,-0.00585047944760795461671687,0.989951366161673118604369,0.140541013885257498605696,-0.164423548723945767147114,-0.127994283730883479099916,9.7881251223625547197571,0.0069609852322758021536675,0.0165139019194144309743422,0.00168486929836520913858489,-1.23989546984348786295982,2.33547219211034029484608,3.49922661822471470216556,1147.93373979114721805672,1137.43629051435368637613,1120.05972046254169072199,1118.29339412551553323283,19.6998419925145746844919,-265.415830486850097713614,1128.21021133475210262986,73.0839556380697814574887,153.013118305512335837193
78.1299999999999954525265,-1.92898442391067459489307,0.496429718229606908863616,-0.805466860451059751824232,0.0135913692513830400981911,-0.00154457424576255435144656,-0.00272283346818101524774991,-0.0145538438080849760053459,-0.00583189712439293947432439,0.989954695903365045062117,0.140553784035064716073649,-0.166051686598384540261009,-0.130398624371788146580897,9.78918987090419356889015,0.00713079071773499526681883,0.0166795448073147646594894,0.00170778818228848835482359,-1.23992506385256340273315,2.33542959602166888544161,3.49922459978584043938099,1147.89598677300273266155,1136.71312707046263312805,1123.00787624206805048743,1118.72944204292912218079,-56.4697874768899055197835,-287.776065789683798357146,1177.78777485045543471642,281.077938875662482587359,153.013996772750516583983
78.1325000000000073896445,-1.70085379841479866769305,0.535697806213921490225971,-0.699237100101707698129871,0.00887144273905666504165257,-0.000350644148524418240719935,-0.0043788475753806285067915,-0.014603396617704475501931,-0.00579691478970291093619771,0.989958324718678839282404,0.140567192455446604570923,-0.16783875945004084195844,-0.132610110806946401851292,9.78993151348455370452939,0.0072974685153760670067169,0.0168283047658402476476347,0.00173863424574047763238038,-1.23995552584811652430119,2.33538757728476653596772,3.49922506756862894405913,1147.6513908537622228323,1135.99741018540248660429,1125.9486593368053490849,1119.69878381989656190854,-156.268830253809881014604,-282.961421774369853210374,1223.73566609794534087996,523.594258365335349481029,153.014927743345566568678
78.1350000000000051159077,-1.35975184915186830814093,0.531108789904473632681459,-0.552419202738043457756589,0.00425813370068803525442247,0.0013691092898885882586657,-0.00608403899320546920348463,-0.0146548223324116429905351,-0.00575018916664595935300808,0.989962774336609396819142,0.140576415684215444423799,-0.169690371473920020850557,-0.134690922290421150053774,9.79034587190749938656609,0.00746164705203905976454992,0.0169632438394146482785185,0.00177424106114907101892919,-1.23998770036813921180396,2.33534699963002312372851,3.49922755335285007305401,1147.11464262173217321106,1135.29831996158804940933,1129.12655457256960289669,1121.34741333476085856091,-237.745033727776672094478,-214.513256332624678179855,1071.91710971730753954034,666.506201508688263857039,153.016108098766466127927
78.1375000000000028421709,-1.03204152005250127110969,0.479380739202544148280793,-0.435340290630372439562024,0.00132619619833660297263112,0.00275977969752957616456079,-0.00720696502486992910535557,-0.0146997567209272497756878,-0.00569541900112859045268721,0.989967973070945417291,0.140579944441315746184173,-0.171429956763547997056207,-0.136681033004629665095209,9.79044183944975898725716,0.00762392554177260869247013,0.0170884467894874061966171,0.00181103288155867281176981,-1.24002187717944689637761,2.33530812483632521647792,3.49922976422839049348568,1146.46266568512442063366,1134.92484390374033864646,1131.308244885387011891,1123.03131482743697233673,-301.401949070124260288139,-94.9302946433771808187885,754.861328022757220423955,719.162340843576316729013,153.017145429154510338776
78.1400000000000005684342,-0.675999036142719167408188,0.374939413191354931065291,-0.347866910862426714778906,-0.000782868333951884849165881,0.00393830721225769952997808,-0.0076058582008988254163917,-0.0147361986428199021742502,-0.00564035724156548932267663,0.989973243334456576292268,0.140577587981262797089954,-0.172996376997276213316468,-0.138725879272294960742329,9.7902367823960574355624,0.00778514941440440217529373,0.0172087618369716338628805,0.00184552938072993222284879,-1.24005661795051280726909,2.33527111783355101337634,3.49923166127925266977172,1145.60763287638292240445,1134.823668488371595231,1132.90086121267995622475,1124.94322503897546994267,-415.503277373969012842281,22.9564629021960691090953,564.003619678000177373178,877.684992042466205930396,153.018238818553129476641
78.1424999999999982946974,-0.236925466477019702749018,0.188728997936619458108964,-0.298341458501574730011185,-0.002186049455801922919429,0.00505693487583053647577147,-0.00690494886971585244972438,-0.0147612157988744382292046,-0.0055885104601445930935788,0.989977773868659927103408,0.140567883206991040001554,-0.174325387593463720925513,-0.140894959364292748915659,9.78976019817048559445993,0.00794671072836646875947597,0.0173295123272201659347935,0.00187394091281356208779363,-1.24009040822923877200878,2.33523720288776770459549,3.49923509684934463948025,1144.38514929825646504469,1135.03962621825121459551,1134.12826298377444800281,1127.41973978764531238994,-470.286017580902182544378,132.850225088880364410215,347.219627209367217801628,927.875419797353856665723,153.019614892281623497183
78.1449999999999960209607,0.122267872312890990560419,-0.0142006905973804439108354,-0.305333254299062328840364,-0.00227929845450293563566269,0.00558063764865376552015697,-0.00565402526540713639552349,-0.0147800398008626297091661,-0.00554052600865435201926701,0.989980529578398660284222,0.140551422946649462453195,-0.17552178073255503276684,-0.143233233813822607993771,9.7890492422253920778985,0.00811039944146608147990118,0.0174560994988251019788272,0.00189249527634040813628413,-1.2401204918989507941518,2.3352069743083769814973,3.49924165747358051348215,1143.25620278848055022536,1135.48791961381539294962,1134.63695934872521320358,1129.58260213795801973902,-454.76745603540041429369,224.852934766952046174993,115.989980265252157209943,870.238133808016527837026,153.020813600068748883132
78.1475000000000079580786,0.454773375044098426833727,-0.258616896031350018692052,-0.336993935555314205743116,-0.00138478337534786856248548,0.00562332871264583505910295,-0.00526064040076732776507473,-0.0147977544492713004864459,-0.0054963658900369152804366,0.989982381012618817273108,0.140529981730968478448318,-0.176691257045741401121575,-0.145778260493786310236786,9.78815090701303347486828,0.00827821157606168159248661,0.0175933531701374795686021,0.00189765498962630096632664,-1.2401471700178821055971,2.33517970305519551033058,3.49925116273850456138916,1142.11131201807506840851,1136.16389089208814766607,1134.70821288510182967002,1131.77093045669380444451,-477.257142689209842956188,331.169032444764752654009,-49.8262189857033419571053,944.653001668659840106557,153.022063842962893431832
78.1500000000000056843419,0.802667503393348802376295,-0.583264870253968004121248,-0.34145263094938183012772,0.000670969063637517231825369,0.00498760879958099964670559,-0.0075006531858332579909554,-0.0148122319859150999160624,-0.00545894944992735692279595,0.989984282455851793969259,0.140506306202799774451861,-0.177793232799541733868409,-0.148609135417131221768017,9.7871230769287169692916,0.00845195309312196316198218,0.0177448522766195208866247,0.00188650054172073461562775,-1.24017184308485584054438,2.33515434549689437915276,3.49926281126260718679077,1140.86991707502988901979,1137.14376477604241699737,1134.38782825379621499451,1134.30586714631044742418,-409.446945853105205515021,371.776073361044609555393,-175.997366095249162754044,894.516037659054290998029,153.023620168718878176151
78.1525000000000034106051,1.03777111256823384444203,-0.861621756156938034543202,-0.271392264376712599727171,0.00321050832503287858835095,0.00348234685930622457974981,-0.0108824670492002964494738,-0.0148246680721920032902661,-0.00542999795117210960065934,0.989987169787491017025616,0.140479506468111831063439,-0.178855800513013141195273,-0.151791155523024023921153,9.78602856468192605632339,0.00863299608419960604055454,0.0179123145476118537933186,0.00185718801530865545296178,-1.24019547156555431932645,2.33513034522453377661577,3.49927558149746609217345,1140.06407728881140428712,1138.02277125889168019057,1133.82822605462638421159,1136.24351064498500818445,-251.345845782863165140952,348.15350605890500901296,-279.164218554232490987488,717.723534708118449998437,153.02496078418849378977
78.1550000000000011368684,1.20614420684082346291177,-1.12061758285082424535517,-0.101459263193503471112145,0.00644950225721583648985646,0.000830913608961232424097998,-0.0136548437136044271272839,-0.0148349346550008202166859,-0.00540553643041297507410015,0.989991679988780015619909,0.140447886887110573450599,-0.179896707085161478012481,-0.155272529560460198494454,9.78493540549041718179524,0.00882196344428896883638203,0.0180952794480403120203071,0.00180893801041500019467778,-1.24021919095359089979524,2.33510699630023577100246,3.49928779700508396643954,1139.61318784611671617313,1138.88453230633535895322,1132.99200716102632213733,1137.89448481984777572507,-112.210900946740551376024,333.433270401095285251358,-376.475470389119891478913,602.605797133812870924885,153.026342619927135046964
78.1574999999999988631316,1.31736518095845989151371,-1.34315172114013781090591,0.137108284500032429065186,0.00985018563315272904779007,-0.00262670222173521815053898,-0.0149391593356961085298229,-0.0148395212127117558098544,-0.00538224888675048734193451,0.989997248796565476602893,0.140415125548130931276702,-0.180864237080287815206958,-0.158998943789026792039465,9.78391459857594725235685,0.00901840059717117295545741,0.0182909793884691238008422,0.00174223800364265747619985,-1.2402438063239402676885,2.33508216216772668261115,3.49929821300545329521015,1139.50302278407821177098,1139.68993761089564031863,1131.94584870268249687797,1139.25653963065133211785,36.0341891412972756825184,303.127551567516206887376,-458.235481251729879659251,471.807678263823447650793,153.027755175413886945535
78.1599999999999965893949,1.36440771529653948057614,-1.5031130751683769997129,0.413589674958162900608727,0.0132184625019501605230898,-0.00689909399176163833089515,-0.0141385419509722550651665,-0.0148308632175935574404324,-0.0053596703593247179558956,0.990002088787716560958074,0.140390431653659691901836,-0.181616511065437469252259,-0.162950577632117898918551,9.78303765517806134255352,0.00922074162870827399030027,0.0184943833206340987884708,0.00165874050601712264528531,-1.24027071914524622542331,2.33505348732878381667888,3.49930583546480544754331,1139.79335879182303870039,1140.40017006417156153475,1130.70082975476975661877,1140.25352321116474740847,202.893317147271631029071,286.622137089344448668271,-567.429263804473748677992,359.602409493741902224428,153.029200108451902906381
78.1625000000000085265128,1.35773222046539432383838,-1.6127007871253034032577,0.721535783358458915337508,0.0171745165091053038353142,-0.012400674244429234216458,-0.011257206124534792704428,-0.0148067221757428261336154,-0.00534028591558494830637827,0.990005186934045933178083,0.14037618183135777694126,-0.182102151082715546515089,-0.167164788300436129020454,9.78237008054523116129531,0.00942680211007124874145191,0.0186983645049371878521516,0.00156118294915481522523726,-1.24030160911881348617669,2.33501922261147409898285,3.49931054290937737505374,1140.51748936981653059775,1141.12304829634513225756,1129.1087023836546450184,1141.05455167812351646717,309.065982001760175990057,240.500423441325381190836,-572.963207133382184110815,234.334163767700403013805,153.030964815278650803521
78.1650000000000062527761,1.30898301633147440270477,-1.64020290170143678842862,0.917233454979628048953089,0.0201691848955176389335264,-0.0166729051114885215567618,-0.00813055787607111675463489,-0.0147684911836810529167652,-0.00532712584088469460336102,0.990006648708438352635142,0.140373284383901980598708,-0.182332436143918585891299,-0.171683072257293622975283,9.78197031821832396758509,0.00963378987741608794337367,0.0188945273841685523752432,0.00145290890693494136043373,-1.24033605761288101554385,2.33497991848059793795755,3.49931329206232799577947,1141.33868870183482613356,1141.60267218138051248388,1127.83601371909730914922,1141.42519403000551392324,349.826228441088289855543,160.406267578046396238278,-462.160539758235415774834,90.1211480160237670133938,153.032455767216589492818
78.1675000000000039790393,1.22518695929728016480453,-1.61757616006307269884701,1.01976654877231176499208,0.0228324563093830340543278,-0.020161888988165711789069,-0.00503960191600254323734953,-0.0147197935920658287689555,-0.00532167941476933015892969,0.990006350159517545250765,0.140382978533594160452935,-0.182359282898140739881399,-0.176506039988368390591944,9.78188902277594785061865,0.00983847755375409638300965,0.0190740887565438582695876,0.00133744894391490151512591,-1.24037246067034212515523,2.3349367706234236408136,3.49931398600793253095276,1142.26662051202038128395,1141.92507963423463479558,1126.79789968486556972493,1141.50515741820322546118,410.795327925971662352822,96.3870617812484766773196,-369.140147769866530325089,-39.6164176834096153356768,153.033961141476396505823
78.1700000000000017053026,1.08947459180564698577598,-1.55077310199802820278592,1.02102917308311447186497,0.0259469310119670656944457,-0.0236817390941369936008254,-0.00160517336059014855548233,-0.0146621503371326955544873,-0.00532058462790101389938702,0.990003965357241777489605,0.140404750189894733658491,-0.182200383355107298211095,-0.181517192460292658973131,9.78217043158581134321139,0.0100374577001336121734321,0.0192285611990271297633281,0.00121803405984593137931227,-1.24041122938335135472698,2.33489037096223439604614,3.49931283519047120478263,1143.39266534146281628637,1142.08460749028631653346,1125.99031298024965508375,1141.22711194158864600467,405.670183950638318037818,15.5600349478532375968598,-211.715564360121533127312,-176.730440878579173613616,153.035776511767068086556
78.1724999999999994315658,0.947161478687049362967798,-1.46631773723748248805521,0.918587765912472042906245,0.0285163382247844952865901,-0.0264435099521773721298334,0.000997402333045323405066873,-0.014590325313750387992151,-0.00532257080290272216460679,0.989999300774728530072366,0.140434041172974949374108,-0.181730508147613656344532,-0.1866055948466456559931,9.78285251396551736036145,0.0102273730572644584724262,0.019350260966040842142144,0.00109747149387671256645649,-1.2404533766474572509253,2.33484139304845372819841,3.4993100537832608765143,1144.29497143177172802098,1142.00287980897383022239,1125.7393218630659248447,1140.62150521381113321695,351.62322384981200684706,-77.2169348376130244560045,-19.1152066713303732115037,-335.784651095842320955853,153.037291335572916750607
78.1749999999999971578291,0.774099806990280803198345,-1.34254107473173789344401,0.711896424268751770725316,0.0309216947800644223476318,-0.02967749744252681440293,0.00346242790638541780151582,-0.0145019338248863170759417,-0.00532317355838981751126049,0.989991925080234591582951,0.140468046436627830297894,-0.180882232440391366168342,-0.191593102536983417305549,9.78396319710966544391795,0.0104049040756200097956885,0.0194329396678807123088895,0.000977991209803343638368167,-1.24049926047233483039633,2.33478990540045439061601,3.49930624257673139609892,1145.15078146071027731523,1141.6985228160986025614,1125.89473694689309013484,1139.54818868611096149834,338.581702962518249933055,-153.115216999370318262663,111.121261098479521933768,-512.817748401187486706476,153.03880208003482721324
78.1774999999999948840923,0.57805361486049255947961,-1.17234892339429386254324,0.42589482472538880974966,0.0329842827505879704341751,-0.0336419002615010523382644,0.00583108585934054637900381,-0.0144029311942695421866478,-0.00531435940163037853073424,0.989982864454677868870647,0.140505081110401108812624,-0.179754223393605971903497,-0.196245314456529151847519,9.78551792682307741699788,0.0105671326098267601839575,0.0194722533935308174390943,0.000861257047765156560047151,-1.24054860248271170419798,2.3347364878281702260665,3.49930279044247116715383,1145.98787994658277966664,1141.23730372397767496295,1126.29492816855781711638,1138.05741647180752806889,336.462425989097937417682,-210.377100017151803967863,186.818414389793360896874,-688.809483031706122346804,153.040305048228105988528
78.1800000000000068212103,0.363331287006277203754934,-0.935896788091049036673041,0.0644103245539154878329668,0.0344680472696063389115295,-0.0378768791305945859426707,0.00767446927746467423558929,-0.014296632664065507534179,-0.00529492828869029038413307,0.989972915111497764328874,0.140546024903845989673101,-0.17837187865463111080544,-0.200447803644805577771848,9.78752232411774869547116,0.0107118582790788428177331,0.0194662313060572252088054,0.000748472555946025461422189,-1.24060057221342590061397,2.33468218015937933884629,3.49930022914165883562987,1146.83309359065901844588,1140.64663731601081053668,1126.8288290188438622863,1136.10414127094577452226,375.614148710430356459256,-271.94563162340466533351,224.053727875592699092522,-931.524422340426554001169,153.04179357907474923195
78.1825000000000045474735,0.103590845392784125511554,-0.589433629675221282262498,-0.40826088598898147008498,0.0354177905567266831932116,-0.0415607745021680935471053,0.00799189399066377488545232,-0.0141863422215883130256264,-0.00526386252504310904465346,0.989962858771636144972206,0.140589308934413376173111,-0.176759561358245720352755,-0.204088715699149103599552,9.78997223521974113680244,0.010838105926395686512409,0.0194154983069162977160627,0.00064035934669927525864086,-1.24065389388285884919583,2.33462839340284222799937,3.4992990412784195086715,1147.86595069013856118545,1139.87757556585802376503,1127.41519680793794577767,1133.39979436009639357508,375.815427359180660005222,-280.5854874486890935259,183.706186012963115672392,-1011.12112797392103402672,153.043556904599029167002
78.1850000000000022737368,-0.0958988937880181496753451,-0.279739904226214641802528,-0.78528619533053145573831,0.0353072189323793764192949,-0.04265093210888814406756,0.00585589577923050375735103,-0.0140768985901464482174417,-0.0052190080097777799550407,0.989954346637576532152991,0.140625281181368966265666,-0.174977740356715483205363,-0.207041727624438703925236,9.79285333295627502536718,0.0109465686273619265678203,0.0193232536103689275797102,0.000537381335249066975287557,-1.24070741019860109055628,2.33457681216928980560965,3.49929984604103649914464,1148.71217072745321274851,1139.24370987876864091959,1127.74735994890784240852,1131.04853563108076741628,320.688597270983052567317,-243.736185927167525733239,90.5040922860648606729228,-903.650202682232361439674,153.045002933748236273459
78.1875,-0.254640972255022635106769,0.00379418454092367296581756,-1.08664594819120319257877,0.0344098557473351829294472,-0.0418338685386532224685929,0.00182281377348732557229505,-0.0139737550552269645248726,-0.00516038435702407313060425,0.98994842551207717917805,0.140647285223171630841321,-0.173097101524644025882793,-0.209234253232231354191484,9.79614067777482766530284,0.0110392831437020021156936,0.0191953550687731060164776,0.000440145040118351750686732,-1.24075980819841258373515,2.33452875986944619057795,3.49930389414700249162138,1149.46939367649201813038,1138.65889463622329458303,1127.86771726936785853468,1128.88154334668934097863,291.620998984755374294764,-244.385889318977547191025,14.4714002910081678265897,-847.830409250307525326207,153.046419772791779223553
78.1899999999999977262632,-0.377424710305596711190645,0.269706978761838855884747,-1.31968201934218298809753,0.032985252320898522659931,-0.0398064998020537380574169,-0.00324270438637170883150462,-0.0138791334097267404779075,-0.00509341259107015664753249,0.989944717669595242170999,0.140658241393312483102918,-0.171116267300863433842295,-0.210704801749241221742182,9.79979937591833483168102,0.0111193646494492093257378,0.0190400603457771024074052,0.000349812996253051752479357,-1.24080905317918555041956,2.33448520408012916149687,3.49930992626841552706196,1150.17027572237566346303,1138.02178043217486447247,1127.81971695036281744251,1126.80938358483308547875,208.939939123373676466144,-226.229829706313665838024,-30.9994931168885159422643,-636.334312369432495870569,153.048080873878205920846
78.1924999999999954525265,-0.414435100529982836103926,0.414752272574652580683363,-1.39851305159974992342597,0.0316440418128322575874734,-0.0380396974153618602776383,-0.00716054955368676613464141,-0.0137931185745959784816339,-0.0050272956805119143816607,0.989942282028257292125772,0.140664957235893645082214,-0.168990385599675663197416,-0.211577293069599076114073,9.80378419719556681855011,0.0111910400557367339935411,0.0188672769792509360808896,0.000268442575075172786946281,-1.24085388314378786134284,2.33444614889269042024011,3.49931523598023241916621,1150.51409337210793637496,1137.52774548769275497762,1127.71271980378355692665,1125.69987178484507239773,78.445688407130816699464,-197.040242484382616794392,-27.5683339014371249220403,-293.351663034560829146358,153.049428830745171126182
78.1950000000000073896445,-0.379817821619075790540165,0.482611887596739619343822,-1.36459872077265331746787,0.0303636219308225929758294,-0.0363909303991531568600593,-0.0108748829436808216314381,-0.0137160434746716568266134,-0.00497092848349465349366838,0.989941032971868750678368,0.14066854436181086551727,-0.166692093886501191413174,-0.211989287808916959665595,9.80803944731220411767936,0.0112596248401379377124254,0.0186875761190931494182266,0.00019901375961612398986407,-1.24089325718599874370796,2.33441211765685618928501,3.49931848887377272561139,1150.56250416441207562457,1137.03657921975104727608,1127.68187528085536541766,1125.34262526965744655172,-29.0205332372700759435702,-201.493745029048852757114,23.1908573846346541813546,-18.9145582056060490572236,153.050734929320782384821
78.1975000000000051159077,-0.287525836320924821354339,0.498105559029862032804914,-1.24947939352863923723191,0.0293778854004489962947755,-0.0347524810447036799909704,-0.0141614521160647668929222,-0.0136507382693167415854685,-0.00492742624959066708584254,0.989940933989102544998673,0.140670371782459585618952,-0.164270560685043254256499,-0.211993698257426366193812,9.81249958748036554823102,0.0113307585494589434238488,0.0185114672783801906263967,0.000145130419228704039737859,-1.24092751499683395799423,2.33438313183477497148033,3.49931987239991926230687,1150.36899070592130556179,1136.52027676254556354252,1127.82867409070695430273,1125.60529899381685936532,-124.650186521125448280145,-217.16807882132084728255,126.147286075798675142323,233.760559045762192909024,153.052003361753151011726
78.2000000000000028421709,-0.131521346958570317653425,0.472514811087008268497556,-1.05535171901541202643671,0.0287646867327255723045809,-0.0332162452691115855918369,-0.0167444858227422596619327,-0.0135975961955477533255054,-0.00489531362525496421822524,0.989942172946090215290837,0.140671523221733402175815,-0.161752943790311520810832,-0.211567567114449045506674,9.81709155518796983130869,0.0114098651778780455640083,0.0183484929169919000480071,0.000110650989469206770601795,-1.24095845061752774185493,2.33435865420756050170326,3.4993196959017671687775,1149.93925323180701525416,1135.95073882564543055196,1128.31261171123378517223,1126.51142806488519454433,-218.317415261588678276894,-264.894469325613385990437,312.94589204341076538185,502.44707012548354896353,153.053223002104374472765
78.2025000000000005684342,0.119075158809444900387398,0.430810846405041247830781,-0.754729886717489195646635,0.0284532999348214230006526,-0.0318007481124602808808532,-0.0190701960593797487097945,-0.013549889933328977328908,-0.00487124645701899391253553,0.989944372872965772103271,0.140675159427610024787114,-0.159045080046551545738254,-0.210650514468402688672555,9.82173685591430967178894,0.0115016299275348260477969,0.0182064836931911666617623,9.93760081456442528934428e-05,-1.24098815687861918632962,2.33433686889773506223378,3.49931729234071964285135,1149.27740362961435494071,1135.19580441591870112461,1129.39340355092258505465,1128.11753434444199228892,-244.180829028067989838746,-287.966203310304933893349,484.61406871664132722799,635.495241658268696482992,153.054626058452015513467
78.2049999999999982946974,0.370755419388419493742504,0.41688919295194892811196,-0.462217141772614692474264,0.028678794412295909727062,-0.0311011420764701722319057,-0.0203568127601324692921292,-0.0135024137871384303927202,-0.00485146239126345302228316,0.989945671675638516617823,0.140684937494239659105943,-0.156094873362192743115884,-0.209193873192078355627288,9.82634893894881500386873,0.0116098329631235050451998,0.0180909732647077589606788,0.000115028747481071556596662,-1.2410179884375798220475,2.3343156288871158565712,3.49931197007269823018305,1148.71834908666778574116,1134.51090780909521527064,1130.73568205481478798902,1129.68890427317364810733,-199.347358452950487617272,-284.535400606668702039315,617.038337084038175817113,627.318916756100747988967,153.055742030090186744928
78.2074999999999960209607,0.650369355803429805007454,0.458493376107422134779767,-0.139454899882628019502917,0.0296908069192556856030762,-0.0307935656032958214589623,-0.0210473395861036187415305,-0.0134546510711588112457759,-0.00483130137405806715789058,0.989945356686422472947129,0.140703538894930646474535,-0.152953544556645615326573,-0.207156035136389082840225,9.83083412050835114825986,0.0117373615370983952477246,0.0180049428743941676567264,0.000160929259405213215261554,-1.24104865274225795168661,2.33429346124643721793745,3.49930330493097896393806,1148.28066683735050901305,1133.77312741288665165484,1132.47859523633997014258,1131.25412892821964305767,-144.962465280825171021206,-338.539623706156476146134,823.390200344101913287886,631.715385945797265776491,153.056799664239321145942
78.2100000000000079580786,0.993166339977409107220296,0.600678742491015493776274,0.269514610568489021424909,0.0319970441321651977162333,-0.0305491297043477966211,-0.0212395613131797951489421,-0.0134102117818700825729872,-0.00480837787771322064389601,0.989943860021956223427253,0.140728529068784857791741,-0.149754929798022906606292,-0.204558451378077460480753,9.83509377015904462382423,0.0118863676456976118112063,0.0179488037368273380123274,0.000239611729754682064100213,-1.2410797646623885626127,2.3342695563003634795507,3.49929214826378487401826,1147.9935367602622591221,1132.81820969056116155116,1134.85263305654325449723,1132.84748120290873885097,-61.3939543578176554206038,-364.567982202311497985647,879.619986519156327631208,499.516188904625323630171,153.057998447549465481643
78.2125000000000056843419,1.26469491922452292875789,0.803842167642304761265848,0.616428526389701025856027,0.034844204880708273819323,-0.0301183367368098621474903,-0.0207932394858880258137201,-0.0133733708380747266797339,-0.00478087506981497017966021,0.989941838049962608003796,0.140756207991112353150598,-0.146649940368205056184792,-0.20143958601094252847119,9.83902935891795671352611,0.0120581099937325693371992,0.0179207454649230220333767,0.000352224198243043177657813,-1.24111110276521241502223,2.33424274932467135101888,3.4992797956722778707217,1147.97369706556082746829,1131.95028750187157129403,1136.87669516894425214559,1133.75170987274759681895,32.4286128480547901631326,-363.524434571776055236114,766.730505904039773668046,237.207225037252300126056,153.058937158171261216921
78.2150000000000034106051,1.49864259341458017082971,1.08504488371030194393541,0.947940367117110938011137,0.0384029882094090793676067,-0.0289858654845470097016769,-0.0194688063604521455207674,-0.0133474304731239570842583,-0.00475011636319821583390732,0.989939927641756201026624,0.140783192052881617195581,-0.143764668314012522554179,-0.197897074733552974512563,9.842546023770772478656,0.0122528030310375783684673,0.017917155761056308832524,0.000498251132568824201506119,-1.24114294355527721158694,2.33421267707996449303209,3.49926721104770610537571,1148.15567982450238559977,1131.0005875177039342816,1138.68628558605996659026,1134.03351732809392160561,98.5670849359381122667401,-389.360681378356616733072,648.279529809404493789771,-7.5274600618809266450171,153.059811974224913910803
78.2175000000000011368684,1.6868588731564999605439,1.40859247649249930134374,1.24310906102985607724065,0.0421317958535319947444009,-0.026920063390805926833993,-0.0171599248993062857004954,-0.0133339148545740544121729,-0.004714323849697042191631,0.98993853350967908610869,0.14080805054577980039987,-0.141199060477378512956648,-0.193960937945037270591087,9.84555797063936388724414,0.012469434636094256854677,0.0179331433203735735038009,0.000675142554362227558482912,-1.24117611522551940517189,2.33417926671186215514808,3.49925606105663922207327,1148.46653249024006981927,1130.00348409498155888286,1140.11809281798832671484,1133.71407257243822641612,146.251780835242470857338,-396.441993680079065143218,437.904495595001094443433,-274.894640530805986600171,153.060633265231643918014
78.2199999999999988631316,1.80340956322793832811158,1.74075462258498969703169,1.45949047547498778065744,0.0459183027162706758339539,-0.0234455922797202204188594,-0.0134416360279268499305916,-0.0133304937191199100038341,-0.00467095800557076022696545,0.989937475674441458295405,0.140833738057583174319021,-0.138977069971681521654006,-0.189631202224895850649844,9.84799212167213333657401,0.0127056147279381304038282,0.0179631443760660119979278,0.000878374709942129623489737,-1.24121224337716906660489,2.3341423214621177528727,3.49924785433505070031401,1148.88693872867793288606,1129.01837754930534174491,1140.87580806403298083751,1132.65904412544114165939,201.292354635189695954978,-404.644594832875213796797,135.478503270710888273243,-609.490790668778117833426,153.061389905818941770121
78.2224999999999965893949,1.83399657294886586633709,2.08351955874493777187695,1.58560381494431679172408,0.0507798065207314894276003,-0.0175710255493895552147965,-0.00758608504591304876052416,-0.0133344014950551280340729,-0.00462214715542592392838461,0.989936553865900847881676,0.140862941089343357559116,-0.137096670634561490498271,-0.184991460194617929335692,9.84978884266173260186861,0.0129578347822274005801679,0.0180013937763950186699002,0.0011019936060269260209854,-1.24125293212705245515792,2.33410264867733197036159,3.49924333421768496421578,1149.47299426341510297789,1127.98026112081902283535,1140.79548533434126511565,1130.66661861909710751206,224.144862089154855766537,-337.558071352107333495951,-208.441092121126587244362,-814.096160685467111761682,153.06222368771062747328
78.2250000000000085265128,1.74392377216859806310367,2.27457682756442247651307,1.56038794722141460624698,0.0554720705542714812019689,-0.0112492733301931338574242,-0.00226269335905975943826207,-0.0133395969307534712627872,-0.00456805655239728679306577,0.989936205436599325757641,0.140893654608379270687379,-0.135491515268939655136649,-0.180071032842042039190389,9.85090710213325948529928,0.0132219567052343882351817,0.0180424120976168667063178,0.00133875841823850958572928,-1.2412989588680836128276,2.3340610907860868117325,3.49924313323479641013591,1150.00766303912587318337,1127.33058719254154311784,1139.83360260342533365474,1128.58856332200593897142,220.615078584506761671946,-199.851513265207643144095,-560.41729640156438563281,-854.119220045672591368202,153.062857583537692107711
78.2275000000000062527761,1.50539853941222934174959,2.32248573018308501758611,1.40071974838079271741265,0.0611310821327427644789054,-0.00377675947620025650314224,0.00264049511275836609400236,-0.0133419721512391797196839,-0.00450842602224558325341164,0.9899369513197150416417,0.14092224058197222458233,-0.134126408075353753535097,-0.174890281856304147245496,9.85132413974550225077564,0.0134935884696723729786472,0.0180816084946507638075985,0.00158089496335791514745883,-1.24134921909428830311128,2.33401804869075402137923,3.49924718184966421219428,1150.57606965633976869867,1126.98100355449105336447,1137.99339885232802771498,1126.3960225188604908908,255.463013121066495614286,-80.3571637505504980936166,-962.339969918104884527565,-903.348534280806575225142,153.063429795356171325693
78.2300000000000039790393,1.03789692949342571282045,2.19525737167233714330905,1.08554716530458050804953,0.0679093406045947201032931,0.00516752272694110184603211,0.00727061678882893330788662,-0.0133441213305837431263301,-0.00444235367559254676339542,0.989938620498804322522801,0.14094786824125890567494,-0.133089703471478082441593,-0.169471391590029357709923,9.85103494173897153984854,0.0137683896093881569244743,0.0181158223836527035310873,0.00182082885730313801496416,-1.2414015794046930896144,2.33397449503930376479843,3.49925497445732336387891,1151.28497810473004392406,1126.9288013737891560595,1135.02190275383918560692,1124.07182065060601416917,260.677410969820527952834,37.5146241666129895975246,-1156.3261901818862043001,-738.047692056705272989348,153.064046815579303029153
78.2325000000000017053026,0.521470676320881176835087,1.94971398099073489618149,0.759113763753731185524032,0.0717050543488473718367615,0.0114868653050011482186221,0.00947803546079429605486499,-0.0133456643946178246662448,-0.00437379701943187409324265,0.989940681203036687563213,0.140970411784781368691455,-0.132389390503399040355248,-0.163920693768278002977468,9.85005486994748657991749,0.0140424824736504801764303,0.0181435178688533656210513,0.00205159318096063882780333,-1.24145512093983012569254,2.33393119196636478207552,3.49926549978955003794567,1151.87945671118768586894,1127.16857667532394771115,1132.21176790142385470972,1122.7057840585803205613,229.492436784793881088262,145.812405160537139181542,-1104.44619496375207745587,-368.739002321234465853195,153.064503671182848165699
78.2349999999999994315658,-0.0600802181915457839123107,1.60487536611594849844664,0.420151418854501912392152,0.0721913870781682176502869,0.0159323851758079761131714,0.00996130844191450530444865,-0.0133418671144896472391395,-0.00430797290780444205177124,0.989942535644101728742328,0.140988221008486208640775,-0.131936736285238276344955,-0.158356848849609738172362,9.84842017459129870360357,0.0143126993081220087178362,0.0181648193619377631979894,0.00226706489070822034617714,-1.24151048050187884363993,2.33388834290138236227108,3.49927722626260306881818,1152.43244028865296968434,1127.65786339959117867693,1129.49967177902544790413,1122.22812563900151872076,204.517810792644496586945,231.79529371876176924161,-1002.28726310997649306955,-21.1021390668712243154914,153.064901156604292964403
78.2374999999999971578291,-0.632905995211303862291174,1.2223261906952782585023,0.105554100269950601465041,0.0702733252193781243732928,0.0187344120586490220370379,0.00975267404293028716821823,-0.0133349462432587103494219,-0.00424626200565788539803558,0.989943373052375563680982,0.141002233780699676168879,-0.131781201357817956409946,-0.152845610229402129043308,9.84618346174461400721611,0.0145765151251224002459939,0.0181816474853318810200875,0.00246239042279097720619663,-1.24156708313447761149462,2.33384618636908891531334,3.49928879448267338148071,1152.90204576514997825143,1128.32755314391670253826,1127.2003315858785299497,1122.60027336324606039852,155.163756815413904632805,308.836202970686656499311,-758.693339556392629674519,346.862515609652177772659,153.065248983307640173734
78.2399999999999948840923,-1.12797346312793100864269,0.845183345148020959136659,-0.150844764093233052459908,0.0664596269288785235218597,0.0198690690949770362716542,0.0092513971997054376961156,-0.013330845578112723512354,-0.00419193077140928276741461,0.989943933174113999129418,0.141011772835737986264704,-0.132032696573392283045933,-0.147504463764225629551774,9.84341179779361041823904,0.0148323348566774190770978,0.0181975222480537761338137,0.00263409285300654060629766,-1.24162339005522803780934,2.33380645328970182106332,3.49929985729526871196526,1153.20825907272933363856,1129.20204441444320764276,1125.70620508124693515128,1123.96243821704820220475,84.3158592773496167183112,430.496467693033252999157,-433.830577082770219021768,776.203193025640416635724,153.065535774217067910286
78.2425000000000068212103,-1.5737758424481635977088,0.444622834544473322093694,-0.366344547977367041013963,0.060538867456280065493246,0.0199369456426186850150906,0.00779221890090685351953903,-0.0133307819372718294737012,-0.00414274560907689805289156,0.989945519816953334313325,0.141011499843048504487797,-0.132718868655152810731579,-0.142337179893828935650646,9.84018799579041392178169,0.0150796752852359623037204,0.0182172904488616463347661,0.00277944204814741619921636,-1.24167880258049811992294,2.33376982470529270585757,3.49931052674769205168559,1153.32362506153754111438,1130.48003548238602888887,1125.03117870046048665245,1126.48128932838176297082,-3.70507286560689585996897,502.533825526035911934741,-68.709148043039022013545,1009.69143981074410021392,153.065807054896083627682
78.2450000000000045474735,-1.80283194601485319275014,0.167738742672371071718018,-0.457998247105828426573026,0.054988321307471749177509,0.0194072993362214042678549,0.00550872011757770705525639,-0.0133371467669820414903015,-0.00409374679829388118945666,0.989948384224092370331505,0.140999626786317389104397,-0.13389321245053786846313,-0.13730634824823070849753,9.83660514288080634059952,0.015318772275105970587239,0.0182469363416391736065769,0.00289659707582850655532836,-1.24173239932643797445166,2.33373649728495191624233,3.49932049602092165585532,1153.18973370840126335679,1131.71471354207824333571,1125.36265934103107611008,1129.01089541611167987867,-97.7874010204211856489565,516.960841375900599814486,273.618583179062284216343,1016.40712353225023889536,153.065970129650395392673
78.2475000000000022737368,-1.88855359174927350807138,-0.0573032042314654405101848,-0.460953704031974664800941,0.0497171710010164621951212,0.0188711174155942948416076,0.00278974229129494259715738,-0.0133522057503076448103929,-0.0040442587290039026109989,0.989951719315899869577891,0.140977766773980939252198,-0.135591558979088144809566,-0.132466876516139031583208,9.8327631470194436502652,0.0155504332993555826475385,0.0182930080724643812084551,0.00298462882598772745457172,-1.24178328469522902821609,2.33370676430195622685915,3.49932948169017166151207,1152.83468805643587984378,1133.06483968926318084414,1126.39927161635455377109,1131.56332494603839222691,-193.996908080356661230326,598.095004215154517623887,540.669065787770364295284,1037.04883724247974896571,153.06606452994739697715
78.25,-1.85594814256043183497979,-0.296119888196504699173772,-0.395462285140464331334442,0.044328132367488864984395,0.0188413299145679530299802,0.000888133246810456121814181,-0.0133751952819127269828092,-0.00399276324001256524565129,0.989954688584144482099703,0.140948343535047732055787,-0.137790802072325191396374,-0.127857272817250844365589,9.82876730008868015886492,0.0157758856287552665098595,0.0183619476973858539170514,0.00304307014043348053253246,-1.24183148551780631052566,2.33368051481040250649812,3.49933786332344398672944,1152.2197491680003622605,1134.70518856315129596624,1128.0660046699674694537,1134.19613960231936289347,-244.776476373676615594377,585.70145643301270865777,620.773334240421490903827,844.287838464055539589026,153.066094571678604552289
78.2524999999999977262632,-1.74362715102838383707251,-0.491678754998180034263555,-0.323190943093092653004561,0.0402424493044328465685133,0.0191642952522584168739694,0.00119163710621799832055367,-0.0134048554639115170827868,-0.00393835281060417319309863,0.989957762253356077231103,0.140914084085552226977001,-0.140454609388525553104188,-0.123533248504978765414108,9.82472416862554709382493,0.0159964714097208804410855,0.0184594080965861419285634,0.00307188716567212373106943,-1.24187786951536272006535,2.33365744207055714198873,3.49934624162247009948601,1151.61080567456860990205,1135.99334697142558070482,1129.50313828755383838143,1135.78476413835483072035,-252.100005205149585663094,477.98876728427603666205,522.425517200165245412791,480.25186685124958785309,153.066047835059777071365
78.2549999999999954525265,-1.57368770707352712001637,-0.696530932659597645795202,-0.274859707963055532875529,0.036280964248513576653199,0.0189075373060946481940103,0.00233670373504603432618376,-0.0134420301620039768508708,-0.00388202828912826737595143,0.989961137526902956729202,0.140878188309417617940511,-0.143581071068444587890411,-0.119597779513315183308464,9.82073754057081238499904,0.0162133368223776538896708,0.0185896384145913737273581,0.00307155096402993545504079,-1.24192261340372622768768,2.33363679644541655022749,3.49935615118517295840661,1150.95924914197576072183,1137.09513239957050245721,1130.67813225596592019428,1136.59739893657342690858,-291.662042096895845588733,424.630381283029862515832,407.596889985674238232605,182.532342212118351199024,153.065924303487577162741
78.2575000000000073896445,-1.33620050935584488982499,-0.942413301088885990708377,-0.261786362176150810832098,0.0323527529448282141766313,0.0170854254316817229242265,0.00303026325213295475921593,-0.0134827796786815851809438,-0.0038272772688749843658651,0.989964846298194589557795,0.140841436790842572390758,-0.14706721601959327205833,-0.116189561091529308667347,9.81690784982048647577813,0.0164273507816618882793058,0.0187548636508828268920634,0.00304290438262203727370903,-1.24196662892059528360278,2.33361784638224767363113,3.4993682882816479207122,1150.15249546408131209319,1138.11649887784483325959,1131.54112273748614825308,1136.69742584941718632763,-301.739643505160358927242,318.53835869940041902737,207.764302565200068784179,-84.5118327027379621085856,153.065685349339048570982
78.2600000000000051159077,-1.13291442692356114640972,-1.12797902070983724343023,-0.279213630242054200447654,0.0300143280457951626416513,0.0142041872549352882204587,0.00285339906360269554563835,-0.013522647977276510203315,-0.00377511807509582717617969,0.989968127447035661781172,0.140806485920361740271645,-0.150805404786304497743998,-0.113394714669669299800248,9.8133281873341502432595,0.0166387424150910637199452,0.0189550437432595419995351,0.00298740571452028392043787,-1.24201089252966845322135,2.33359930590758679613828,3.4993813006240515051104,1149.45055092444704314403,1138.68782419307058262348,1131.71695376879392824776,1136.17483977305892040022,-291.059438422681580505014,172.326210346702566766908,-42.861384739392505593969,-288.418622119059762098914,153.065409698019891493459
78.2625000000000028421709,-0.943849658479304132185916,-1.27020992021389922399521,-0.301052047560287638905407,0.0282029196586700350857235,0.0104549525943036479558312,0.00197119983683245389438632,-0.0135601763902306500508832,-0.00372895398054005292737267,0.989970821386760957416584,0.140771788627436417185024,-0.154737460028631979014335,-0.11134578833243555240351,9.810079854801198706582,0.0168472316268322534760227,0.019187415737617181943353,0.00290765899053634525178724,-1.24205645176726986456117,2.3335794530037681226986,3.49939454795310789236851,1148.69719827196922778967,1138.97812992957756250689,1131.32681581378938062699,1135.25533273882319917902,-310.245274421740987236262,77.2009905468414245888198,-236.472238432076181879893,-393.121586102045625921164,153.065054088852605218563
78.2650000000000005684342,-0.77323883025324680051682,-1.36691993870200612093413,-0.305527347499604029490428,0.0266023661394356562837071,0.00666055003015959389695011,0.000615207451165335444769056,-0.0135920619966451890203718,-0.00369167300832808206387248,0.989974047894924047419352,0.140735611336315402652986,-0.158767538207138958483711,-0.11014771229373593319778,9.80723170064328186867897,0.0170519199943709558187077,0.0194466574258928513729838,0.00280725569617553457474335,-1.24210391108248119351742,2.33355729008914591915413,3.49940712533107411985611,1147.8993245523397490615,1139.07382914580443866726,1130.53459257663462267374,1134.20923184255047999613,-323.044966237987921431341,6.10773670942408664075174,-383.176760059162177185499,-402.299393486375549855438,153.064632209226260783907
78.2674999999999982946974,-0.624357569742014950620046,-1.40843954070361987440663,-0.269885425451305893673748,0.0252643842175184762943729,0.00337584741453690606594051,-0.000939107356847911577645005,-0.0136138819094324889369396,-0.00366393602895954267895107,0.989978015704271019359339,0.14069947971027393918142,-0.162780743560661356195141,-0.109843162431090046737836,9.8048376885641435052321,0.0172512123929049014658954,0.0197252711511830755575225,0.00269073640346603444942208,-1.24215379396392222588474,2.33353121664520424261013,3.49941766014111577121071,1147.08197344078075730067,1139.00866861312465516676,1129.41093201349531227606,1133.24383577139315093518,-345.735720103671837932779,-43.9164581446165485090205,-517.95360925117893202696,-359.869857689918603682599,153.064130953126408485332
78.2699999999999960209607,-0.462693012921181257013359,-1.39915254879015460431901,-0.171063395242376625748904,0.0238146113682930864186016,-1.26519666630705240016608e-05,-0.0025353832364015775613364,-0.0136196964795363990169408,-0.00364837590169051970145908,0.989981460068860785739275,0.140664133917577260923792,-0.166623534832314124098929,-0.110489445233528160716929,9.80293509196823364959528,0.0174430869256718065751777,0.0200138995589955494269763,0.00256355416220555151415872,-1.24220734568432122912895,2.33349994855389963888115,3.49942529910053057307096,1146.1706459518229621608,1138.85424685508155562275,1127.94482453038108360488,1132.40988255410252349975,-304.820670314167955439189,-53.9110104020305129779445,-515.067523212433570733992,-233.321624489284829451208,153.063438778508668747236
78.2725000000000079580786,-0.333356680588399012510337,-1.34134160984235606406401,-0.0468061920676589512946286,0.0227348892961286193348247,-0.00276941715479083264139781,-0.00322284522915335450155006,-0.0136054636216559332595466,-0.00364759357715130133267833,0.989983578675588282713704,0.140625912981587802841332,-0.170174759834231970057061,-0.112125958101270462030641,9.80154212634939270287759,0.0176254277420121556463339,0.0203019021898418368377026,0.00243183081510501891350784,-1.24226517999494912025682,2.33346231544839000093816,3.49942950860135981727694,1145.55787008920697189751,1138.73911356111398163193,1126.83559439742816721264,1132.07722764894447209372,-193.110643766467205750814,-28.7316620614446449621937,-377.524271972286214804626,-57.0542716365514550602711,153.062787364418056768045
78.2750000000000056843419,-0.199412953755406796574334,-1.22145575556873531297697,0.105008308399078403860827,0.0219300914256789422629446,-0.00594869259724167473435408,-0.00305302854803003254416383,-0.0135765971615014365003749,-0.00365945148203219820792764,0.989984863904640688403447,0.140581086449308334529462,-0.173504830686780908699518,-0.114702858321230699578663,9.80065457665163108913475,0.0177960972236566768167609,0.0205784159268120186991879,0.00230208577811410151914284,-1.24232638149101259905649,2.3334185144458419181035,3.49943024519354306534069,1145.20509273298875996261,1138.71058854477405475336,1126.05720317051600432023,1132.12461119591921487881,-75.6099134348693127094521,15.0245493981992925824898,-238.531225896520965079617,84.6645407425827869474233,153.06205980599554550281
78.2775000000000034106051,-0.0247632204869818670078807,-0.989989263260333540728197,0.297030802652235803584801,0.0212156052939418762748325,-0.0103248646469326632590935,-0.00232594704096162349996058,-0.0135429072568944465493335,-0.00367770004816314697443369,0.989985843536061782543811,0.140529267508530175678771,-0.17677615458151424432387,-0.118080146312067785219213,9.80024797989872098469277,0.0179530509792462551754699,0.0208334311094752686055465,0.00218060796606522932020167,-1.24238931726381940379156,2.33337055298937201541776,3.4994287054243473633619,1145.17982052203296916559,1138.81423630810490976728,1125.64293826794664710178,1132.50055035265700098535,63.716504682782868940194,57.7303464412650342296729,-63.361666499088968862452,161.561499290347967416892,153.061100398555936408229
78.2800000000000011368684,0.135019703480061453726435,-0.720481274564719220698805,0.450713726763164013178198,0.0207287972181653505632237,-0.0138464676227118919232817,-0.0015747650703619570349695,-0.0135159156383104963466968,-0.00369227464283357299443256,0.989987993180656555836094,0.1404722717782841412415,-0.18019052662992329771896,-0.122027383203768075015105,9.80027992783728763015461,0.0180945042378132144034186,0.02105849685848307575875,0.00207299160347656661815274,-1.24245257472658354735984,2.33332115861347011431803,3.49942683225942108293793,1145.52367525640238454798,1138.9992402769801174145,1125.740394838020847601,1132.93241869237022001471,207.704413122389922818911,80.0563244967907507998461,114.587295402147532286108,156.519119830051323560838,153.060230311894457599919
78.2824999999999988631316,0.304866025152414232834985,-0.387709451147343231447451,0.58051012581799787959369,0.0204805977364905175686083,-0.0161738364736976926450129,-0.000708835566911889826922921,-0.0134976078144074321252255,-0.00369332889513015148741371,0.989992064733296928125128,0.140415573058849080245736,-0.183760827754774203057764,-0.126274190047945739090451,9.80069663784000866257884,0.0182188954198369834625026,0.021247163130048374313219,0.00198364390568988701452069,-1.2425163869351902867777,2.33327130306371222090434,3.49942478339933416009444,1146.21834258764397418418,1139.21451793058849943918,1126.21587474495686365117,1133.28314595180654578144,320.305770233171926975047,75.5170083908756311075194,231.842781608503941015442,98.1338359442799088583342,153.05928875613878403783
78.2849999999999965893949,0.470811277795329885531572,-0.0305370976912394224977998,0.674526179043184570538472,0.0206985088954464435673231,-0.017081791876587735373727,0.000391467122825038277983412,-0.0134847756606871205242726,-0.00367788508978064612037207,0.989997121852645101114376,0.140364997791928486359225,-0.187378266856659758676784,-0.130654687199039026834768,9.80143339059893037301663,0.0183249755704537886646932,0.0213949673327836417668912,0.00191618298577638651591926,-1.24258145866882463437264,2.33322057172225916232833,3.49942214711710830599145,1147.12520410756678757025,1139.37682531893415216473,1126.89960874606231300277,1133.42308787209117326711,383.666033706717541917897,34.2885888393785904781907,295.953771222885848146689,-19.8248268596288390597238,153.058289393926742150143
78.2875000000000085265128,0.605961049226655057431401,0.311470648307923647646334,0.700230359713288841305712,0.0217990806658630090208995,-0.0162609092028037395538664,0.00202605499630135717573087,-0.013471847852728136701872,-0.00364757366118968967896863,0.990002220536276178464163,0.140324174421085051678304,-0.190874452126708837873537,-0.135075154277977449446269,9.80241643859872269217703,0.0184119773140648049225554,0.0214994284836072212241387,0.00187344510534894707204367,-1.24264833572733102151631,2.33316858311736519127066,3.49941784172541447972549,1148.13667275618126950576,1139.38596087478572371765,1127.6956436010741526843,1133.18402181750821000605,425.281783932128973901854,-44.0159831304358419856726,347.735557504039263676532,-204.028966472984791380441,153.057222176953473535832
78.2900000000000062527761,0.690709729932810989616598,0.648629186418495096155823,0.616063125476567940985717,0.024406534420610848795663,-0.0137625836637393587219558,0.00483375698776779792742442,-0.0134568327383550231240994,-0.0036048425680510949066504,0.990006964736643513269598,0.140292921232950229537551,-0.19414862147860861840698,-0.139461117967962566766005,9.8035639630209274741901,0.0184798120386504248491288,0.0215601488304997118694573,0.00185745485211756089331814,-1.24271668734664553213065,2.33311574874192073636436,3.49941125618523773965762,1149.25161302723154221894,1139.15674540328154762392,1128.63828653358586961986,1132.40294303972427769622,363.889232536133818030066,-121.629010137550380932225,332.057451884322347268608,-358.023307099945668596774,153.055865113671046628951
78.2925000000000039790393,0.669144488483696009417656,0.837677221554342765763579,0.428921108960322039482804,0.0276070504960393252325002,-0.0109932376599994347660116,0.00778414759873889260805013,-0.0134400945637523291931181,-0.00355600165914568295405518,0.990010872409896602874824,0.140271867039291286971547,-0.197136899129480958059446,-0.143818729945777851186861,9.80478980728188176385629,0.0185290367504986133728728,0.0215791302808103387100847,0.00186922855014143426619078,-1.24278501693812470918488,2.33306385816076344852377,3.49940331055808018234643,1149.95611891886028388399,1138.77781582409852489945,1129.35593086049425437523,1131.39390528201010965859,212.116984883652662574605,-172.914377654636069792105,269.587620578995085907081,-442.762281042080530824023,153.054671528422858273188
78.2950000000000017053026,0.537355529795040975926668,0.910929695491767499326841,0.115536070324858797242484,0.031225919734813756267755,-0.00795450990127954601915938,0.0106166164502977285188923,-0.0134238489252653005190385,-0.00350586779439058821711273,0.990013495183704295143912,0.140261799045587332024354,-0.199818811718971034441239,-0.148133950011215237418938,9.80600792460694670182875,0.0185609608559511030101419,0.0215607289582298855545872,0.00190830028413438261558621,-1.24285095805289724779641,2.33301580810645425856364,3.49939550875787697137298,1150.312197951648840899,1138.29217351500915356155,1129.98622463647961922106,1130.189131634515888436,66.223766747194730442061,-203.150591593706081994242,258.768095576587029427174,-514.470976759288987523178,153.053413352287236648408
78.2974999999999994315658,0.274599409674083583254856,0.861823951366287532849242,-0.371019307157061772883822,0.0343167118858169750694742,-0.00470879906721047292172955,0.0122355401397937334911914,-0.013415374867283884341429,-0.00345316194581407739580547,0.990014747436344766384764,0.140261202765085218890917,-0.202294061689414050864144,-0.152295547239248457715988,9.80713522747788779554412,0.0185776482964260247765509,0.0215111418248433508559891,0.00197259123736711044355685,-1.24291290176435897940621,2.33297436385255041457754,3.49938993981888790685275,1150.28723775259595640819,1137.76206286613091833715,1130.64977133837601286359,1128.82155039821600439609,-80.8909972896625646399116,-154.979523067599956220874,226.64700848329326277053,-440.291905294034506823664,153.05182859753728052965
78.2999999999999971578291,0.0120323138037317645121504,0.715023237371436581888418,-0.815353966132064456040496,0.0346525944846366382168235,-0.00269203979034423473981619,0.0112220298194851669099092,-0.0134158680682530881411729,-0.00339657658610602016316382,0.990015510029797596303069,0.140263050393532401338703,-0.204551123264063161588666,-0.156184799427410148098261,9.80809987638446401092551,0.0185818546732376896346572,0.0214374170638351076167982,0.00205830994005722122189295,-1.24297209664875341061929,2.33293849732131430840809,3.49938781842320567605498,1149.90774296520089592377,1137.51727589967185849673,1131.11945967889505482162,1127.98767210804771821131,-210.836251150259016640121,-22.6837060855111154467068,161.707011421059831945968,-221.387471544422965052945,153.050444770174294717435
78.3024999999999948840923,-0.230699039620827106578105,0.473778650137862689106782,-1.21983552951902041172616,0.032763625815390468032362,-0.00125312542989953969348182,0.00774586646289308032586884,-0.0134214938977777718809303,-0.00333757126969853315165415,0.990016027404398202271807,0.140265571973574920683348,-0.206480212267013518712133,-0.159737240008645586808456,9.80884372006688920464512,0.0185763210172988496582391,0.0213468700051240786730311,0.00216047486079849141576981,-1.24303025322191729173937,2.33290657031767656448551,3.49938944904046955741705,1149.23305649684562013135,1137.64864433570346591296,1131.45830639548057661159,1127.71461304049489626777,-300.987849518797133896442,132.408325144359537262062,101.652015495377767706486,5.73396034050148539762404,153.048993811098540618332
78.3050000000000068212103,-0.417610904483830591704674,0.166621851033270013120458,-1.53443754652208741440234,0.030086141101853296903057,-0.000216416266057498280807325,0.0028813000609273602126148,-0.0134295752922359880321412,-0.00327782028970548516139116,0.990016200607400032041028,0.140269513154864078341433,-0.208001451586087404699299,-0.162910914036790172021441,9.80932218111418485761988,0.0185637664204335132989154,0.0212462186490897236845754,0.00227357806578273348441233,-1.24308779603988894812971,2.3328766822047009021901,3.49939418198970786377799,1148.40280371760400157655,1138.1793175253949357284,1131.62771975637292598549,1128.01634190975028104731,-344.104894277523953860509,312.014202084707903850358,10.5185239091294064905924,261.913267409130128271499,153.047485559531651233556
78.3075000000000045474735,-0.516169458348024301486134,-0.20301031724597295990975,-1.69171682506101417331479,0.0275629803994982131021274,0.000143792690687055842689579,-0.0029179408061151385599119,-0.0134409425530128707332311,-0.0032198351854377683239905,0.990016672872057079679564,0.140270139488612582967519,-0.209110316494457271208063,-0.165703527920633947312368,9.80950478681040749506792,0.0185471938141857119186628,0.0211408163216687990104692,0.00239218640359161426045542,-1.2431446916851580652974,2.33284725716760865665833,3.49940120160411582972415,1147.51253202545467502205,1139.20871534613002040714,1131.51089901502632528718,1129.02417937754307786236,-372.744171158476774508017,545.20616100630400069349,-130.13812361248722027085,578.126862750994519046799,153.045905721410576916242
78.3100000000000022737368,-0.537124598652654938746309,-0.690122722451625536521647,-1.67049537084268795439357,0.0252022237593055170590262,-0.000477908732098112688270464,-0.0102887345518163988988825,-0.0134536750472694800057072,-0.00316508334770991377193905,0.990017707407654823370535,0.140265743479973142848749,-0.20976077421423017232982,-0.168100005646016820159971,9.80937958455363201437649,0.018529503310713929531417,0.0210347926090186827796646,0.00251097804992568476162296,-1.24320117410582575701028,2.33281713855243078015178,3.4994100801884662210739,1146.53908286181331277476,1140.90534833042397622194,1130.97702913831108162412,1130.90697622350262463442,-319.897275557850548466376,663.457943640572466392769,-258.187371438915022281435,761.61317108682089838112,153.043923490820986899053
78.3125,-0.49183865099382018115648,-1.10450399606547944308943,-1.48589795368876020908999,0.0238984871169827008119402,-0.00207293539277370432796777,-0.0159912708335367415024564,-0.0134659227722418312067632,-0.00311508153140411647025187,0.990018728893157562431782,0.140260530236718861107903,-0.209916753926887356129782,-0.170101076336718309844898,9.80895198813614044297537,0.0185132794802599469352611,0.0209311787155760167800089,0.00262518119551879286488472,-1.24325730831353431504738,2.33278549381986222144292,3.4994201755581846313703,1145.9130456476668769028,1142.52600506432986549044,1130.21996215783292427659,1132.83224523297371888475,-192.914359562740088449573,633.31220690800660122477,-345.901749359605560130149,779.073800929999492836941,153.042196761842404839626
78.3149999999999977262632,-0.409495029874182570051033,-1.48564302204346510016819,-1.17125528346003404678299,0.0234622666372093745257299,-0.00495555362220475009021881,-0.0200726011573920115615977,-0.0134737922205599124081399,-0.00307259427046858990539846,0.990018938209453081000788,0.140260411096716608447821,-0.209508109211356541301541,-0.171738327930334055970718,9.80824532682945360306803,0.0185008921249861305047268,0.0208319233733879304037995,0.00273071831750740278213496,-1.24331389085604904209958,2.33275222135967297276693,3.49943075812137660562939,1145.57451106400048956857,1144.07190936496112954046,1129.24752039151462668087,1134.80234522814907904831,-72.6877940818419006063777,590.078179509319056705863,-432.34161257622173479831,795.262947343822133916547,153.040388742915581588022
78.3174999999999954525265,-0.294067651381735406523887,-1.84786683823572883689224,-0.723138034765795856273485,0.0238404945205195964441636,-0.0100557868457267513689901,-0.0223811355712898694958479,-0.0134727981915487779462914,-0.00303637412126223213068577,0.990017557733058661817438,0.140271208677552328136784,-0.208473249010560579552731,-0.172973918337202631212435,9.80730006584965430249667,0.0184945068915277170684686,0.0207381239635440264845734,0.00282416901916575412492816,-1.24337087048775774000831,2.33271688405530186471992,3.49944122755668285407182,1145.54960667725799794425,1145.47639596187377719616,1128.05825409495378153224,1136.80855996968921317603,50.8809510182271651501651,393.382493290495460769307,-398.72337065835625935506,622.07302127392551938101,153.038120778511370190245
78.3200000000000073896445,-0.190227733990042224831996,-2.02891628539868440483929,-0.353107871004090245747875,0.0244465330707586241121287,-0.0156555534445932363618592,-0.0223683126626927075708551,-0.0134640737202561359964204,-0.00300521393831593456799633,0.990014703606213686271076,0.140291787579192417378948,-0.206869050703537837865298,-0.173793218964157114569957,9.80616876179193575069348,0.018496301027450909315597,0.0206500631947041622671346,0.00290317978711487640480771,-1.24342706921908385808706,2.33268032879364817233636,3.49945133491921378521283,1145.82891581909211708989,1146.03882183141740824794,1127.25390353821899225295,1137.91271033452471783676,156.789172913719824009604,61.9253865422419096375961,-234.565443822113195437851,278.945528617857462450047,153.036145539757427513905
78.3225000000000051159077,-0.0657890145752915989074694,-2.04538581912043104793497,-0.0461906295196020111326618,0.0245845901224963324371853,-0.0220422697444261454780001,-0.0211082944431847212285458,-0.0134486398177453333330211,-0.00297608414383865489682979,0.990011038740515991740665,0.140317108155296937921364,-0.20476360641206003965209,-0.174152044517704940318481,9.80491756916291734569313,0.0185082609280371561399914,0.0205675988418107906496868,0.00296608799989355907331112,-1.2434821517568863669112,2.33264321601579815990135,3.49946124219033816160618,1146.33355254182811222563,1145.78602289458558516344,1126.88542687584094892372,1138.2032876127811960032,219.212124823360881009648,-244.786695041006879591805,-47.5197450655719180190317,-29.8216431732997264703044,153.034077686563705356093
78.3250000000000028421709,0.096160587751551437896147,-1.911315023863523476777,0.182902589253155972714993,0.0240558817767963402378673,-0.0285399700083675787742887,-0.0192928220225116846264779,-0.0134246798492903274269139,-0.00294824460010118666319912,0.990006998686514871899078,0.14034388379841150618077,-0.202170306343357364387003,-0.174048895729130986831379,9.80362499711151258452446,0.0185318015320648683819105,0.0204904956285235223534258,0.00301187539790824304261618,-1.24353669213759743250591,2.33260590055763739059103,3.49947091207962168724066,1146.92497644320792460348,1144.81488835621348698623,1127.01630481289134877443,1137.76360211865835481149,231.294309731384856831937,-545.898052489288488686725,186.24776261552710820979,-332.587329078962795847474,153.031929857030718267197
78.3275000000000005684342,0.327110191973001951382116,-1.60351591694320427805565,0.313238845721756253848156,0.022968786034908483806305,-0.0345324725409280608445783,-0.0172603436736887549951547,-0.0133871668033154010007957,-0.00292435317350400779748409,0.99000252637275509837167,0.140372500591953636162046,-0.199036296310868110470693,-0.173544594332089657795493,9.80237976751243245132628,0.0185675671990656980525625,0.0204185546822076915973732,0.00304011697898916126436841,-1.24359200460601737603383,2.33256866033003840144033,3.49947982162540105477433,1147.49002409048398476443,1143.05653263214162507211,1127.81666568891773749783,1136.54035096738789434312,215.1022013534339691887,-904.787024940291985330987,493.073191716524036110059,-657.525251842396301071858,153.029681650009621307618
78.3299999999999982946974,0.692108749737835871052027,-1.07828137839397930619612,0.379136387192112955801804,0.0219633976172076590682725,-0.0401624518309732780885213,-0.0152818491050127642366663,-0.0133341247590348464108212,-0.0029060923353502882138244,0.989997948098937041727652,0.140400412188060208507068,-0.19537598737594880082824,-0.172692199001970803085015,9.80127633991985902639499,0.0186156822813764062651831,0.0203514364580826209727427,0.00305100294518066651391908,-1.24364941752322843981915,2.33253150259524799636779,3.49948842236855828247144,1148.0004874499741163163,1140.29095323151614138624,1129.48167077147172676632,1134.47597585944936326996,147.317849336738902366051,-1070.7908778374264784361,696.779384788257402760792,-795.705785728064938666648,153.026862908562549137059
78.3324999999999960209607,1.0492959831310089136025,-0.566806809514540654859616,0.391771997223691104128562,0.0225936541797095991057631,-0.0425952879670663878131087,-0.0146329033336240893481417,-0.013265379042168132586732,-0.00289232343471175316895749,0.989994180459353723122717,0.140420928871482803002024,-0.191251012753978655300813,-0.171496833172535140255022,9.80041373475897259481826,0.0186760028175537891315106,0.0202886939812138462901903,0.0030451477840842248491493,-1.24370942456203281700766,2.33249534238789424378524,3.49949733905253435040095,1148.22661333716700937657,1137.70257824295936188719,1131.30056261285585605947,1132.56182203875118830183,44.7907184578569470545517,-1026.24791763148027712305,762.662684408523432466609,-733.718302522257431519392,153.024410194856983480349
78.3350000000000079580786,1.40824467719575840973789,-0.0612618365684450272290462,0.404395141783618572439707,0.0258414030554615370416371,-0.0420322543385471189547609,-0.0151762781909309842076627,-0.0131830963373929972715093,-0.00287559277596660710710208,0.98999121756606678346202,0.140434037999995098289219,-0.186787942549893448695997,-0.169850882339272313270584,9.79989379208626054662545,0.0187479954775285374835025,0.0202302349751699757363088,0.00302348480359255133639862,-1.24377097158118243847014,2.33246037827066654557484,3.49950623817391592851322,1148.22444104226383387868,1135.15971364334882309777,1133.29498419352171367791,1130.80738434683098603273,-49.1441307602559120937258,-1039.25723065239390052739,845.688611062271661467094,-673.393525466616665653419,153.02184692292124168489
78.3375000000000056843419,1.76739652242594980080526,0.452191205561909836951884,0.451447190159590894253938,0.0322353037690655958025232,-0.0389072639089595370687213,-0.0160655460207788924886785,-0.0130947405681776096741942,-0.00285264259809027594105846,0.989988251128634311193366,0.140445231948480714345706,-0.182206168061935402935347,-0.167745281276333507713971,9.79981614679161339154234,0.0188310888395502480652244,0.0201761782994845859096067,0.00298778148225189391778978,-1.24383311736593982210763,2.33242639086560910044454,3.49951463374705618036842,1147.98089268336525492487,1132.50629208968734928931,1135.52900566817538674513,1129.19485441141159753897,-122.349955345473375700749,-871.301474013054075840046,741.180159628303158569906,-489.382570934130285422725,153.018640826796655574071
78.3400000000000034106051,1.96616790559043974617737,0.763668679920485815593167,0.51721933312975287844182,0.0385785359299426131030053,-0.0356542998927268095510357,-0.0160532443349464225279544,-0.013007806589042556280611,-0.00281978003229047891400882,0.989985036076417967976226,0.140456799740752535932131,-0.177729048837773684343944,-0.165163151778644823330922,9.80027951548345832577525,0.0189252459087288528449822,0.0201264699738123130356993,0.00294023179910321737218215,-1.24389510303960926229649,2.33239303351847171441591,3.49952251569905437023067,1147.61269126553702335514,1130.80320627328751470486,1137.00088499165985922446,1128.36047149216256002546,-171.98596739810636790935,-557.385894500209701618587,455.416777725536519483285,-238.843739015454815444173,153.015859532226357941909
78.3425000000000011368684,2.04096762708315315748564,0.941720032403649764951581,0.585962452047007253952415,0.0448100959635663667612882,-0.0327003246635665517638714,-0.0146375845382440382402844,-0.0129289887441360485526021,-0.00277323332038427938436853,0.989981867287574757163782,0.140468372137456110060327,-0.173566159208470738306573,-0.162084456474268695513885,9.80138006759207414120283,0.0190309821022724839911788,0.0200808227743653928965006,0.00288337636738108171394201,-1.24395604343224119858746,2.33235918812714393411056,3.49953011190602092383983,1147.12096284637550525076,1129.71936261718883542926,1137.80608955680099825258,1128.00063571633540959738,-211.174794904819634666637,-335.140202548232196022582,183.239166340202473293175,-95.1799890072790617523424,153.012964025658135369667
78.3449999999999988631316,2.01965630492997405553979,1.0175616371679536698025,0.631193166190001431203882,0.0505455938679684191328079,-0.0301272942703546160736483,-0.0120233572638886645339573,-0.0128620091072354902211883,-0.00271507805380908880457658,0.989978724659779540928639,0.140483225319250309981456,-0.16985343504089001065438,-0.158596086319564261168935,9.80320960538761454472478,0.0191490090966877669897972,0.020038921404882049231988,0.00282015524486751946106611,-1.24401595204143333717184,2.33232405943808451809218,3.49953693315254765749955,1146.55681729101388555137,1129.12750526054787769681,1137.9170808233600382664,1127.88457154712659757934,-237.744038823155051431968,-140.733991475318106267878,-139.343993938918487174305,-37.1385858913410089598983,153.009974019156203439707
78.3474999999999965893949,1.90812167513140251706716,0.989019674480358323975793,0.626275251717231085102355,0.0553090187095123322902346,-0.0278287903810037588747672,-0.00859807514815879095348983,-0.0128105919182696648128683,-0.00264791317529816661036079,0.989975611994418303041243,0.140506091288176870879312,-0.166725153705514217428174,-0.15479648403801690714765,9.80585344638539346817652,0.0192800847518533637059424,0.0200004711238895849234609,0.00275378436803170060717671,-1.24407475640231557356685,2.33228716997930352050616,3.49954315204280774764811,1145.93224265226081115543,1129.01569265981288481271,1137.10936958710703947872,1127.81494278687887344859,-281.226133763677694332728,19.3507053077690933662325,-562.368885563550975348335,-79.4207064907652551255524,153.006871025986441736677
78.3500000000000085265128,1.71125042472105959312501,0.85906540984687518314189,0.565558509329111225305553,0.0597269798966154757957625,-0.0251508265152917236118224,-0.00501509456105153194477309,-0.0127754441776251666945674,-0.00257475319995744637152635,0.989973058138812755935021,0.140536778479922991325068,-0.164255429017895249188541,-0.150784749655140160040645,9.80939015491568966353952,0.0194250172649627836363173,0.0199651381589030472996082,0.00268755110541942822399708,-1.24413237577599433691944,2.33224913581222059733022,3.49954965808067175458973,1145.15068662219277939585,1129.22425878708691016072,1135.10523639553684915882,1127.4874680146720038465,-283.161986764433322605328,99.347484573162446963579,-884.048121652332497433235,-188.39917965992722770352,153.003018803942950398778
78.3525000000000062527761,1.5204982937236062312536,0.688431508487243104532638,0.496375621115189791243694,0.0627291600545665933852391,-0.0230666876185409985833275,-0.00322770574868973736046285,-0.0127547447431291052777347,-0.002492948904523415842166,0.98997068277989463958022,0.140573504180909220062645,-0.162482935664145788923207,-0.146545014308396448488025,9.8138906676677741813819,0.0195842318013624283601359,0.0199328809283844110566974,0.00262461987129245693031732,-1.24418853222301417638107,2.33221040610891305888686,3.49955658471508268547723,1144.51643271843590810022,1129.51243008267965706182,1132.68912897883683399414,1126.87294688857741675747,-233.504562192987123125931,102.032376057379252642932,-1073.64563032053752067441,-321.469766150286432093708,152.999703259323837301054
78.3550000000000039790393,1.31959656544514869480622,0.475515380051502067892955,0.457667891690501593693341,0.0654455934033997405174787,-0.0215338787503148755553273,-0.00289778432193014620632532,-0.012741659508148029528174,-0.00240362464135633309772477,0.989968340453413420121365,0.140613108812490117394134,-0.161334659761340204475744,-0.142123285068052024326946,9.81941674886732585036953,0.0197574984209588980221817,0.0199040005481843848555989,0.0025683000572797641883338,-1.2442442571603222756238,2.33217183707784592172629,3.49956380381462794915137,1143.98316381122890561528,1129.73442066737334243953,1129.73700824393904440512,1125.88011918392203369876,-184.62538657662173591234,53.8497045454767899741455,-1350.36165433343762742879,-494.576882631458431660576,152.996280946511319598358
78.3575000000000017053026,1.07062221746123009680218,0.20081594576182879019477,0.500943867421730582023542,0.0683434327412881237329145,-0.0206450261931490422484536,-0.00381882928097900323227698,-0.0127231193440402561012359,-0.00231250386549981378631058,0.989966012351838675620286,0.140653583951891786307797,-0.160597533713547957479051,-0.137641083268653263704806,9.8260204884382211787397,0.0199436427553927736466832,0.0198792628830834483544265,0.00252207011377146399222493,-1.2443014667211427237703,2.33213345480518130514724,3.49957058978869905985221,1143.59330578555363899795,1129.78167860540679612313,1125.9373207071757860831,1124.40006247542237360904,-79.6606113793401675593486,-25.3338096675409651936661,-1379.1252820003858232667,-552.880496691343864767987,152.992054275235119575882
78.3599999999999994315658,0.85146043690858597141613,-0.0218818579262898965653861,0.632280102879804295490374,0.0704943316557843924208271,-0.0207539297888421347959564,-0.00506011595133200754031977,-0.0126970854358676391721028,-0.00222499224201100093828432,0.989963392570526679037357,0.140695078251635241617379,-0.160265913947177762732821,-0.133248285379511610670988,9.83373745646493446770364,0.0201404225882149783000141,0.019859968726239473485462,0.00249018377429331737651919,-1.24436026321905890412722,2.33209523216055636396504,3.49957623005214646383365,1143.58486075433256701217,1129.6077516190357528103,1122.84138183394338739163,1123.11571670046782855934,85.5154355009158422262772,-101.168833001976210539397,-1161.23234390976108443283,-471.916563062470174827467,152.988435081883267230296
78.3624999999999971578291,0.608928372924382621533823,-0.215260168008405139428163,0.849047793898875524654102,0.0725524416660902893294605,-0.0217039580826363862064987,-0.00553131068155498974853179,-0.012665305872664508329839,-0.00214443739795134279135791,0.989960917672291662583461,0.140733100016057294245897,-0.160404829501521128953812,-0.129068750415905958428553,9.84258921334400938008002,0.0203449831439462269777607,0.0198477290706730626068666,0.00247721061234635903797185,-1.24442037677841210729923,2.33205762791870574446307,3.49958083786874718512649,1144.02088296305782932905,1129.27583444039737514686,1120.13115898763226141455,1122.04047966011216885818,259.53892066864642629298,-135.981556536886245112328,-984.423579466132991910854,-358.45518460087845369344,152.984719201669236099406
78.3649999999999948840923,0.33927422118670719219935,-0.373329044515289643069167,1.0957347902090237568018,0.0742767743854634149291982,-0.0232311368713856991607969,-0.00406610919556415258829807,-0.0126286843572457826989641,-0.00207336378170464149736651,0.989959453777348397096603,0.140760878340564388189193,-0.161054868672996454037616,-0.125211867144292360309876,9.85258455368095376059046,0.0205539493724648386629994,0.0198445563022663883090413,0.00248774110529614844722346,-1.2444819193449123684303,2.33202120095575304858926,3.49958550782841282256186,1144.88255535767461879004,1128.92784383635193989903,1117.91926393661719885131,1121.32344077746506627591,449.601713946953736922296,-104.57453939927998476378,-741.751197453526174285798,-165.172718998427626502234,152.980926447807547674529
78.3675000000000068212103,0.0341531962796590288222731,-0.486897967737139780730615,1.30596865397050310164673,0.0748648315109342460393904,-0.0250952879603955833487383,0.000431794359208614560510786,-0.0125887788111644916000387,-0.00201206430354309174363125,0.989959426228810057679652,0.140775072637653680951431,-0.1622638768753985050175,-0.121749558152198150695611,9.86371882679791234238564,0.0207633637072287026426043,0.0198530239881480226327159,0.00252633619312939497469905,-1.24454491140130252269103,2.33198725289643871150247,3.49959004787488536791784,1146.26889153279694255616,1128.75296174339996468916,1116.422403000357462588,1121.21461606511843456246,717.690112722880144247029,16.1638659617580309202367,-492.824655407369164095144,121.428777297107416188737,152.97704550676684220889
78.3700000000000045474735,-0.369845674378365352197306,-0.585489494899424922635944,1.43306740977811175596912,0.0741063759206387201450283,-0.0270801251687339747387107,0.00757505517550472948218321,-0.012540412404109531341323,-0.00195987863342385456796868,0.989960394003286725528312,0.140779182476310410487841,-0.163938265927492110574093,-0.11872022505158794092317,9.87597674858625040883453,0.020968804724753337814791,0.0198762059050809174187702,0.00259719542724702601166342,-1.2446095780989880896783,2.33195658013264539576426,3.49959381743737063530375,1148.47100592129595497681,1129.00866316616088624869,1115.4551406595755906892,1121.93058466395177674713,876.632951593525490352476,205.442533179580493651883,-234.366665365391213526891,410.729710096630469706724,152.972293871532855291662
78.3725000000000022737368,-0.736361591682706095873812,-0.654714059156154548624329,1.40459261540696478398615,0.0726154446928188868071175,-0.0282988908176694253793215,0.0131124827631210246620119,-0.012480477069044027677025,-0.00191485481059136346780603,0.989962011843497746710341,0.140775875326165367251718,-0.166015699294550900244616,-0.116144115373571832350308,9.88932936317372401902048,0.0211659274862297484831597,0.0199170038827111012258442,0.00270448095862792139282282,-1.24467574558714866306275,2.33192947309863818361464,3.49959726673911752925505,1150.65205629076058357896,1129.78017440929693293583,1115.25056967353157233447,1123.26826461559971903625,910.110470628715233942785,451.993284692527595325373,9.61155007381386106146692,680.128648220061336360232,152.968262848032424017219
78.375,-1.13571461866110934302299,-0.733411758281767189870948,1.24155022905512946174156,0.0706266162882350084784022,-0.0292006377525809261708201,0.017143779145224496973654,-0.012411261924620973357003,-0.0018719192915682438243391,0.989964410567582886457672,0.140763938900606094817292,-0.168535842530938062555634,-0.113994254393213645393246,9.90373340037204030750217,0.021350861948474950113841,0.0199775739121057956115823,0.00285232324198589131877823,-1.24474258629263490050221,2.33190616794186178495352,3.49960055035130901401885,1153.0215582744353923772,1131.26862958962146876729,1115.50319840994461628725,1125.33122790504899057851,1038.15746049803078676632,828.743769523115361153032,179.980949484279307171164,1043.75655662424264846777,152.964169291395194250072
78.3774999999999977262632,-1.65399350146743362444113,-0.854481212110614229970906,0.928104715366000032616967,0.0679865902206945316166298,-0.0303792136389822234332492,0.0202223852082605015656469,-0.0123394404179691351275405,-0.00182729162050549809662159,0.989967388894478994565418,0.140743955981215362882608,-0.171609134433354848514597,-0.112278362125200648069523,9.9191321432580359385156,0.0215202150776990369651642,0.0200590525808672683061307,0.00304484680323339985605346,-1.2448091411046664500617,2.33188475029713382369323,3.49960387863475119729628,1155.84284359324601609842,1133.92389325690874102293,1116.1504744209521504672,1128.48704739871618585312,992.946552705910107761156,1106.28575254991687870643,279.73446930330260329356,1235.08243090162523003528,152.959201437840704329574
78.3799999999999954525265,-2.10910649589295884354101,-0.977036950739794018971907,0.602148473349405910504117,0.0653501058979676918703206,-0.031863013301656799292072,0.0216400988904477814545046,-0.0122669029824116707777515,-0.00177950339859854174753839,0.989971237567206396867903,0.140713338803019782918824,-0.175235294165809019073521,-0.111029943379985562845746,9.93546012832433689254685,0.0216714040513040114011023,0.0201609332466177806897356,0.00328569494102864479226356,-1.24487543469668904272396,2.33186325761510993004322,3.49960710582036016447205,1157.98629103796042727481,1136.80005835236602251825,1116.901870756459857148,1131.5066400595515005989,770.4489377586130558484,1253.65763680205054697581,347.259307774003957547393,1237.63160553732632251922,152.955029670175946421296
78.3825000000000073896445,-2.55242544355688094626089,-1.10792362954116141438021,0.244379456365097891268334,0.0611880947909482636459799,-0.0343159073526915561758166,0.0222553012391450942553117,-0.0121944656761756205221037,-0.00173200586167749802021798,0.989975665130376270006707,0.1406736381434312010974,-0.179369099597937897705435,-0.110368471861976485959289,9.95264291913854748372614,0.0218022911468846482263562,0.0202811793977740600913862,0.00357819718759597648824466,-1.24494156661923938145264,2.33184025437406461378487,3.49960968419483098301725,1159.69508828204652672866,1140.19218144093110822723,1117.88677095982552600617,1134.67520542641477732104,609.863104412219399819151,1552.98902628328505670652,512.429317252655096126546,1369.70406472095373828779,152.950844695409671203379
78.3850000000000051159077,-2.99485479069910986993364,-1.25050103493636188822791,-0.189347248983372962172211,0.053033826627319854973841,-0.0385385208771683238082595,0.0222620260630321704919954,-0.0121228805629049612990755,-0.00168943023421617706351927,0.989980400450256925459769,0.140626418704820621563556,-0.18395188891628982963411,-0.110425640691987209107694,9.97059836010101285808105,0.0219112186158590092899257,0.0204161096166168842813704,0.00392515200781634859134028,-1.24500716820079504465468,2.33181515868073452324438,3.49961236182221613333354,1161.03560656002741779957,1144.56500348379745446437,1119.46401734272808425885,1138.35516038316950471199,354.416906072678500549955,1604.54040222326011644327,667.992962144006014568731,1294.93564105209316039691,152.945833936423127852322
78.3875000000000028421709,-3.22425262361843456559996,-1.34432135200066471547586,-0.533876730902197338402004,0.0437061625342036949581903,-0.0427341982958861221764124,0.0216041206166486497719514,-0.012049976401328580180583,-0.00165193081205729729553366,0.989985702189767668990328,0.140570219488874548208202,-0.188872208176536993118333,-0.111222331014903003110206,9.98923959808316119790561,0.0219969772109075492605434,0.0205604910474459605385089,0.0043283554841018687109333,-1.24507217385440149826081,2.3317879742680167609592,3.49961627112901485503471,1161.46717281240830743627,1148.2148834520401123882,1121.22673577054251836671,1141.14988363166935414483,26.4412021387910876057958,1403.01664673375216807472,819.298874415807631521602,1039.8761907877451449167,152.941689160961203697298
78.3900000000000005684342,-3.24939433678608668998322,-1.41211999276822863791381,-0.835370337236660875923633,0.0333013673131003079541657,-0.0467794785736946397425307,0.0201690531830479614916474,-0.0119739135304146194355157,-0.00161651388434681515630931,0.989991444050260294140742,0.140507050284966239495077,-0.194027168167677288579398,-0.112702111994886278178996,10.0084752802328402765397,0.0220583175961362003281163,0.0207080633075114213526025,0.00478875824071343329096928,-1.24513766330791209036022,2.33175846432117239714898,3.49962176336593477898873,1161.16781257072125299601,1151.58008671745983519941,1123.56051171480339689879,1143.55454133710350106412,-228.572412377232978997199,1261.03207113315966125811,1031.0903611231251488789,896.795813512514314425061,152.937603257307699777812
78.3924999999999982946974,-3.08877213569304664986248,-1.47025572550399341587024,-1.07960666250193049187089,0.023197976682086490080037,-0.0503833401391516957912309,0.0179975291516291206750378,-0.0118886365691777042691291,-0.00158090284661404094010417,0.989997050364704200831056,0.140443511005391985513313,-0.199222572048237123176762,-0.11479333838622707286703,10.0282130722071336492718,0.0220938183917404815104213,0.0208518593335429505697398,0.0053064175572474460082506,-1.24520487279076963460511,2.33172587399352027048849,3.49962883937571689330071,1160.3243107505231819232,1154.5200438077001763304,1126.38218757615345566592,1145.63386269922784777009,-436.187197466675740997744,1039.80016320532718054892,1229.57381855165249362472,767.049834250125968537759,152.933585043191754948566
78.3949999999999960209607,-2.72356131834458903284713,-1.53809630760411497618634,-1.22624117585904879312864,0.014396017007395761622135,-0.0534667488613981972678246,0.0148305494231124965903712,-0.0117876487790775277136879,-0.00154617477586171296957684,0.990001690954173563241625,0.140389580160036414602232,-0.204241010401843392507715,-0.117471405108748636059168,10.0483594633494792702777,0.0221019395157054931999596,0.0209845195399083299381271,0.00588084901271145044088229,-1.24527540530782498962026,2.33168947281127136861301,3.49963783877397549559873,1158.98687658338985784212,1156.77908753348174286657,1129.70838080755606824823,1147.38979050835064299463,-643.562293882662174837606,812.82462071087388721935,1534.247083067420817315,722.238439235720989017864,152.929668772653513997284
78.3975000000000079580786,-2.11584149462655357609719,-1.65393256202571992119488,-1.25589586685921128506038,0.00653507984534174284768637,-0.0568274869807086496775739,0.0100986141868667222976086,-0.0116723166942985980693015,-0.00151141720168045112782096,0.990005341139194472432905,0.140350991897602306313075,-0.209024151425850623908786,-0.120674676149094772803494,10.0688173153834075179702,0.0220814420580557266293731,0.0210985247782744453348691,0.00651134144261067155518008,-1.24534924259216972508568,2.33165000551428214237148,3.49964901710077880281347,1157.10649928110365181055,1158.58416691126240039011,1134.053422991505385653,1149.24505489541343195015,-684.935711814791375218192,509.339766860664553860261,1606.13681795583670464111,653.540756765379455828224,152.925110128210548054994
78.4000000000000056843419,-1.5357104279851130357315,-1.78519075591236142663831,-1.14375796926490536087329,0.00269009158593925623917387,-0.0599968361127755298034536,0.00588593176195952808710254,-0.0115507880388251264747179,-0.00148153566159372443618303,0.990009005006579956287283,0.140328119324352268426637,-0.213632446606797588017912,-0.124457671785186130275491,10.0894865714605383999469,0.0220317199357757224909005,0.02118661383443760579115,0.00719728713773765647887526,-1.24542406994051702007198,2.33160837624371675147472,3.49966276129590703192207,1155.56219802430928211834,1159.32578636778998770751,1137.73906489735077229852,1150.6574942921838555776,-552.149327043573180162639,155.616376538369536319806,1428.62568967246147622063,546.721443028488238269347,152.921443147264369599725
78.4025000000000034106051,-0.960624809944758184521163,-1.9432796701945598272232,-0.890992939090928359746613,0.00135048945185073116653784,-0.0641338618845497809850542,0.00207092208172992859466222,-0.0114277991809509527759703,-0.00145992660484886246398395,0.990013658092892545603547,0.14032020499559741399942,-0.218064859865682414419297,-0.12881959729700240280259,10.1102701437980257992422,0.0219529091106021347068467,0.0212424941263488625819988,0.00793754613190682072054738,-1.2454979181709147084689,2.33156516697275373317666,3.49967974245261759236314,1154.34575264588829668355,1159.36224879395354037115,1141.19655143986119583133,1151.97866211055338681035,-398.517836515291946852813,-105.714088636164632362124,1410.07283685154106933624,559.588642911021111103764,152.917927632340877153183
78.4050000000000011368684,-0.347714138988556076270697,-2.14002649666868460798241,-0.455530560010710905416431,0.00173000446177870408070998,-0.0700388627652662743017231,-0.00119315659936006755736937,-0.0113046857657717412376508,-0.00144531724055209278428924,0.990018067271746460278337,0.140327221056885997896302,-0.222269517740311728370983,-0.133643969597246337066565,10.1310748546346474086022,0.0218457614946471409544948,0.0212612622316443837522382,0.00873050222189388457072479,-1.24557057393530357103373,2.33152035263080614768683,3.49969976090846479621632,1153.56960884173463455227,1158.79721592460964529891,1144.78942908160206570756,1153.45543750673641625326,-138.480464935163098516568,-269.438230586883435080381,1197.07920237005691888044,518.670779523989608605916,152.913897612237121848011
78.4074999999999988631316,0.0713015741437985212103357,-2.29029405773849603633607,-0.0224139966575546689675491,0.00289345208199166641083178,-0.0756818342135472110765448,-0.00235441423897201360451725,-0.0111792433029455039183997,-0.00143678490681409709757432,0.990020429756665043541375,0.140351470058358795967024,-0.226127220291495789616931,-0.138801856048353322581335,10.151811667362864000097,0.0217114499709051972375917,0.0212395976926845544974221,0.00957440839647062495731955,-1.24564349271777063954403,2.33147383786838302555111,3.49972199551120999316822,1153.65335032121311087394,1158.01505764102034845564,1147.18194745170603709994,1154.57201600817097641993,205.045706062178425099773,-327.926740811588331325765,821.293277640253336358001,418.632514937661312615091,152.910704048861163073525
78.4099999999999965893949,0.391239759868257597208441,-2.40660823396706247123689,0.422400548154630239849894,0.00415992172065028469052361,-0.0820026584608209568871828,-0.00176770487502976711077785,-0.0110460027477236686493933,-0.00143316150935668038500503,0.990019712540164076308713,0.140392446171327484050195,-0.229460014614777219055242,-0.144143118595593144881661,10.1723957358595864519657,0.0215517268988641465254918,0.0211757667357542998798348,0.0104674857612851186089431,-1.24571780038900259413026,2.33142573717520784626345,3.49974658554615469796545,1154.59483737204459430359,1157.15758222055319492938,1148.89589546979959777673,1155.54860008142281913024,519.068520468997121497523,-320.960191124611753821227,580.403160419761320554244,367.937212536724587153003,152.907688478963336820016
78.4125000000000085265128,0.640737582262128513299615,-2.48655242340736259976097,0.827756556793609932221045,0.00518113376319840387290716,-0.0884449922908302904600575,0.000323010215329724414273782,-0.0109070021932663220598503,-0.001434160878574244684866,0.990015905834083720371552,0.140443761332673389130576,-0.232246931280068347192014,-0.149553073975282502239281,10.192740386663306395576,0.0213689215592538193921879,0.0210696998386376913026119,0.0114085315876904826171145,-1.24579267207268040706936,2.331377846249930829714,3.4997736871235050060136,1156.24869292356311234471,1156.41025668539418802538,1150.08396325381045244285,1156.41170207085815491155,816.194572862255540712795,-237.927958486893118106309,371.412796863988432960468,322.389229502427895113215,152.904824743257790942152
78.4150000000000062527761,0.823083866531326369120336,-2.52241726456240922260577,1.13156343366747491607782,0.00612463899319645645874521,-0.0944115067977143174182686,0.00394636475989725270946407,-0.0107628438143406082033726,-0.00143630167050911639915756,0.990009784614074073161305,0.140497790640264075268107,-0.234457432494049822224724,-0.154850343034994425428508,10.2127617422133258884287,0.0211660136940802247329518,0.020923462960661578374788,0.0123963530421150568139321,-1.24586632805920527466981,2.3313311066645683311549,3.49980278464767380341982,1158.67581023636375903152,1155.96794242811643016466,1150.752959454123129035,1157.16054622893807390938,1204.26302514179428726493,-94.4523487160899577474993,214.325134602235550573823,309.709735141186399687285,152.90214838426510368663
78.4175000000000039790393,0.976257291314724384712065,-2.51909101655808065345354,1.32834171545254320356833,0.00810712095931399173709409,-0.100985452366174552341072,0.00928022457417780784194594,-0.0106109063219294742080878,-0.00143783053326829429047207,0.9900032518661998626186,0.140547770665522875344067,-0.236001741902575945530884,-0.159885614205147880140245,10.2323788021714694451703,0.0209466483267435853166116,0.0207411855237219916459068,0.0134298487873516173701782,-1.24593728259850644590756,2.33128719671030282256652,3.49983459557986487098447,1162.27000804926660748606,1155.93799494181416775973,1151.1555889268206556153,1157.96025074656267861428,1388.42734050757690056344,79.9033829367362216089532,111.696885970297174139887,279.578078324884302219289,152.899157878911864827387
78.4200000000000017053026,1.04830051699946169563304,-2.4768267749561423407556,1.33507537675926979403584,0.0108026757126959086635631,-0.106443983549802570487408,0.0137708636415332843355719,-0.0104490544222328816253986,-0.00143383447117299508456745,0.989997897899350776107497,0.140591620196734934378213,-0.236820057822718310625021,-0.164458477267958008694038,10.2515115235439147056695,0.0207147638470230703588992,0.02052901361376810104864,0.0145080127365101330810804,-1.2460053589000630314132,2.33124741647122002419223,3.49987030041682301018113,1165.61794693889532936737,1156.36745934279974790115,1151.31144388397410693869,1158.55843662056122411741,1351.62977347668106631318,256.219004215932955048629,56.4798227727864983194195,224.323802752655240055901,152.896852611188364789996
78.4224999999999994315658,1.05939168972969532944717,-2.38341652645644375141387,1.18120253323326851457864,0.0140310336527228532443878,-0.112355440638138709408267,0.017543478276790345354863,-0.0102769426722003655305659,-0.0014248788829783153291747,0.989994526358030535462262,0.14063051023589312471529,-0.236885026679189258924652,-0.168499123287243424140769,10.2700784338342732127103,0.0204744604244226080513869,0.0202942549543536111811282,0.0156303911322840244357835,-1.24607041035648968829719,2.33121242925521210409556,3.49991005393208309826036,1169.02815691664386577031,1157.21908996289266724489,1151.43798804068433128123,1159.08186976032493475941,1440.32420724851385784859,441.458736459154749809386,73.6583973543689864982298,207.673833646192804280872,152.894743440044408089307
78.4249999999999971578291,1.00853103157542478562902,-2.19618576174363466790851,0.835763084086749930001758,0.0175248885799390609341319,-0.119791137223982019355262,0.021003886846038145180815,-0.0100942417740017467003844,-0.00141085682487320862935065,0.989992538075118777562977,0.140665871529136898843149,-0.236184363247332718138694,-0.171940272380163988730217,10.2879978753218281894988,0.0202299718546051013334797,0.0200447057355806687595212,0.0167969328757735895940595,-1.24613240054339935447558,2.33118187082666450393731,3.49995264805768613314285,1172.81956797513134915789,1158.57475302509351422486,1151.67973587074561692134,1159.59680578879124368541,1289.25610057493872773193,524.426784995443426851125,114.550623054369268061237,165.609056604139908586149,152.89244060146830861413
78.4274999999999948840923,0.925191229849312457567123,-1.97173091452475968132774,0.440553084155725305226525,0.0198433234438592509540911,-0.12600933315583059957099,0.0230881238241755805395972,-0.00990774828954958490523364,-0.00138982447464907634369913,0.989991439105241899376608,0.140697135960004326982187,-0.234869304492296926412109,-0.17471414290288186932365,10.3051841108581072603556,0.0199853306853791309882773,0.0197878575760418173867805,0.0180083396281482434331256,-1.24619150767867403750699,2.3311541154574340062311,3.499996867881661977151,1175.47443741951269657875,1159.84122388786749979772,1152.01074115595565672265,1159.90991504334488126915,909.763534980826761966455,504.704249353633258579066,168.489872056117718557289,99.3733724175752541896145,152.890712087584205391977
78.4300000000000068212103,0.817798539779886035638867,-1.68567233731295784693316,-0.0264074802164009914129394,0.0215934798031574351484529,-0.131901507218993047088063,0.0243502854754420391958369,-0.00972114173454387622830275,-0.0013653747065211626829373,0.989991307628202754642643,0.140721280604471005171163,-0.233024496365452860047185,-0.176873252554633597632971,10.3215519564784550254899,0.019744528918175564130566,0.0195301033557089484538061,0.0192657163967573132057343,-1.24624838450625796681948,2.33112823382184952691887,3.50004148538163750714602,1177.36838565004427437088,1161.0982742718665576831,1152.52218523102783365175,1160.09367265088008025486,611.95100568029340593057,486.769046420445761214069,241.446811517641378941335,54.9343850291582072031815,152.889181222670316628864
78.4325000000000045474735,0.702397008417895762910632,-1.37282194930649570352443,-0.515196065538104375214346,0.023017188445174700112128,-0.136754200505225742556803,0.0246515175323764358650269,-0.0095385353940570464376103,-0.0013418194640829660211484,0.989992178926922372639297,0.140736726254153815540704,-0.230752255416080798156031,-0.17850343812494809392355,10.3370160269107813633127,0.0195110497946436797778169,0.0192766387912683551109083,0.0205702454828897672578503,-1.24630332801643484152976,2.3311030928468845502266,3.50008576211332789185349,1178.53419244792007702927,1162.2750691199744323967,1153.21797521354619675549,1160.18458696849120315164,292.280213526139277746552,446.855495479800879365939,330.948327196830121010862,22.2471830387551072760743,152.887814087801956475232
78.4350000000000022737368,0.586244515482140293727298,-1.0773359744165753593137,-0.971949944398361465047742,0.0242989476931282227800679,-0.139227650278863940291885,0.0231419446846456711153195,-0.00936317865753269300277406,-0.00132326819751992538591601,0.989994507387029765155262,0.140740005819077695914388,-0.22814781181112592234328,-0.179698672823543903476207,10.3514925666062485021257,0.019287880277550580043755,0.0190311646803845088693485,0.0219226313753791597627174,-1.24635647170096164337849,2.33107844907325478800431,3.5001306069572466483919,1178.82978671767364176048,1163.3325517492635299277,1154.17692686701047932729,1160.20490856607375462772,-35.9972342825003579491749,445.899050617432180843025,486.282201894424645161052,6.90526919161757657406042,152.886644219727145355137
78.4375,0.451187563854398121510059,-0.812361742902342864880438,-1.39657543926400884437555,0.0256725025097283010566684,-0.139855838772863727559326,0.0188105017811302892283276,-0.00919442529000544760131586,-0.00130910825252834569012994,0.989998235062364617675712,0.140732421917540068134755,-0.22524709510121299071983,-0.180459457332260264639245,10.3649032324813603622715,0.0190772203692068376135182,0.0187962996092199269293488,0.023322365561147688495236,-1.24640865610339401925444,2.33105346088487186406724,3.50017802315195281082083,1178.35420627650773894857,1164.50456437305956569617,1155.64938622301610848808,1160.21911331444925963297,-266.30861052509891351292,424.638053863168011048401,585.020561828728205000516,14.7979642983180372795005,152.885468276458936998097
78.4399999999999977262632,0.343646232696447562204867,-0.701608109742122287855182,-1.58760498090878954258187,0.0264173843017976479885522,-0.13942187983486617475215,0.0133718089770581902153701,-0.00903512705720310553558772,-0.00129840660477575464519517,0.990002378186233600310118,0.140722297771073312500079,-0.222162886219160249368088,-0.180802481225395939024025,10.3771721291580778512298,0.0188800041991828877752102,0.0185735047653948597001783,0.0247679104757278119308683,-1.24646072440368915756892,2.33102654028219991033666,3.50022883248196459149426,1177.49824366504935824196,1165.45574201857743901201,1157.10202967615146008029,1160.27889838756527751684,-365.147196855618972222146,386.863993373469270409259,599.33622520470578365348,46.0174566357145664596828,152.88467816981176383706
78.4424999999999954525265,0.24036713575002827125715,-0.713552900243063836782653,-1.5605748329959387987742,0.026654941036428153600113,-0.138896631864882463824884,0.0068554694835069630853841,-0.00888886868617873998621448,-0.0012882650325268560180525,0.990006598734977760756237,0.140713997691504250076022,-0.219033195665480184821661,-0.180712751172924790399321,10.3882295737557974746323,0.0186963425039337709232523,0.0183629874449918982504126,0.0262564304688946842381014,-1.24651295039635323647076,2.33099709065829152621063,3.50028399876997831086101,1176.52847029223130448372,1166.4388843399251527444,1158.64606734903691176441,1160.44920059762762321043,-360.398650744613519236736,445.321783279999806381966,645.97680279719247664616,109.128263156088095797713,152.884085097735493263826
78.4450000000000073896445,0.113121253586595929552239,-0.832336274398223885384596,-1.26830802787266039288738,0.0265878587100953217570165,-0.139644057587958420052487,-0.000687441275029729249521071,-0.00875386599999034530072972,-0.00128133343623074375319804,0.990011510682190731813535,0.140705919535931561759057,-0.215871999199880149067354,-0.180277420073508720665956,10.398015973104984155384,0.0185259423676192545860086,0.0181636855184355572312427,0.0277838185730405647089203,-1.24656604053170028123532,2.33096618187354831519542,3.50034495013792978923561,1175.6962504113228078495,1167.68235093498174137494,1160.33191369014366500778,1160.8245397033467725123,-188.539565437076220177914,464.08252237253128669181,544.746271636761207446398,166.374902119965980773486,152.883601260804937282956
78.4475000000000051159077,-0.00832006874981503462274102,-0.966717403560761190384198,-0.842442744635132689801083,0.0264430202592248995985269,-0.142039134231822294918146,-0.00541442964645513693383583,-0.00862342414996719770770017,-0.00127860022927067142062274,0.990017384110004616815104,0.140699462225916283042437,-0.21259545945120328358513,-0.179539821344336103514649,10.4064846325962978568214,0.0183678367071590346870646,0.0179743406152312497348067,0.0293447006495339522691435,-1.24662068391653790833118,2.33093451992377387327338,3.50041219219404320384115,1175.58577246504410140915,1168.75929695179229383939,1161.36979870722598207067,1161.28107510822906078829,126.238288541095457162555,430.311951100639191736263,293.734042897671088212519,204.561755185163349324284,152.883388036290369882408
