t,ang acc x,ang acc y,ang acc z,ang vel x,ang vel y,ang vel z,quat x,quat y,quat z,quat w,acc x,acc y,acc z,vel x,vel y,vel z,pos x,pos y,pos z,mot 1,mot 2,mot 3,mot 4,dmot 1,dmot 2,dmot 3,dmot 4,vbat
3.42249999999999987565502,0.174377004201454105514202,-0.28027134442379297851744,1.01035342413149753504342,0.0297998911477621759857914,0.00268314105504727793208297,0.00249777715461670926297422,0.00401739356686002004048763,-0.00668018733688333001680126,-0.995244199527859363385573,-0.0970975927423612383826423,-0.0886322964554007719506501,-0.00310088817226283897099393,9.70745606241694680704768,0.0193076749099870617620844,0.000800197609424627620197668,-0.00737284691828380984307545,3.66767963319512046993509,4.86282555316953235546862,1.18852286229241710380222,1115.46783037954060091579,1111.11462861912218613725,1128.53892243043947019032,1126.18573463557004288305,176.751687629063667372975,554.983631927515261850203,-648.212568753253322029195,-486.517718232256697774574,150.759598896971880321871
3.42500000000000026645353,-0.0847324234118888297562222,-0.437845765962559752004779,0.781204957985493719796466,0.029077699508459751986944,0.00143140460895459014842301,0.00527847972131250189886664,0.00401467398254052188627528,-0.00670445133408174073069707,-0.995243823566490770637927,-0.0970998435510883606269772,-0.0881119723211279404218033,-0.00260049725205614007395027,9.70844163056830389280094,0.019132810580367490271847,0.00061473451215602898517476,-0.00765700102061560652910721,3.66763152591017638215476,4.862833785721003110325,1.18849511271010932489389,1115.98378197523652488599,1112.59637523525543656433,1127.19628668054519948782,1125.10441908016741763277,230.057137271372027953475,607.152610557982370664831,-429.421558178244708869897,-385.529008801241957371531,150.759783087733580941858
3.42750000000000021316282,-0.319299456530266256848449,-0.533187382965849110405543,0.501851868050722127456709,0.0281543117389273268857952,6.16833284150575039336828e-05,0.00802817549063924648655721,0.00400971424541534098712203,-0.00673136450893984088911237,-0.995242922941110053081104,-0.0971073964294452279810699,-0.0876238595171841272435387,-0.00210259594421236678529752,9.70966663601214463596989,0.0189582014180363044031363,0.000431293891959087284399682,-0.0079214462463401032199517,3.66758316622216717917127,4.86284028018288783101752,1.18846742559417073437089,1116.61811606589753864682,1114.15039167191230262688,1126.39181463954810169525,1124.25808959156370292476,284.851585241000691439694,614.302097764643235677795,-195.769610816573361944393,-284.435240204635817917733,150.759946776721420746981
3.43000000000000015987212,-0.526355835481146616672277,-0.547399160033098519662076,0.184358198932974365336079,0.0271633062833973384919695,-0.00151161390802887320508607,0.0100260535976816837072656,0.00400622317649591483390559,-0.00675592561558949200595237,-0.995241438789664978337157,-0.0971210559936884487708397,-0.0872334608873752137547797,-0.00171668537098085965952876,9.7110939323877509821159,0.0187832396492348605021583,0.000247866041962295253087839,-0.00816558829441744148114335,3.66753483405116620374997,4.86284595832364807677095,1.18844011830788232053635,1117.40803990144149793196,1115.66788572407858737279,1126.21743862646235356806,1123.68224287914426895441,388.01516622202973394451,626.221142897442973662692,42.1502050433909829507684,-197.687329707063895511965,150.760086133118221596305
3.43250000000000010658141,-0.749266875401414567114955,-0.467664875389330658705944,-0.188742066955775666947659,0.0255479280539885507395059,-0.00369987077580205461074803,0.00998249813045539065303746,0.00400295218600518407092714,-0.00677708077991972645398588,-0.995239608492117011628864,-0.0971385088670097540664017,-0.0869176326334835103182286,-0.00146326645480739092608502,9.71268646085968079262329,0.0186074818877344991263634,6.25437675110298701161918e-05,-0.00839014918969921766334075,3.66748631554296755652445,4.86285139313739644961743,1.18841313998462316803284,1118.55819189700764582085,1117.28149738639945098839,1126.60256566476505213359,1123.26965294302840447926,455.54649529941406171929,536.581346007608431136759,211.889952575534124434853,-109.433897050669258987909,150.760226416583407171856
3.43500000000000005329071,-0.916766032967681110399383,-0.324498803280659997572144,-0.446840582365835237155238,0.023721321718854725818515,-0.00563306524133336521814597,0.0075703677733899828530828,0.00399860082062598355678862,-0.00679621853938253746990616,-0.995237649860287287850724,-0.097157476536018208546075,-0.0866566555309513375515706,-0.00131302207554095246022641,9.71440839514604448368118,0.0184307739044487668700345,-0.000126165803567112585819796,-0.00859683501008951314603657,3.66743811181591805592461,4.86285671069815972344941,1.18838631187989252069315,1119.68577237793851963943,1118.35079245411657211662,1127.27688838934000159497,1123.13507339389093431237,477.428938199601532232919,356.27496685811672705313,307.467991929304105269694,-11.6054265249206505217217,150.760322222594510321869
3.4375,-1.06617818108481232641793,-0.119374192303892109889851,-0.609207797818630325537015,0.0215826636874182041514469,-0.00703928188572815454610021,0.00406842882593453497586111,0.00399624491569261150458736,-0.00681044593632183260789592,-0.995235473582325891328537,-0.0971789271917442576409485,-0.0865073162558779029662759,-0.00132629435091786984646234,9.71622685189539581074314,0.0182533612471294064139027,-0.000319003391228796532794187,-0.00878806560222938730475573,3.66739082925061499196318,4.86286238001588078105897,1.18836033085798353781115,1120.94533658800560260715,1119.06287222068999653857,1128.13990562441153997497,1123.21162581040380246122,560.699806900732369285834,231.915105063949738450901,388.531904814780432388943,87.5725430000803015673227,150.76039833060229966577
3.43999999999999994670929,-1.22139894334403664721833,0.158732392022597507130754,-0.686572729721476315845052,0.0187551755360821637008684,-0.00695178770629762722566003,0.00034775890410859998424023,0.00399846603434362343060249,-0.00681925704671806909296095,-0.99523304626655040294736,-0.097203111209839390682852,-0.0865216977002208342817369,-0.00151453331843477007057075,9.7181145192164404278401,0.0180758023750546073515899,-0.000516193952728655051399864,-0.00896696338571769009651025,3.66734491103189030880571,4.86286889298548885562923,1.18833598052715583293093,1122.48927141244212180027,1119.51036797943629608199,1129.21954791341386226122,1123.57293610889132651209,546.401315461355579827796,108.56007367783836059516,386.105687292282766520657,182.988584220860758478011,150.760470173209682798188
3.44249999999999989341859,-1.32399842382465271484193,0.382178817823506433715153,-0.67451261652270400048792,0.0161158377832402825713398,-0.0052199219453050935135785,-0.00176278131393395212471453,0.004007777052757521135673,-0.00682239766691125713166111,-0.995230702201304717746666,-0.0972265092508931005887973,-0.0867516143884841106626027,-0.00188222640094183601977562,9.7200511925652754996463,0.01789887513311065603272,-0.000717573444012910635625424,-0.00913708348594862405922523,3.66730115130327094519203,4.86287712644768443936982,1.18831326195857522876054,1123.67734316531232252601,1119.6056725890791767597,1130.0704340608729125961,1124.12656873150808678474,421.633163381210295028723,3.18738295009076288977212,321.812760126273246896744,277.553211423746120090073,150.760516684772767348477
3.44500000000000028421709,-1.38448529790993557497814,0.564928096894649622861095,-0.625220214872262869398867,0.0131123110007079698990928,-0.00274687733224932137052199,-0.00249107201469476232519318,0.00402412965435552591464408,-0.00682103170635204106297955,-0.995228979764086196801998,-0.0972435295547526973303221,-0.0872025315571857972951619,-0.002400526498276767117801,9.72202528664127818558427,0.0177233627154071461673457,-0.000922712088796001704375793,-0.00930218259561323666806398,3.66725995485376632387897,4.86288710102039622995562,1.1882919084820422472859,1124.59743722934831566818,1119.52630489418675097113,1130.82861171404533706664,1124.96070216601015090419,310.650331774265339390695,-49.1933527313416121273804,316.108118784201508333354,426.339590553351058588305,150.760553221312875393778
3.44750000000000023092639,-1.38534027153453975778064,0.725319000772096544871204,-0.568324902052081304404396,0.00885936562838187530166678,-5.89517220445667810592438e-05,-0.00231427472758259904911382,0.00404719026166419984513745,-0.00681768278705766495734197,-0.995228273217435899233863,-0.097249982084872441112644,-0.0878771920979879161972548,-0.00301389643542264440423395,9.72403343317933988032564,0.017549865402437938438629,-0.00113102089974535953940948,-0.00946583587210256087451921,3.66722089862171918284162,4.8628984481236035009033,1.18827155082360835791633,1125.23059482418375409907,1119.35970582542245210789,1131.65097465479402671917,1126.25826668427498589153,140.922027432591960405261,-59.6567374211657792670849,295.248498345797031561233,512.84375084848034020979,150.760589693855592940963
3.45000000000000017763568,-1.30942118539139440436259,0.815377728509959820435427,-0.538871319497772005568947,0.00473212304135854373160486,0.00181316517134146363253444,-0.00206932825510542685309989,0.00407647237459894153099871,-0.00681223632137695211952177,-0.995228578434126154306227,-0.0972459440149936876762737,-0.088770199944673583436483,-0.00371872597982187552689837,9.7260806245902475808407,0.0173785797066773432806297,-0.00134179804653583611452616,-0.00963121555934863537995483,3.66718273949619621987495,4.86291086606247979773343,1.1882509840479134055613,1125.3020473665112604067,1119.22802120708092843415,1132.30485420577429067635,1127.52492092025249803555,-63.8147049377962432004097,-44.7395037247143108061209,264.690986684769256953587,521.560543954467220828519,150.760616148986628104467
3.45250000000000012434498,-1.14320906199342142706143,0.872850066180620998146367,-0.520822982689746694084931,0.00079994354760593445585054,0.00353509900186384836556774,-0.00241301043497674574944689,0.00410989714704580559601066,-0.00680667418190218035528583,-0.995229876786597800197853,-0.0972315651703426625518389,-0.0898488555581621328727238,-0.00446819237799065543947918,9.7281792890366993731277,0.0172091564708595247401579,-0.00155462063209043993214364,-0.00980098163967941041208043,3.66714427923331776071336,4.86292391558644609972362,1.18823018197077256985494,1124.91152129949477966875,1119.13600830679888531449,1132.97442958821784486645,1128.86606940404726628913,-218.25233150926135294867,-31.901098992694411293769,272.382541773964817366505,526.634100516241574041487,150.760640045029674638499
3.45500000000000007105427,-0.906037840986787856856211,0.911469361796341082104789,-0.490711676635472660024107,-0.00231481258695435650543648,0.00517751343264123437687418,-0.00353911262778184437793882,0.00414639233725721916001827,-0.00680283508586915219851221,-0.995231894501645952821889,-0.0972095832126964320973883,-0.0910986909698387192779734,-0.00522121704166706585015234,9.73034745894197072857423,0.0170407994909940706251827,-0.00176926914767680325789312,-0.00997714655273629867637819,3.66710445841193388716306,4.8629372274370021855816,1.18820985228150011181469,1124.21078570896497694775,1119.06851571211745977052,1133.66676691464408577303,1130.15809142283364963077,-326.64762821660372082988,-28.4700713817989417009358,272.847014319819550109969,476.066681599205537622765,150.76066213740026000778
3.45750000000000001776357,-0.600594295056364302354268,0.931283426486877674577158,-0.412549897809813215232566,-0.00457837996139870764822355,0.00679897754389907106598034,-0.00565200455882425636944255,0.00418235172045510004285029,-0.00680364056308048470445016,-0.995234240731226016407618,-0.097183966794362752761316,-0.092456874666688199093656,-0.00591174662974663922554441,9.73260810702508649683296,0.0168723931983549187141325,-0.00198576341552222489922341,-0.0101611020968192661273477,3.66706288805839175637402,4.86294965635357456790189,1.18818971631074798978034,1123.27828315841179573908,1118.99365794988989364356,1134.33866465981691362686,1131.24640281204324310238,-422.675526856355588734004,-46.9662412596345362203465,261.118139065962282074906,397.201362132690803719015,150.76068144138500315421
3.45999999999999996447286,-0.188339473695172149314558,0.928035160327720265449614,-0.230778906117138499221042,-0.00643994001006776423112754,0.00927903107216050682115593,-0.00878131714366896590218126,0.00421541741132698283972546,-0.00680648656741489506416531,-0.995236274950781596437821,-0.0971615482255692580748629,-0.0938725698685380638419673,-0.00658438502237645995052162,9.73498673950767745566282,0.0167028431539477870138022,-0.00220399474879375695257622,-0.0103534312637591947858784,3.66702039603886920104969,4.86296094320956573398007,1.18816937664420829712242,1122.0974080746832441946,1118.83368450581929209875,1134.97235760997386933013,1132.14409823349706130102,-416.029114465991142424173,-78.4202851462867727150297,172.124118259720518153699,241.776287705629925994799,150.760699318970608828749
3.46249999999999991118216,0.161255718340050396841789,0.893809452448542818281396,-0.00260379721366166272389364,-0.00692126999954706043083341,0.0118319038118139263637829,-0.0108924335833912293985959,0.00424751268016457846771194,-0.00680976730415989647826613,-0.995237811493708490750976,-0.0971442315430586095237331,-0.0953782663969068300602316,-0.0072719543130998209878868,9.7375075032349620585137,0.0165313485770550890052721,-0.00242386260191807803229813,-0.0105536932018489050533194,3.66697821392234990511838,4.86297222736326162362275,1.18814893768675311491734,1121.19813758608188436483,1118.60155652415846816439,1135.19928525111549788562,1132.45528425057136701071,-318.35604118428585707079,-117.887124495157664227918,-11.8712499829601050294059,22.6281153083168931061664,150.760707390099099711733
3.46499999999999985789145,0.470511032325483080640538,0.817995687643188640336689,0.278845742886340175470394,-0.00571625512592986630838743,0.0143968378301782308492651,-0.0111567495887356267492141,0.00428063881909792297297823,-0.00681379682035249904098473,-0.995238889545687066551238,-0.0971314926358162605835034,-0.0970099813215034023627936,-0.00797023234734597907369391,9.74019225973751545666346,0.0163574225729960429087662,-0.00264505032939762758231739,-0.0107605039728863940973191,3.666937313352928384802,4.86298456167004289341094,1.18812813441266840186472,1120.50562786876184873108,1118.24424888334351635422,1134.9130013600590700662,1132.25723881003864335071,-243.416661555085681811761,-180.774081152900720326215,-278.487560940201831272134,-197.144061358162957731111,150.760704435513247290146
3.46750000000000024868996,0.741199042791897078075181,0.678082730323345650447209,0.622511795735451567423979,-0.00258207636588288907963928,0.0171032760699029000306393,-0.00892924290489420166561096,0.00431243003281993851627529,-0.00682042684883375945059658,-0.995239525815898473659615,-0.0971231279811722858497092,-0.0987202110456108505864847,-0.00863753156556760354201074,9.74306004226443889137954,0.0161807783156952822434249,-0.00286694077807216540429436,-0.01097165146964782823924,3.66689777531225713502749,4.86299802444657380817716,1.18810579811546812578626,1119.98105427830637381703,1117.69768611839390359819,1133.8068474464143946534,1131.46956394378048571525,-140.419975473141306565594,-208.24517362537747544593,-538.847732308895501773804,-358.749512278312408852798,150.760682861766326823272
3.47000000000000019539925,0.854978285437742013819218,0.527042070577419252686013,0.874496401347676921567142,0.000701883973071176087143996,0.0189567964057689372636695,-0.00561808076152215275095303,0.00434271221106537382017354,-0.00682934572203780943661089,-0.99523980931260891402701,-0.0971182564572696110927197,-0.10049811200019778678616,-0.0092785169717551421730839,9.74612341628330725029628,0.0160013571783041742835341,-0.00308866241420888533800171,-0.0111839843477171529267933,3.66686002307336256222925,4.8630126317173791861137,1.18808125452573709601722,1119.80352799139609487611,1117.20302301521655863326,1132.21876269851441065839,1130.46349124864696022996,-24.3204809631157061744489,-185.596620706705238035283,-752.38837363532877589023,-430.763806036348000816361,150.760646259649433886807
3.47250000000000014210855,0.840490709300446559026909,0.355009193521097277113086,1.06356229082450126632864,0.00391908698439563836501964,0.0201879453676554257435249,-0.0020863109918050175284332,0.00437444608722721475085882,-0.00683623936847179737574809,-0.995239941758026436247064,-0.0971149878074203942723841,-0.102384406048873694006218,-0.00998141800584800148454789,9.7493867688625961420712,0.0158192126178891834253903,-0.00330919502638765206450899,-0.0113936143336620509386448,3.66682415650296888998128,4.86302899087030215952154,1.18805361354037120058535,1119.85945187349079787964,1116.7697030148603971611,1130.04490557823783092317,1129.31574491359879175434,64.174199804030195082305,-153.027680662038250147816,-1033.24821830417408818903,-470.892472854676327642665,150.760586621377797200694
3.47500000000000008881784,0.687635518765405739927132,0.147643226137004923703699,1.21478654814276576523469,0.00701647888201268124519494,0.0207983768838165758441328,0.00138809622094029135735971,0.00440751233451854799311187,-0.006840577294508490106828,-0.995240088001743905543606,-0.0971116774496407209049664,-0.104365485760631315770297,-0.0107551468826056761951548,9.75284651933850454952335,0.0156342468879845652995897,-0.00352771159014899542485932,-0.0115963653506905781109815,3.66678950941586867529054,4.86304730638168347667261,1.18802268757818207944865,1120.12439899041623903031,1116.437884611906383725,1127.05252160699365049368,1128.10902888437362889817,118.671268293612939714876,-79.0543381168407535142251,-1102.37900436011454985419,-363.679793767604223830858,150.760484880790841089038
3.47750000000000003552714,0.47019769729449151229872,-0.00814161373758879626516549,1.28526945592696439923941,0.00855435111588672553173396,0.0206187576844161675471145,0.003361548768809990723333,0.00444117798264988001416542,-0.00684338618127194788648415,-0.995240375584852343671116,-0.0971069920466571534500844,-0.106416952596189329227627,-0.0115765720459777149420333,9.75649003078940957323084,0.0154461574274770748610441,-0.00374376346359932797580594,-0.0117880958518034682086517,3.66675567123013923520602,4.86306718293058537483375,1.18798968283966832615306,1120.45280821495884993055,1116.37443132427620184899,1124.53301055643737527134,1127.49734594476080928871,142.285595105161831952501,21.2492615015439660908214,-936.467206124936637934297,-113.413775933988887345549,150.760372866800651081576
3.47999999999999998223643,0.193581551487800762600955,-0.128855023840775906318612,1.30018417561059096421161,0.00879604297247126368231029,0.0199287587138320537727409,0.00524297954719261157657817,0.00447329030344167932753408,-0.00684532935496505717115623,-0.995240607093078044620427,-0.0971030212318698543461082,-0.108484065325676060087545,-0.012426434499736196959141,9.76029616417732448496736,0.0152544069003763202441171,-0.00395735173907728072367762,-0.0119650639058139426906813,3.66672213358245757675036,4.86308773562371410292826,1.18795539614426637342603,1120.83582696594203298446,1116.54413091941410129948,1122.37018557636906734842,1127.54196000470369654067,157.371931001356358592602,99.9808897394380835521588,-753.537277928687785788497,147.964742116758742440652,150.760230695236316478258
3.48249999999999992894573,-0.108632160486958687095616,-0.212824148233844323563346,1.25684356044933775997663,0.00844497855376367088930945,0.0189545493883556716296912,0.00813364986258300996790904,0.00450512973670521513908094,-0.00684646270228740552038493,-0.995240772918215332865088,-0.0970998033878979621702499,-0.110575831870489971198168,-0.0133012040786002552761325,9.7642341502516991624816,0.0150583268851750325806327,-0.00416918397625375830584105,-0.0121239746355663400440017,3.66668833624235457335772,4.86310835038132793783916,1.18792074030585070865129,1121.23966786996561495471,1116.87433577297338160861,1120.76532416679401649162,1128.23716965534458722686,166.318231131302951553153,156.012821584048339218498,-461.542357611925410765252,435.310247163088376964879,150.760062544963318487135
3.48499999999999987565502,-0.420792047784082801076266,-0.251452576328507704239712,1.11855076203210979102209,0.00781746099744636685491272,0.0178199009546520341362719,0.0122328772165648941294691,0.00453221005496057607886407,-0.00684737314724795029241555,-0.995240956166897783319314,-0.0970966379868315049295191,-0.112588416044422545692072,-0.0141731996531848716824875,9.7682678408887380072656,0.0148569973871049663960431,-0.00438066071572620722995861,-0.0122623101084203735972045,3.6666534761379487861177,4.86312848802814823301333,1.1878856500629677572789,1121.66741812159852997866,1117.32419502733432636887,1120.06247378830948946415,1129.71851124051909209811,198.428192822334750644586,204.116102434122552722329,-73.5206720679748713109802,800.762263483957781318168,150.759862423309755286027
3.48750000000000026645353,-0.783859292966824217074873,-0.255146355153273385329982,0.823320045303267189495955,0.00630206998795088384895946,0.0166791631439205598197439,0.0169246195064087813497711,0.00454855091209343045943747,-0.00684906641079784973824562,-0.995241065389802170848554,-0.097094659971791633101823,-0.114387815971679879245571,-0.0150010741537416857072085,9.77235574297873732518838,0.0146495338424246970138176,-0.00459364983402314221161422,-0.0123782170748582172337127,3.66661740726742602092258,4.8631472647970106493176,1.18784946644140032567805,1122.23180883407735564106,1117.89491628514406329487,1120.39772080645411733713,1132.24098097276464613969,218.514978225752003027083,200.706231605668193651582,314.507305760004499006754,1004.99240138258335264254,150.759585005065389395895
3.49000000000000021316282,-1.05854852946616984077366,-0.236255207986323018110042,0.475329564842096097265767,0.00413772243212284784874555,0.016230314452078949821745,0.0197067822041854905090741,0.00455107061202196690186117,-0.00685265786643792298993283,-0.995241005883754636940353,-0.0970949118731921217984038,-0.115895092858134846069973,-0.0157434166895975141686748,9.77645122056468984794719,0.0144353878963382215722122,-0.00481027691614845272216616,-0.0124704509652041866524241,3.66658100144267828923716,4.86316431332895682260187,1.18781200136743048112464,1122.75999301272736374813,1118.32772618536273512291,1121.63501031710961797216,1134.74347324743234821653,220.24304165602657690215,153.463881541623408111263,662.459827167427192762261,1016.56380891861215332028,150.759322741225560093881
3.49250000000000015987212,-1.28100507131571639263257,-0.212502337858969492234706,0.0515755915394467273626944,0.00130660636352503958454441,0.016061457042990362475976,0.0210547760777943515630994,0.00454160700132656518224206,-0.00685962222177672296952178,-0.99524076814741024854527,-0.0970973178122996605221573,-0.117126759745233316456492,-0.0163575257648787032727089,9.7805036759217536257438,0.0142145317728720552846733,-0.00503263414665993530361376,-0.0125384432963764804597195,3.66654566282377825103822,4.86318009174012377826557,1.18777431234887576039227,1123.33302404235746507766,1118.66223569285216399294,1123.7100199422911828151,1137.32380001735759833537,244.782306908114833277068,120.575200245823751288299,1047.29291509609038257622,1070.30433012830599182053,150.759028360557493897431
3.49500000000000010658141,-1.46060428118240004380368,-0.193995189074297386122581,-0.488985442327951491670035,-0.00275721268995230512841021,0.015723297922398037085312,0.0209824006332819806841528,0.00452701960593533767746033,-0.00686881647917034904304856,-0.995240519283702274044856,-0.0970999327740164758226982,-0.118191809629288380190104,-0.016857776723018604719817,9.78446089189651146966753,0.013987432476843678422207,-0.00526243899687352072180868,-0.0125824173592507908281402,3.66651240689141655337835,4.86319562368790947459729,1.18773749455960975218716,1123.98390454726791176654,1118.93060218659184101853,1126.87147489258995847194,1140.0949948980737644888,209.895101307715691518752,78.3703395809442042718729,1219.14133435587109488552,908.587151162347481658799,150.758638358005157442676
3.49750000000000005329071,-1.51859528357656636821105,-0.194374132059278587059126,-0.917059989763795768702437,-0.00673226704389108098619543,0.0153906522909484314715067,0.0193938841561455514728163,0.00451072206816179304550429,-0.00687741253512719891149985,-0.995240163143659151145926,-0.0971037785460501651213505,-0.119128795833207595800118,-0.0172835421788798786202346,9.78827431608781850513878,0.0137547325463874721418467,-0.00550078305315457403296131,-0.0126035561898524585411341,3.66648095055159117805488,4.86321150043696004416915,1.18770164864442873131622,1124.38249954889602122421,1119.05408739075687662989,1129.80572661407040868653,1141.86673577316923910985,96.3918335461151087883991,34.4581840207873071335598,1171.22054555814202103647,553.764389113724064372946,150.758283158655700617601
3.5,-1.46328600684833709522081,-0.217303714191599883776007,-1.2593326667147053399276,-0.011063853023973875197572,0.0151888873597049688102256,0.0159975794392301917667965,0.00449442265247092069546664,-0.00688378037591423630470189,-0.995239741455622439758599,-0.0971084652346843185677372,-0.119945776223777306190854,-0.0176460730116505676301486,9.79190027322327694037085,0.0135170636810820615769657,-0.00574828357891724907313691,-0.0126037738979427518110077,3.66645070862221444940587,4.86322769577117508532638,1.18766630908146719747265,1124.46586371499847700761,1119.1028931066957738949,1132.72757762038054352161,1142.86381684364232569351,-70.0564021705773853909704,11.4890142074275622974255,1213.37432187208696632297,244.782620870960954562179,150.757897293391465609602
3.50249999999999994670929,-1.25751645752801266553433,-0.273615046563335295726205,-1.50611955470594649497684,-0.0161291477629030774454399,0.0147409008109850910711591,0.0101663830624664375951172,0.00448078283922882271428367,-0.0068878898503069658013076,-0.995239583541479788664219,-0.0971105031399507739875432,-0.120673320250530402564237,-0.0179262979928933238737976,9.79530085341320244651797,0.0132749579535464401480738,-0.00600512808705400136233266,-0.0125855183794105832117971,3.66642138566244524255922,4.86324457494987694161637,1.18763120404526811846324,1124.03221753804314175795,1119.11153246179401321569,1135.87259822343071391515,1143.09064887752401773469,-260.033557635102738458954,-1.19535090648244302080627,1052.0371608311277213943,-64.2253730613915649882983,150.757399807783713185927
3.50499999999999989341859,-0.975839783573141272832174,-0.343069945397356967919933,-1.5441961836797439833191,-0.0198181172937048379056879,0.0141163645225252740861288,0.00478512475306950256503935,0.00447528163558373343750008,-0.00688776499480915887357879,-0.995239855674284301656485,-0.0971080747330400201322576,-0.121394120485812773146961,-0.0181500908769018851063315,9.79844518628095251244758,0.0130288746387270028964656,-0.00627085911853634929424839,-0.0125517021826040027498994,3.66639275351385407475391,4.86326197341415067398884,1.18759727381868329665338,1123.16569592682299116859,1119.09691635216336180747,1137.98776342453606957861,1142.54268997833537468978,-442.143388611445686819934,-7.674981794252226485753,709.507071874074767947604,-329.961064696067751356168,150.756957386931645714867
3.50750000000000028421709,-0.60301417462963224913608,-0.431583403401359921858216,-1.39892705455554611226887,-0.0221950091905445470730207,0.0134599204915707773566602,-0.000182921732180377043242014,0.00447859897994174784019439,-0.00688456835960786928813038,-0.99524060399698499601584,-0.0971005791948428287341244,-0.122104445225143076747543,-0.0182757545601507399857244,9.8013132006932153217349,0.0127790041342069529001213,-0.00654455170478971878789132,-0.0125056983717184017068647,3.66636465448458803706444,4.86328017086843811256358,1.18756567939287505097923,1121.82150059498576410988,1119.07315755282274949423,1139.42013358280132706568,1141.4408435540435675648,-590.324701140121874232136,-9.86887975977812637040643,450.819608858879803392483,-488.2032884425950669538,150.756486942187081012889
3.51000000000000023092639,-0.181720901128167744431607,-0.530453124504430717500725,-1.11474563290741190968447,-0.0232435431058022230754734,0.0126404716342328939798767,-0.00451027745022599887980697,0.00448846707282117042547842,-0.0068793123619033252902355,-0.995241664559928906896857,-0.0970897144319036731197059,-0.122744083927688929502864,-0.0182631691802723206130565,9.80389616713452127783057,0.012525348404921896744435,-0.00682472170412258116040105,-0.0124510905997231580144557,3.66633674706277856714109,4.86329967487916814405935,1.18753552814951812699462,1120.21407242112218227703,1119.04757195336446784495,1140.24186146883062065172,1140.10167353612223450909,-655.361628175083183123206,-9.02011816324394288812982,187.618447921390185229029,-534.354299270137289568083,150.755993517447990370783
3.51250000000000017763568,0.260700819288134044704464,-0.630977072920861581373231,-0.699857488031609298317903,-0.0230281179584613873712051,0.011143956903052039397739,-0.00774380538057216523395443,0.00450510122602391146345857,-0.0068720731069064136531388,-0.995242838473752944317141,-0.0970774919272069797271385,-0.123301288628864247343131,-0.0181000137874501414170236,9.80619515852367662489542,0.0122678998302527993147226,-0.00710941135902330538509641,-0.0123912968526192612123138,3.66630934555869458790767,4.86332090860025623157981,1.18750616009081344515153,1118.54469245411041811167,1119.02805696200653073902,1140.35822582240825795452,1138.76907205769293796038,-672.844821585127419893979,-3.68792703593506887571607,-85.8982402292458715464818,-519.056462196578763723664,150.755472097499989558855
3.51500000000000012434498,0.768218852709054322858151,-0.737954746013331774889821,-0.121295905319593166904468,-0.0216571506381889183900924,0.00876092864898451659239065,-0.00980626926079360139443253,0.00452757427887783697739721,-0.00686246477217057008340939,-0.995243846463061521134819,-0.0970668366212033284501359,-0.123743353092021973749226,-0.0177866993330322992195036,9.80822246013667431441263,0.0120066471355062300008232,-0.00739632122622861046951082,-0.0123294961965293489031259,3.66628235185446893495964,4.86334371747830029875104,1.18747668884884949314085,1116.84984831319661680027,1119.02913231818479289359,1139.81237026768440045998,1137.50639122513939582859,-518.551548576226309705817,7.80689212838313562059511,-285.945411065364794467314,-375.650792302220736473828,150.754812899994021790917
3.51750000000000007105427,1.13665526097197044919085,-0.807709931636058087178753,0.363845152797493687213404,-0.0195400133499129546876816,0.00688195379217872420934965,-0.00952428075032401601218712,0.00455467701110604233222245,-0.00685192488485593560743059,-0.99524464773045251408945,-0.0970581131953749537411014,-0.124038519598796886933556,-0.017293016668331287477578,9.81000067183779833612789,0.0117416449837491315005833,-0.00768309376180708117343165,-0.0122685239121809331469537,3.66625499194589998808169,4.86336798383768176279318,1.18744722595887930438607,1115.95193471122934170126,1119.06709142264844558667,1138.92849876708146439341,1136.89081809618187435262,-208.37526811642862867302,26.1537558301830479479122,-403.450302611153745147021,-145.334272159974176474861,150.754234288603896629866
3.52000000000000001776357,1.40514527742502481899578,-0.851227073070520479092238,0.769966285496292757173364,-0.0161383102448222695568525,0.00527707606136765088045149,-0.00689020588145453690559483,0.00458255372122702911430459,-0.00684084293278472508476051,-0.995245300556982237516479,-0.0970508690432534126824038,-0.124104809944063032567385,-0.0166105811037755672632255,9.81156319055682679675101,0.0114731147318267254903157,-0.00796732240661893360844648,-0.0122109844404626258218549,3.66622717326663938308684,4.86339354527835698860372,1.18741777255252589640122,1115.80797197261449582584,1119.15990109733570534445,1137.79511875462867465103,1136.77971986433954043605,129.149160170257374602443,53.6386678766132334317263,-512.478564692684813053347,46.2282706876531719331069,150.753623007862046279115
3.52249999999999996447286,1.56411718494229434739395,-0.862552319374391696094051,1.08444783276183476239396,-0.0103812174524317932938766,0.00325920964680550401260106,-0.00169130540426620790128709,0.00460737547403584045413449,-0.00682932988749767461156281,-0.995245792127963491147113,-0.097045404519952707667052,-0.123864228434698991909713,-0.0157434763421578256814559,9.81295206366233152550649,0.0112017213947415376212868,-0.00824662047255689603653117,-0.0121591901738844609254242,3.66619996689788596455628,4.86342049344243410047284,1.18738881698802534181425,1116.59768051208061478974,1119.33528476203150603396,1136.36610594361809489783,1137.12195944962013527402,438.541690990914730718941,72.2474333639199244316842,-508.300429635675698136765,173.314459651423078412336,150.752848249691226101277
3.52499999999999991118216,1.53684080174010095909409,-0.824958631058255398293966,1.16643926222796889824451,-0.00452780217126566228436069,0.00107416329347133896777999,0.00361822277736365298037025,0.00462778285703234395359607,-0.00681694515714421044039195,-0.995246215092031372151382,-0.0970408671931578536984375,-0.123290769158135055105774,-0.0147174880882289041417188,9.8142157289503355599436,0.0109287147288571941800006,-0.00851875144207374368487962,-0.0121150908477768784465844,3.66617482964754426433274,4.86344858159084658666416,1.18736088636727310507979,1118.00068042756902286783,1119.52113826415529729275,1135.25361660645035044581,1137.646292162596637354,675.370539543988229524984,79.0514059988271213796907,-403.571700712208837558137,215.984719498878860122204,150.752165249803766755576
3.52749999999999985789145,1.34366653866200724820601,-0.721437384932249292646134,1.05803108242543508765721,0.00122937731300099819739535,-0.00188586507475014446624795,0.00870862881781842186612597,0.00464260634728367541784744,-0.00680331304276189478830172,-0.995246746674214088912436,-0.0970355281846736472672887,-0.122367654458754637758489,-0.0135633210300578205265154,9.81540826546032363353333,0.0106558283769558146542034,-0.00878176216417389347845823,-0.0120802231968161911251913,3.66615165105886520180434,4.86347794047462134159332,1.18733378363982566838786,1119.97453320980048374622,1119.7305417920256331854,1134.34824744005709362682,1138.20188304711450655304,929.725546586661039327737,99.7110390253443199526373,-329.409869719370874463493,211.472404532227585605142,150.75143970753609323765
3.53000000000000024868996,0.966695896633482432136475,-0.514878264466539503629861,0.756754688635700722976196,0.00611454852144125652474438,-0.00559185661117796769387089,0.0127733029759631456362401,0.00464829903894662006813565,-0.00679139533439941395914774,-0.995247228810172135382572,-0.0970309716677499461967571,-0.121043604016698030934052,-0.0122482208462636049661754,9.81658825021110281738856,0.0103851528311974406620921,-0.00903410766994497578530332,-0.0120555797930101751824772,3.6661301185044199435481,4.8635079892389656563978,1.18730702903437168593825,1122.64930816050264184014,1120.01969345928205257223,1133.60656725785338494461,1138.70365418525784662052,974.175304669895695042214,121.195960771175123227295,-203.432496341051688659718,142.747137088908317537062,150.750516097387219360826
3.53250000000000019539925,0.59116079593843973150058,-0.288929119914719645390022,0.424253395965653534727124,0.00753977784380655425416906,-0.00783059955403796886796997,0.0136731352630462682506973,0.00464218116178623328021979,-0.00678587160561453222457073,-0.995247487702129229880654,-0.097028789955656988275301,-0.119293595557709269927571,-0.0107118165125688544203619,9.81781565044455106772148,0.0101190114150178939872449,-0.00927476838745910220351831,-0.0120414895333086705009329,3.66611028561154705940339,4.86353790625420145943281,1.18728050528565742816056,1124.84540973315029077639,1120.3365215958815497288,1133.33108495835176654509,1138.91561873255909631553,808.812454410025566176046,160.819181331274904778184,-31.0747589815498272969307,47.3623613587743506059269,150.749700064488564521525
3.53500000000000014210855,0.229726857126683337018136,-0.0486845957091599085275746,0.0854068307643003066242926,0.00665375849368438077036103,-0.00827309128667743157170555,0.0122713454408380460980421,0.00462401474701252916676975,-0.00679015162421665700864803,-0.995247378595156217961915,-0.0970302618216491441494043,-0.117143956358070927548098,-0.00892625419002703729409731,9.81914947350611200249659,0.00985983020697356153660973,-0.00950317700795435572891368,-0.0120376042414494979077011,3.66609269027012230068863,4.86356708054067166102641,1.18725481742114857830472,1126.69337043255268326902,1120.82378936593840990099,1133.45119346294563911215,1138.94046599205171332869,646.903106162940389367577,238.834202757794258786816,114.65360306279097812876,-4.15713178208543254754659,150.748833893723485743976
3.53750000000000008881784,-0.0753403957321684830672481,0.163265435259199592765711,-0.215155775541796129290972,0.00491680721826213366215663,-0.00720388128976303786926705,0.00993496248436013910942943,0.00459592522238627589764581,-0.00680339958901082526160353,-0.995246774874349759976155,-0.0970366719395942128878474,-0.114664859674197178174282,-0.00695306588890705346006627,9.82064611819589394769991,0.0096099275326551568399136,-0.00971905314745145909594015,-0.0120429015585066332555408,3.66607721028036337429512,4.86359589578458884062684,1.18722971029054380487366,1128.07992526396492394269,1121.53069260967049558531,1133.9043529736657092144,1138.89483307364866959688,423.098709502173676355596,349.567317712770261550759,255.332735800908238843476,-8.38047746024148842991508,150.74792511432613650868
3.54000000000000003552714,-0.286704987671067723642437,0.299157632407086038206501,-0.448349188429962852708854,0.00310143458984390215510407,-0.00508211377361728576518285,0.0076387357173571543769719,0.00456572119193348040927516,-0.00682306332560281628141219,-0.99524574977549151721945,-0.0970471035357645395169612,-0.112039588185323557567585,-0.00489819540399539371522408,9.82235600077167880783691,0.00937132248447260923773783,-0.009922404841953986684433,-0.0120555003314072109454891,3.66606341149202341611613,4.8636252759016302960049,1.18720456354158376832686,1128.80886398006350646028,1122.57162595450222397631,1134.72785714195015316363,1138.8985636047505067836,171.333213428537419531494,537.62197588104083934013,429.552218503531605620083,44.6543063526869872248426,150.746964289364541400573
3.54249999999999998223643,-0.430257401015617046979855,0.345272986598594955331976,-0.658006200795523188418201,0.00131977784295713058970723,-0.00254961450271506745099415,0.00555571573938636563416704,0.00454099705958980939118907,-0.00684768685543214912503363,-0.995244565882220433294947,-0.0970586278799416973805947,-0.109453783564113144022301,-0.00284456257265290612945563,9.82432368556874635601162,0.00914541555793509791660867,-0.0101135872299453113271062,-0.0120726733677143545364618,3.66605063485897897379573,4.86365553285351115420099,1.18717878093701600938914,1128.93659133110759285046,1124.21880248907564237015,1136.05211406618332148355,1139.11810460541209977237,-58.161887072266253539965,657.926539960604145562684,520.966081805192743559019,132.814772638542422100727,150.745751017401630633685
3.54499999999999992894573,-0.470699142688967508973974,0.285214175769304023599915,-0.793185498422294466003279,0.000176420950653913738469594,-0.000934031042458512497650425,0.0044552292116207961938934,0.00452454658483606754482143,-0.00686985883281729034499641,-0.995243267017004273888858,-0.0970711738824668601832713,-0.106991064644717887022196,-0.000981260973541883685378195,9.82658877145217601878358,0.00893287113652250705508884,-0.0102931042482213262745372,-0.0120911281611104353544972,3.66603784547510169744555,4.86368609084304281964251,1.1871510984142499278704,1128.5180545447021813743,1125.86125865430517478671,1137.33268755097606117488,1139.56263746794320468325,-240.408900967082104216388,683.146517119135751272552,518.359839535889591388695,241.803803771841245406904,150.744690178850504480579
3.54749999999999987565502,-0.449491688868668415324237,0.139849575063620529258301,-0.908107767709717350612664,-0.000795686518610783967420108,-3.71702783900181217037473e-05,0.00351925866891236727163061,0.00451607782333430900212345,-0.0068857259168772048940621,-0.995241792451101003891267,-0.0970856282429483213869403,-0.104683604094349819169096,0.000580981598881528948918884,9.82918279642811221208376,0.00873368108960744828073164,-0.0104618981856295593241279,-0.0121069566538347904438577,3.66602389761245239796494,4.86371674060438596853828,1.18712062811435892228928,1127.73454682627220790891,1127.63453507467124836694,1138.64391326386271430238,1140.32712362427128027775,-383.792900772570192202693,764.395967393232467657072,546.790517057169722647814,408.493445741687253303098,150.743578778240731708138
3.55000000000000026645353,-0.376041527913261564020075,-0.10041203405230822442995,-1.02871985977785906918314,-0.00201220909555935214413358,0.00015647108933386505305943,0.00173955245300036411178202,0.00451562986951456468709409,-0.00689072895303025415025822,-0.995240206070633126600455,-0.0971016419982800721433236,-0.102569691955311959041808,0.00172162749136472309485768,9.83212766935411686120005,0.00854735979607447633743522,-0.0106212380683213172133383,-0.0121160086246579444535509,3.66600905562817835914302,4.86374766922419343728734,1.18708743048811848908031,1126.5990900408392008103,1129.68323849127159519412,1140.06664013626209452923,1141.60510469665177879506,-420.196911485089742654964,702.915524311627336828678,472.51157394354316920726,518.763145822469141421607,150.742188368264635300875
3.55250000000000021316282,-0.291015589136073893339329,-0.328076921658946141224789,-1.10569102079772174640482,-0.0031503031592623304511791,-0.000442207113440040852029439,-0.000372462643080865088429654,0.00451911160574411559232022,-0.00688424876008564886470387,-0.995238335688456099425991,-0.0971211924436129331317247,-0.100613990834374195104672,0.00240989811748448107264764,9.83543628996870289427079,0.00837314685951096385196912,-0.0107727245037982921616049,-0.0121142559464932873802834,3.6659936651720501643581,4.86377879955592540284215,1.18705200626443585498748,1125.63356226884661737131,1131.14911269622962208814,1141.0064711335805895942,1142.92093935338380106259,-365.107657530878498164384,499.307753481354382074642,303.592732624208224478934,556.965090145979957014788,150.740983879033223047372
3.55500000000000015987212,-0.203480594473984199854755,-0.551813993205704456102012,-1.13684336312709888261452,-0.00425213125556209332878144,-0.00186615087322909364853096,-0.00295622052276073429485925,0.00452368394320493659443994,-0.0068705718772925292170406,-0.995236212043151824424569,-0.0971437711646183782443487,-0.0988137224513939149694863,0.00271563595768459231649672,9.83911072176208456596669,0.008210223252974116481262,-0.0109183405063847278892997,-0.012098058824404643585293,3.66597873971817866944889,4.86381012415727820297207,1.18701476162088881416423,1124.77355175318484725722,1132.1797772586783139559,1141.58460379938310325088,1144.38993014738161946298,-336.779800368783867270395,321.844470258663534423249,156.857584990033217309247,646.645934623407015351404,150.739733814650492149667
3.55750000000000010658141,-0.130095586553271580498858,-0.783272955305582940788156,-1.09090100755401664400779,-0.00485619205632991258331232,-0.0044659058491032348203742,-0.00659930140500025221028668,0.00452758028863290643700745,-0.00685515449348545781449449,-0.995233876279995488545183,-0.0971686479663914637328048,-0.0971869462782840309866828,0.00273673224581742063898915,9.84314346865305367373367,0.00805782379409649557322481,-0.0110602966849694984985408,-0.0120645662268876758399516,3.66596506825374079951985,4.86384166853941835029218,1.18697650896797801678417,1123.94966326700273384631,1132.75833504752290536999,1141.79075905853073891194,1146.15416902650076735881,-261.374321041154075828672,89.5140742282383996553108,-8.46097365142686541616968,617.440384910255033901194,150.738183649572533795435
3.56000000000000005329071,-0.125060291556046282446246,-0.928167025377760634974322,-0.962855527798971322361865,-0.00419105981013742200785854,-0.00715617921414495299775593,-0.0101942508903511194068292,0.00453007684290559261425235,-0.0068418001400717487828218,-0.99523153901942107424361,-0.0971934410937666803942392,-0.0957656907811629265481201,0.00254476464615968622773323,9.84751894158744178753295,0.00791515191417067887069692,-0.0112009821312165913642644,-0.0120119984112916459995102,3.66595259663511541248226,4.86387323070531074620249,1.1869387729700922040621,1123.46668014797910473135,1132.6273476298194964329,1141.54229893112596982974,1147.47713207193282869412,-148.488323212635322079223,-182.21452307271127324384,-179.491226765825757638595,464.802783555351993527438,150.736852210431294452064
3.5625,-0.206610650239158061269862,-1.0132198090003352586308,-0.729869854326204992034377,-0.0024762684917139774799788,-0.0100407631515895979373854,-0.0138638320632326443593296,0.00452708996892621420155001,-0.00683150761859872487913314,-0.995229395632265756432844,-0.0972162876110342633051431,-0.0945064524100083791502414,0.00217051737614790130059816,9.85221632996393914538658,0.00778121550606712328312931,-0.011342900077291185115258,-0.0119397855675420477145066,3.66594035016418917649617,4.86390433505790475976482,1.18690271338665853662064,1123.20722165093957300996,1131.84726243215936847264,1140.8933029247016293084,1148.47818294427747787267,-66.0216608721853361885223,-411.009764856825881906843,-310.157583398138058328186,329.184564976965418736654,150.735482393815004797943
3.56499999999999994670929,-0.362674810074067821563659,-1.04890243795603654852755,-0.41819176035838689919899,-0.000837410012392893372823455,-0.0126938673899283163692964,-0.0167846748905451544076062,0.00451177881244844633523705,-0.00682629848955058991105682,-0.995227700890973676628448,-0.0972347723489156018361612,-0.0933083228522972596419294,0.00167809139078911595532873,9.85721017505085228549433,0.00765476773255461748202144,-0.0114886999294890653627865,-0.0118483222097943950712473,3.66592819753636911528361,4.86393437360197467000944,1.18686941207153551225417,1123.13657184361818508478,1130.5722988055354107928,1139.99151101413531250728,1149.1230548968176208291,18.5824291835164636665922,-605.7825244536290938413,-387.263214815137928326294,166.845706794814674367444,150.734083006957746420085
3.56749999999999989341859,-0.578838047730582450078884,-1.03096044700002642535708,-0.045565693271862592328425,-0.000421048120296881761039087,-0.0149015539986115351511753,-0.018137667711396542047364,0.00448434003711278405396312,-0.00682221647920366013051474,-0.995226633716075226310238,-0.0972473128772975842215587,-0.0921908133101701499079184,0.00100810915160493008713161,9.86246927564411990374538,0.00753454349885840889144983,-0.0116408094913796507363646,-0.0117387126916354816302812,3.66591657308153529015726,4.86396374965910904819566,1.18683857342464404993621,1123.30013379685715335654,1128.81834980989128780493,1138.95698685062598087825,1149.31241147825153348094,127.278994045209898899884,-838.589749413120216559037,-427.225303549374359590729,-5.41534014596399870811183,150.732650928033251602756
3.57000000000000028421709,-0.83276755416311132318441,-0.95367355994767999405326,0.406304512236765003052597,-0.00198537641750513816837898,-0.0173123244161875328162026,-0.0176043904822096690387934,0.00444998139054080844856376,-0.00681518803525586400193781,-0.995226045222542099466523,-0.0972554515494137850062373,-0.0912647598345147914589148,9.52529294607623588930778e-05,9.86795762720706015613814,0.00741924426845650721029646,-0.0118013836214047405231975,-0.0116123129076792994118783,3.66590571051623026477273,4.86399322817794566020666,1.18681015628114505666701,1123.77296681384427756711,1126.37935005846952662978,1137.85538449638829661126,1149.09597819608779900591,217.862148089883561397073,-912.717750899339307579794,-337.200650577210581104737,-129.382722733853739782717,150.730898780581753726437
3.57250000000000023092639,-0.971484778914336044586264,-0.842830344610896897705743,0.733048016698793269974033,-0.00516258823651486505740271,-0.0193263531411858972830498,-0.0153503710342723902887441,0.00441568032623165449002123,-0.00680482003647713950406084,-0.995225576374170972648869,-0.0972625516528292516360565,-0.0906755296991963999353459,-0.00105147787071838139105751,9.87363571228691760950369,0.00730737774241000878627794,-0.0119723391234577911101944,-0.0114703372565773519670129,3.66589578487919176552623,4.86402354632044353621723,1.18678434167349333705488,1124.38944453730664463365,1124.2547610553942831757,1137.27098359773981428589,1148.66549786458222115471,286.097739066514520800411,-825.702528723349473693816,-126.997035685647432501355,-193.7205208718337701157,150.729413864418575030868
3.57500000000000017763568,-0.958811504199321928965105,-0.679471847374782944584126,0.952047858097666788168567,-0.0101710549618764679175031,-0.0213423196815134413872883,-0.0115503161902455932924516,0.00438553637785176874536175,-0.00679064523181007774488283,-0.995224845159856430498735,-0.0972723584583087830246484,-0.0905040096702605378897744,-0.0024142943001756941856506,9.87946284992873735575358,0.00719703859094447673250272,-0.0121553142385344391251945,-0.0113136727781559948136092,3.66588639721576958763194,4.86405442885261685148635,1.18676040087860679150822,1125.20345550917681975989,1122.25083741485286736861,1137.22039931796007294906,1148.12737559172865076107,390.286603147577920935873,-814.266298982255761984561,113.174089774386317230892,-238.247836015357819405835,150.727907369207343890594
3.57750000000000012434498,-0.720496435472438023772668,-0.418477793070115344775672,1.0536975624679927321381,-0.0172314203464920268071836,-0.0235832401511669072224908,-0.00622968704851784710330165,0.00436076189701987797231464,-0.0067741286527736362804708,-0.995223674070747854614183,-0.0972865310714249031942558,-0.0907698152509214262195769,-0.00392792044615881963398607,9.88539709310738778924588,0.007085811087758555650018,-0.0123517870361173464494042,-0.0111425427844739632909921,3.66587691938350612730346,4.86408520541611899545842,1.18673746746570873966675,1126.34087755304449274263,1120.18342956048309133621,1137.83685404661173379282,1147.47425868450545749511,431.090287040624502878927,-683.496654115257115336135,324.432748313945580775908,-235.331926177701006963616,150.726079807054986758885
3.58000000000000007105427,-0.347153448055644187064672,-0.149087167171860629499847,1.00407490280373790092483,-0.0222614750067205158234884,-0.0250087387076852914191694,-0.00206117849403117739393032,0.00433987162591888478435642,-0.00675652691771250202279475,-0.995222108995056808922186,-0.0973045864294471013478116,-0.0914305961526589439092305,-0.00552353245191184588636091,9.89139545618782101144006,0.00697078845717814810090118,-0.0125629882479307720261064,-0.0109564028744780425639327,3.66586640757724868677769,4.86411553023748854940322,1.18671382361993393850241,1127.35890694437989623111,1118.8333541442766545515,1138.84256305952976617846,1146.95071596084017073736,404.228028615907078346936,-452.398724055875049998576,465.100778781707845155324,-208.857663201483688908411,150.724544387034228520861
3.58250000000000001776357,0.131162516201080964206582,0.16097498352385647413243,0.84602161347395987700537,-0.0238693940824701890390802,-0.0254401625675483300526025,0.00084796131356828022274108,0.00432492867793464550590921,-0.00673754812829632700882376,-0.995220640331249795096369,-0.0973214392647396148161576,-0.0925025994940625040374726,-0.00716832620455516711377442,9.89741206098906900479051,0.00684876250650141588788289,-0.012789765387065277213452,-0.0107539432337455682225924,3.66585452994803029369564,4.86414566596636621653715,1.18668894393092272387946,1128.36201769612398493337,1117.92143594020376440312,1140.16235794052022356482,1146.42997036849806136161,415.286144903038575648679,-297.793351688557777379174,593.631307009549232134304,-235.308219594167439936427,150.723001135837932906725
3.58499999999999996447286,0.685097478576133900318723,0.552358018950983908901264,0.59211688367005987920777,-0.0204594390418912329410173,-0.0245905685127781326038132,0.00233708855842838271466011,0.00431744947178298085072035,-0.00671540321345328716090561,-0.995219658244033134053552,-0.0973331641170329664447536,-0.0939804617119654184254074,-0.00885988570232851269103946,9.90339954158744362189282,0.00671648577662088512585381,-0.0130323575734566758643762,-0.0105333541938664992237973,3.6658407893219080442293,4.86417600239449754440102,1.18666189071560124190796,1129.43533766889504477149,1117.34438738583389749692,1141.81071959457744924293,1145.77417486286935854878,354.734128803064152180013,-127.781658371398407325614,572.399710822231440943142,-245.989414115552563089295,150.7211464666146412128
3.58749999999999991118216,1.03045673565054474174474,0.870130265349415066289396,0.373043110872621597184917,-0.0144371699568670019964145,-0.0229742761612568117957078,0.00234054474446933726342057,0.00431375258907126801766196,-0.00669122984660140869561662,-0.995219137671720210924775,-0.097340105700859699822125,-0.0957545806790803533115053,-0.0105326935073335736792188,9.90931047037934931154268,0.00657095691129064036345442,-0.0132903123505364560708042,-0.0102925982659347031028529,3.6658253884382130394215,4.86420560956053105172714,1.18663226496917562080569,1130.13568834013926789339,1117.28252764834678600891,1143.02435649463131994708,1145.20002329792032469413,221.88361858807655835335,55.4693515716292466777304,411.174899349234351575433,-227.536185225704087997656,150.71960336584859874165
3.58999999999999985789145,1.18595770077008055842782,1.14857839482805701436519,0.187014904202085996409721,-0.00794790699342312265129884,-0.0206258024533733305694305,0.00180537068116713153229091,0.00431025123288552355210745,-0.00666574484842733568784601,-0.995218980025161847891013,-0.0973434021489068129762146,-0.097710124782861146330859,-0.0121353492351700883999932,9.91509672333588198966936,0.00640974883322599497947891,-0.0135622655081185459341464,-0.010029876505956696747246,3.66580917900350122806685,4.8642346240329414897019,1.18660026211023761355534,1130.54475576183540397324,1117.62173414369203783281,1143.86659409132357723138,1144.63649393674086240935,106.935253928160875602771,194.538924562207796498114,255.242240295939211591758,-213.535780658989239100265,150.718068312107817519063
3.59250000000000024868996,1.1814244455305478176399,1.37070808951089162519565,0.0441331912099962100914929,-0.0025560766142385953243743,-0.0175802357143743821776827,0.00117930684173269783969473,0.0043082852773992045408713,-0.00663960558923558288174638,-0.995219217809531708773818,-0.0973426550018813285802821,-0.0998247804579238118272144,-0.013634031892470324653921,9.92070878629013463978481,0.00623126558614951406300797,-0.0138457675240019877777042,-0.0097440285284236278356973,3.66579341850835005445219,4.86426451509893364999471,1.18656727277858342617378,1130.67036460978010836698,1118.25522227115789064555,1144.30056769611110212281,1144.1323443946253064496,-18.5974234741466908360508,312.821342749863845256186,65.3023734171667058490129,-176.20853595361671750652,150.716543680796036142056
3.59500000000000019539925,1.02890706759981753748434,1.49625452171498252162962,-0.0435876209875458858755692,0.000682648935550342382885813,-0.0135232182342028880300822,0.000653266557748833232716068,0.00431701020218015069085382,-0.00661256159511029815295524,-0.995220128780663682022123,-0.0973346664245685194716273,-0.102226297574493835140785,-0.0150360597425892653089541,9.92609597640217522496187,0.00603483519190057583758691,-0.0141372159310794130726574,-0.00943487837130978744537568,3.66577969601930941934143,4.86429742151836030927825,1.18653554838565988838184,1130.45176864446466424852,1119.18584085744146250363,1144.19310595840943278745,1143.75545125697271942045,-163.442401821615789003772,461.406624109223059804208,-166.298367685025283435607,-130.311055658424322700739,150.715035687064187186479
3.59750000000000014210855,0.761057155250213224206846,1.5056181857711699034752,-0.0944050961592049348025668,0.00192081813671686777930669,-0.00770673539456410809644904,0.000226554461378396818169861,0.0043398644858159782927709,-0.00658514779572916264527294,-0.995221808160172027868384,-0.0973182965486789619546926,-0.104930218391914215070315,-0.0163326115443688975326086,9.93121222902846056967974,0.00582052365891140392750724,-0.0144320769274895299022488,-0.00910341957470135743069051,3.66576810533987584861393,4.86433489665656271228045,1.18650583558084354862672,1129.85315260067204690131,1120.56225539170395677502,1143.4690758576859934692,1143.48078911633319876273,-259.606229582328580818285,535.201428272068824298913,-347.300161753135512299195,-73.1802175801946930278064,150.713250000414831220041
3.60000000000000008881784,0.526368582216767633141785,1.38725901998993950137162,-0.103059017286766987919755,0.00149172212838432250055221,-0.00275165305331204028405079,3.25115039198085512385863e-05,0.0043727631234646872557259,-0.00656493244830076011497866,-0.995224067451004335005393,-0.0972951225083054649367398,-0.10781772547295262465461,-0.0173723283338934192387981,9.93601774126359948979825,0.00558904574475644483344539,-0.0147254804763175626419747,-0.0087515115813584856696572,3.665758102816523145151,4.86437662623985023202522,1.18647836931824879336261,1129.15373749655304891348,1121.86184799880174978171,1142.45660514964379217417,1143.38955016907175377128,-299.504341474273132917006,537.436147916889808584529,-457.458729957271089006099,-13.8870900600980586858668,150.711784841513690480497
3.60250000000000003552714,0.324035883777751387846422,1.15085343038902143675273,-0.091737177720000062652872,0.00070906002619017379981492,0.00149827846667577877295963,-4.05210778176337730964972e-05,0.00441367746435548848754626,-0.0065550290285231443271341,-0.99522632458803739208264,-0.0972709386662049396710117,-0.110804319067325185432793,-0.0181071880989893130298185,9.94047809840328788766328,0.00534190975539718202608208,-0.0150125604284205970556654,-0.0083819209649264314609951,3.66574987983646005673677,4.86442208388557162379584,1.18645323476039687982109,1128.35563089330071306904,1123.24943613128834840609,1141.18178220789968690951,1143.41135366603270995256,-351.945078811794019202353,618.129284703686153079616,-577.27781238751367709483,30.5700736695605108650398,150.71034654905972161032
3.60499999999999998223643,0.130391015646618591006245,0.774280698538839184941196,-0.0702640763882289437480821,0.000169359524444408286432753,0.00516627554279038524176482,-5.21925555846530629016192e-05,0.00445864726512277490672043,-0.00655598734310330888419571,-0.995227913526172236480249,-0.0972526748095904197688455,-0.113766484896577396712658,-0.0185460001533544610596849,9.94456651235978483782674,0.00508120566985062471765389,-0.0152890796229144011741941,-0.00799808288055259622439941,3.6657436885748468924362,4.86446971208104628203728,1.18643052998681008958215,1127.39401210249411633413,1124.95249442232011460874,1139.57021608770628517959,1143.54240053741955307487,-342.152924150430408190005,623.709332087550706091861,-574.235553641859496565303,64.1469312083713703032117,150.708654630128165763381
3.60749999999999992894573,-0.000879112553650853389107522,0.42889616946502612249148,-0.0544274347311264131143993,8.89129490056330616361627e-05,0.00648576380815290860076816,-4.14271936373583669985937e-05,0.00450512992441924175340828,-0.00656379179152173121425395,-0.995228693939399611245733,-0.0972421344343827737111141,-0.1166059578012454411855,-0.0187974106537549118245423,9.94826347132306842979688,0.00480935880843977574955472,-0.0155518514824300024129711,-0.00760390545803997595225576,3.66573966433750131344027,4.8645182234547288402382,1.18641088497550017955007,1126.64486627254859740788,1126.36798279172603542975,1138.31060443969045081758,1143.73208832207455998287,-280.891082076465465888759,557.290367422058807278518,-458.958468241062973902444,91.3296773558178216489978,150.707274870453517223723
3.60999999999999987565502,-0.124095131735512467785476,0.110235656753063876456267,-0.0480922029604609613251398,0.000230198558674546248240325,0.00574621465445532622617897,-5.36096154061853360736113e-05,0.00455247120266553690487443,-0.00657445204648145903325585,-0.995228992930247913228925,-0.0972362678545100334037699,-0.119269150757129543949375,-0.0189779480352633700412923,9.95155638522922991739961,0.00452896135118728386526055,-0.0157990062374774066500382,-0.00720335359737250564143851,3.6657377849107901646164,4.86456708981762897536782,1.18639430362557196652062,1125.98955669211181884748,1127.73894625943034952797,1137.27542374650101919542,1143.99904892419863244868,-259.42281500545573180716,581.270762869559689534071,-386.045278074262910195102,129.217852701222369660172,150.705928379568888431095
3.61250000000000026645353,-0.288995172849728088060317,-0.188160383931119390421571,-0.057156854513627043667956,0.000439924843968363793976495,0.00354710286294072875065697,-0.000137979283456523811688538,0.00459558324894131491750171,-0.00658562085696847918092622,-0.995229356252725461118303,-0.0972298894745106528914036,-0.121625729766099338613472,-0.019165977806455493370752,9.95444167467858243014689,0.00424256001030371386606443,-0.0160300506903014693127485,-0.00680012291305310059841283,3.66573722793953438170433,4.86461618009170759791004,1.18638040960390989120299,1125.34775219752123120998,1129.27433660607402998721,1136.38037804931900609517,1144.37817758558071545849,-203.869074135159166871745,534.888383272446162663982,-266.783619137622906691831,138.838276515288896462152,150.704353242473246154987
3.61500000000000021316282,-0.453002817051251671642831,-0.349776404794884532289956,-0.081619276816990715683886,0.000462822093142402531118496,0.00153356967741046824882378,-0.00029053461564512093580695,0.0046281621891444248498293,-0.00659234972030693297528892,-0.995229808204578403341145,-0.097223378399513116221442,-0.123524002995169329688352,-0.0194916527105116581253252,9.95692343106509625272338,0.00395281293489519770789631,-0.0162457185116319929862883,-0.00639746981466996888360255,3.6657372122398030889201,4.86466425865212404033855,1.18636801326263663369787,1124.97021132143595423258,1130.41338817579276110337,1135.94150565081281456514,1144.69324030677512382681,-105.759598678607730448675,415.312787244292621835484,-115.694167207677963915557,108.003681037419056565341,150.703076076949628259172
3.61750000000000015987212,-0.646332199323204514840313,-0.426779035208463441986027,-0.126752844199392172841456,5.30394018054496080684726e-05,-8.69410448953164614709077e-06,-0.000537828163176791375528485,0.00464733197820679094780516,-0.00659378783532606291967193,-0.995230114999453685520336,-0.0972193144472368875330659,-0.12489631532111622469472,-0.0200096961901287048735121,9.95901001994837997699506,0.00366239907587688744844412,-0.0164479609365826041911252,-0.00599780513832473376190091,3.66573794176305600700516,4.86471038912660169728497,1.18635642648594341608259,1124.81895420412820385536,1131.35090054229544875852,1135.80190721328062863904,1144.91819599076779923053,-12.5090709173039549284567,335.267147221664231437899,-12.4049816433401165483019,59.9294950982779539572221,150.701837557410300405536
3.62000000000000010658141,-0.853947424095498397456083,-0.450933457027851147813635,-0.191302876927729625933239,-0.000960182567185039782808875,-0.000914128488386135190126025,-0.0008410465682034008044754,0.0046488030476811376470736,-0.006591230776872343370687,-0.995230169946923259871596,-0.097218912170741217382286,-0.125659440143636585984765,-0.0207251940572993585687467,9.96071486122867177925855,0.00337378563831286591018221,-0.0166396680293979595810505,-0.00560275186577064050752472,3.66573980825154821516776,4.86475439414035459861907,1.18634518801905342044734,1124.90766596684943579021,1132.0897239119010464492,1135.87948074259611530579,1144.99288778226650720171,102.626716229317395345788,244.040290224034578159262,75.3394891879013499647044,-21.7432191621360360045401,150.700632453826784740158
3.62250000000000005329071,-1.05408259634647571978405,-0.435762486283251426755214,-0.281437613619315796231746,-0.00299032747925519898357649,-0.00124860336316492503798414,-0.00111794355218756882169862,0.00462755292217563885676102,-0.00659003155598758983552132,-0.995229991280841996825757,-0.0972218700216058162588695,-0.125731305413654931291134,-0.0215548639558064067389687,9.9620546211636664679645,0.0030891543976880233429716,-0.0168243269869222840384726,-0.00521313470094328466203359,3.66574209878037038379262,4.86479673100067788737988,1.18633418485784858376064,1125.33208778527477988973,1132.57110199341559564346,1136.17860465922012735973,1144.80947989495712135977,266.115295176274457844556,152.714013320067891754661,174.289374156072966570719,-150.488018726085584830798,150.699469288627682317383
3.625,-1.24451333208766379279098,-0.394291357921329355118445,-0.418145540409782023871799,-0.00677546902492354163882737,-0.00154442337440888026456332,-0.00132387051054672338218365,0.00458488636581493459037917,-0.00659310290831591379323573,-0.995229524677210597438659,-0.0972284814090561277932778,-0.12515753947460217521126,-0.0224685883075974243694439,9.96304557108658173092408,0.00281047823157573378391461,-0.0170055884825443225094599,-0.0048292801910240967452892,3.66574480472964259192281,4.86483814628105104560518,1.1863240076715098059168,1126.23824244273077965772,1132.85329397850136956549,1136.75092761337646152242,1144.24044768863609533582,389.697795917308326352213,56.2879642744076775784379,240.554097987802038005611,-264.23413630641897498208,150.698124089740417730354
3.62749999999999994670929,-1.33281311166128735301584,-0.346125926715082687934455,-0.548382639192962373364537,-0.0108181896008538221826134,-0.00199567917913970674370638,-0.00164063349368272562434079,0.00452572380104324968608243,-0.00660121918490039552573911,-0.995228771461531436237635,-0.0972384501164550579810353,-0.124057449567978012039404,-0.0234767278683255323223911,9.96370323386107514807009,0.00253942794914148754423233,-0.0171870296443497466709616,-0.00445109871979380931211745,3.66574810516207971744507,4.86487870700634417175934,1.18631520204814155938777,1127.2805767648612800258,1132.85254181478762802726,1137.38137514915911197022,1143.48830921342505462235,453.404414735323939567024,-47.5228290104506569946352,278.387460226128041540505,-341.806277259009220870212,150.697046837525618911968
3.62999999999999989341859,-1.32516866029048463460072,-0.280740522530934177858342,-0.674259555372779040283149,-0.0151052265419206552948816,-0.00279825573764441812990578,-0.00256594671981386470219211,0.00446034014833077054745791,-0.00660910267103767459090369,-0.995227777468556840112512,-0.0972511665513763057244745,-0.122649740024854209119454,-0.0247105653445720170602318,9.96404079718093704798321,0.00227737557836628140214841,-0.0173719304305044557057425,-0.00407822411370513653733338,3.6657525455384956103444,4.86491880150280309180744,1.18630757097721706294635,1128.50526451640735103865,1132.6156798334491213609,1138.14286491450707217155,1142.53141630234108561126,541.115599252461720425345,-158.430947288378092707717,356.740648860044075263431,-433.412600851732179307874,150.696017132453192743924
3.63250000000000028421709,-1.20046250609517701768425,-0.174752788050411222986469,-0.781336328736705332254076,-0.0198089160079875786779624,-0.00398579140923985015404485,-0.00464391345685727201242354,0.00439664320827053752699376,-0.00661185060044257224415309,-0.995226482327985051412611,-0.0972672006663093668965558,-0.121110358820976593552388,-0.0262800675695305761825349,9.96407052538253346085639,0.00202533414075388397065924,-0.0175632019489787016830462,-0.00370978402225048643423011,3.66575776970408240273969,4.86495906201536243429473,1.18630023898498526691014,1129.9861547611237710953,1132.06038707834568413091,1139.16507839345945285459,1141.32124620916624735401,512.075012951765529578552,-248.082596611840557443429,384.18763189544870328973,-422.548405993774053968082,150.694839450096395694345
3.63500000000000023092639,-1.01102192488554609717255,-0.0614873007244449709673972,-0.801595248539578197899402,-0.0229464537670435973770733,-0.00488321150924298386791778,-0.00712835654427483329104165,0.00433806271011353411504174,-0.00660764078424327244709602,-0.995224845320210493859747,-0.0972869283043858862347619,-0.119534524350925014379854,-0.0282158529996451960808468,9.96380348391463499524434,0.00178385968759520933783758,-0.0177633441400431371648416,-0.00334434035750764491537468,3.66576412130802298250387,4.86499997905508951845377,1.18629203391523296851062,1131.06563958116635149054,1131.37526685038983487175,1140.06380307398444529099,1140.41867427237207266444,364.172329725132442490576,-316.13084327919517590999,355.783540040473155841028,-301.80971666346255233293,150.693908896192965585215
3.63750000000000017763568,-0.756971605241483214143727,0.0712697670652737286234313,-0.716721965925938064856382,-0.0249080551572132824489358,-0.0054044234341278415273413,-0.0102055169695872000046322,0.0042867416851095794735893,-0.00659958433939381635541244,-0.995222963005983229933804,-0.0973090488086471167017422,-0.118002286563862329726859,-0.030438708347730381031937,9.9632476330791170937573,0.00155298523983895750411044,-0.0179744604535014666779613,-0.00297999138666316370355203,3.66577221338830616659266,4.86504176097358520536318,1.18628241060226824465929,1131.80701640974939437001,1130.47973286194974207319,1140.94399609366178083292,1139.81219762584896670887,220.418779630977184069707,-432.233712373099592696235,364.353430008357975111721,-164.787003131554115498147,150.693034589153171509679
3.64000000000000012434498,-0.40901799169509922560195,0.233667816867431543670364,-0.474091106186032229530269,-0.0259194241668919307663987,-0.00523943647658536675038032,-0.0138477613166447990206143,0.00424341437193868301763766,-0.00658987702164272499960607,-0.995220793253068558570362,-0.0973338148420795495896485,-0.116563044013899580475524,-0.0328770990209184751917881,9.96240816346350577248359,0.00133224368102669520584624,-0.0181982647872672535782623,-0.00261487632677942722150832,3.6657814579128915610795,4.86508384563244433707041,1.18627150011214399505377,1132.16773347932121396298,1129.21409828852438295144,1141.88557022402619622881,1139.59473925671431970841,36.9977847348771931024203,-485.342110610564645867271,310.942281861259573361167,18.5856911801242290493974,150.692055020648439267461
3.64250000000000007105427,-0.101307518237108304393068,0.351996339036136529632159,-0.160749312276291633772018,-0.0260404993763425594843763,-0.00450526550839447717522468,-0.01619750286673165770579,0.00420838142201277864290487,-0.00657646424722606315338425,-0.99521856592489754689268,-0.097359010472099119515299,-0.115247419868858641534004,-0.0355350412915319963103045,9.96128748117033069320314,0.00112043970238151252734327,-0.018436125156443286532415,-0.00224763150208492695422691,3.66579078191473062275918,4.86512602731943122336133,1.18626032932449709811351,1131.99200533342377639201,1128.05302230889697057137,1142.49870750296804544632,1139.9051260817495858646,-160.893820306549770293714,-472.48589413126052249936,190.543999718879121019199,225.450846284780055839292,150.691300416912866921848
3.64500000000000001776357,0.212358389795209573369661,0.427996483404018412954883,0.234208305345682432641041,-0.0256751557830911386615114,-0.00310106850611514437907057,-0.0174889196506807682862661,0.00418193054455674381730823,-0.0065582316056865160025513,-0.995216625227578144397,-0.097381201846375525787991,-0.11408437671151908099354,-0.0383915104191803330246913,9.95988522209107784988191,0.000915702402250077114771731,-0.0186890639777861113091095,-0.00187745148985197281982229,3.66579920063231279314664,4.86516857727338702943598,1.18625035601168193899468,1131.36326437778848230664,1126.85166881786813064537,1142.83829022262057151238,1140.72199348813819597126,-309.440820329161624613334,-476.466285126126592786022,77.6438545933631871776015,397.683326779323863320315,150.690614711503371836443
3.64749999999999996447286,0.526451698202801132708828,0.45331326132144095231169,0.652943721857335401814737,-0.0248445960574473663495798,-0.00118012091787351005092721,-0.017328464066909434609931,0.00416622687522494403872253,-0.00653614555653997571227354,-0.995215203472155973685176,-0.0973978803535454629169976,-0.113139704385046974133289,-0.0413834200167571830686342,9.95819836650797718391459,0.000715717043380129937756029,-0.018957695317328337319962,-0.00150412708785224377705525,3.6658061664934495915702,4.86521223875287844862214,1.18624187924542190408772,1130.44480123177800123813,1125.6706908832663884823,1142.88692677593485313992,1141.89354271564616283285,-407.485330794279036581429,-453.663056805417568284611,-59.3727523862084041184062,525.288798474150326001109,150.689989971306545157859
3.64999999999999991118216,0.83702829139421541793098,0.408724920206369524144918,1.03051316184561514432971,-0.0235869585154836261531308,0.000720677686371870877476975,-0.0146194014174870542260853,0.00415644112740578067222152,-0.00651295045291746654142484,-0.995214084781263164103393,-0.0974112732435710032552478,-0.112338409580353848493672,-0.0443968837326440407542449,9.95622566391113394956847,0.000518110915971958883169401,-0.0192421990341344537056578,-0.00112798098535044164641983,3.6658118483047834601507,4.86525747014683851432437,1.18623497959466472906342,1129.32583772381713060895,1124.58335353384109112085,1142.54142646068953581562,1143.34843748050889189471,-496.172263659365512467048,-436.287972184855107116164,-239.96162868452813654585,656.297468815742263359425,150.689443049698809318215
3.65249999999999985789145,1.19585482103464291192552,0.280008313672043540609735,1.34597274533462352152924,-0.0216921887084788704569416,0.00236675535802680862135228,-0.00889662875425149997365981,0.0041465710900728909235613,-0.00649385956924894511971269,-0.995212945306685692337112,-0.0974245958081401547401512,-0.111581532905161012747541,-0.0472652427847188374987475,9.95396659946508144400923,0.00032066625801011169796112,-0.0195423683099099562698875,-0.000749746723416956683053169,3.66581672004226533090332,4.86530396524981778583197,1.18622951964301659444345,1127.96393991348122654017,1123.48925102234215955832,1141.68711863251223803672,1145.17503005972480423225,-473.849066072320795228734,-349.094092654171674894314,-372.903880878650227259641,642.908420521873495090404,150.688881361625050203656
3.65500000000000024868996,1.46732091581113732736696,0.123998938241028824891465,1.44676772354738392145634,-0.0195486771307210906167828,0.00314474128076845270071682,-0.00339736728667789462596249,0.00413549917905100834075727,-0.00648211205414023564075343,-0.995211649934526487726316,-0.0974390598684553438380007,-0.110857942206089354897358,-0.0498695389824788601340622,9.95142047508249127929503,0.000121487496747879007144219,-0.0198576566717844939236048,-0.000370665835652827374557816,3.66582120508020814497741,4.86535110299182704807208,1.18622542123205265696129,1126.95659239345536661858,1122.83788307057011479628,1140.67690705629615877115,1146.56297958311847651203,-350.795783393026738394838,-186.802040573216913799115,-438.716422683789858183445,481.909730565134168500663,150.688494851512842842567
3.65750000000000019539925,1.67561737231010710047485,-0.0593457053003427770221379,1.35722223486506932133011,-0.0162988346222059272971894,0.0031129442761952293150518,0.00165654724712474251194227,0.00412274807274851020494344,-0.00647885604992895231674099,-0.995209922794469181717147,-0.0974574344739254361247305,-0.11015985486851884167514,-0.05213497224252701400804,9.9485890041386664250922,-8.06835490007388854297524e-05,-0.0201871936879547859977624,7.58268679691750207541492e-06,3.66582586410569088997136,4.86539869903287058860997,1.18622249129109813559069,1126.20996099651597432967,1122.55524081947601189313,1139.4935365190931406687,1147.58457871255063764693,-253.257372308558785789501,-23.9806558819969382057025,-520.951752488292413545423,326.475702684008524556702,150.688195438514952684272
3.66000000000000014210855,1.79664700035773394759531,-0.282245159472365003683336,1.04500575865638856143391,-0.0106358595856182909511478,0.00192145161600116047215248,0.00690638890908104423338454,0.00410584840525615290401928,-0.00648025579090234782331237,-0.995207772784327593385001,-0.0974799914879193735162133,-0.109426203073862471359945,-0.0540832433084756925012471,9.94547819741375604962741,-0.000286525134183640529331877,-0.0205297609992739042705789,0.00038281475815559243541103,3.66583165681091527332569,4.86544673823062900908099,1.18622032138415023361233,1125.69030553191259969026,1122.71797979116013266321,1138.07214829385475240997,1148.19535809653848446032,-126.498948207748043159881,144.332538450138031294046,-491.726418394056508986978,109.397885679302419248415,150.68793865060143843948
3.66250000000000008881784,1.7495160735679420316302,-0.454372363668818557425055,0.647782324332743963957171,-0.00455353704364527562403753,0.000394925893305710887671439,0.0102885661858803656443229,0.00408669954785228876914527,-0.00648210724645114765712917,-0.995205496765969477301894,-0.0975039023767915874474355,-0.108678384303441066816021,-0.0557544905187022238335359,9.94209660329888755825323,-0.000496183672836333065393755,-0.0208837662068224530487193,0.000752500983108242188675263,3.66583970090688415766067,4.86549564244487164899056,1.1862194137807655636152,1125.57746625547724761418,1123.27690351172668670188,1137.03490442712291041971,1148.13156814094713809027,14.5808041699641233179818,296.467861109665079766273,-353.721719587664040318487,-135.598549740964870125026,150.687810739800340797956
3.66500000000000003552714,1.52055164633194261902815,-0.603854529675529327903405,0.171467272183211866254382,0.00197765133243247908864659,-0.00109509704727422116712909,0.0117935553005868200282524,0.00407253907610137608902301,-0.00647745884933917555337235,-0.995203661553302754150252,-0.0975235366493410055221958,-0.108035434460498153130814,-0.0572574189579006936900996,9.93845554146481369173216,-0.000709447175484368124792622,-0.0212472729849794532419605,0.00111367694395339642682297,3.66585092412705337849843,4.86554637050354266136765,1.18622071101325632369594,1125.76320955276241875254,1124.20031909670842651394,1136.30353969591647000925,1147.51736534783367460477,137.13797578175510238907,451.355973095051524524024,-226.788830947048438702041,-359.239061686783713867044,150.687772168874829503693
3.66749999999999998223643,1.04985917556169283670897,-0.756397870732410271266133,-0.398969265482774393394294,0.00842389436865250904040714,-0.00287334950343490647811651,0.0105822014874225635294724,0.00406865813925103275011663,-0.00646079328217005581513899,-0.995202599427734480030949,-0.0975356445840599578511743,-0.107577850106883726732931,-0.0586746986489133995346101,9.93457197549839499117752,-0.000925806430708980029713195,-0.0216181385882757079452965,0.00146326389766918162939346,3.6658647602303799928336,4.86559895707844969336975,1.18622422953307871118511,1126.26315613438600848895,1125.53368337720189629181,1135.90096027238769238465,1146.33537283251325789024,217.933727563699989104862,486.007578130157867235539,-59.7006199880082917275104,-466.412359375236462710745,150.687828233175736158955
3.66999999999999992894573,0.53944904240187863120326,-0.861156711838642507927943,-0.807136112573477837450753,0.0113308182496117074850028,-0.0044679095016711004376142,0.00729613016582175439445068,0.0040753443481695763445094,-0.00643375643243600421616879,-0.995202431631388773070057,-0.0975388475637339047441543,-0.107298964320552470130821,-0.0599444100818588981871571,9.93046953040042446048119,-0.00114473784208809657367278,-0.0219941853057755709599519,0.00179853562676702454295463,3.66587992257183925559616,4.86565266854553524211724,1.18622959967964969330012,1126.85287819058089553437,1126.63035698735916412261,1136.00503659597643490997,1145.18530355095754202921,256.57197045402972435113,381.733383439594888386637,133.225668037678701693949,-440.715386057318312396092,150.687959227924494598483
3.67249999999999987565502,-0.0128920015678834209982284,-0.938722067254169290073662,-1.08868872380848924485974,0.0111981071728285766497812,-0.00617363017439338020858619,0.00289947275449513233031018,0.00409377677425138558620077,-0.00639917754007153678774689,-0.995203149563172018154944,-0.0975329823684495389457538,-0.10721059928230833313556,-0.0609902933833502275406957,9.926176041949471340331,-0.00136590380814291230751611,-0.0223733372919541484424855,0.00211703641294467767575149,3.66589565235072267768146,4.86570708916437411062361,1.18623713524068796765221,1127.54601598665612982586,1127.4423502943998300907,1136.56708861257607168227,1144.13179590222671322408,281.012185065154994845216,241.144770104057982962331,295.023727456990059181408,-371.377227820651057754731,150.688176467331231833668
3.67500000000000026645353,-0.537001474109362497699749,-0.985981542752435324850069,-1.24757530944253480775785,0.00908861047113724944412905,-0.00826832733519792563436912,-0.00159632846496589905598007,0.00412330172829178994570176,-0.00636174185468092040496302,-0.995204453221675056084905,-0.0975208213115435901263695,-0.107290705616098686059345,-0.061704073075514183355228,9.92172381696908622927822,-0.0015891056946513693569345,-0.0227536491412285053759224,0.00241681449201604139215283,3.66591166087894437808359,4.86576202243181565876284,1.18624616722254527800828,1128.2579391159067654371,1127.83608083787953546562,1137.48015523326148468186,1143.3284174118541614007,269.907388871688397102844,27.3667721281053388793225,438.21185508351618409506,-238.521421553316315566917,150.688464347650210584106
3.67750000000000021316282,-0.967348510543089679103446,-0.982648200701335516882295,-1.26599973497225670726607,0.00580960866885954583388463,-0.0111401297935958838031256,-0.00554566831339473823719866,0.00416098455118717441142406,-0.00632430441939594179673323,-0.995206174136946897235134,-0.0975040213462552707301967,-0.107468491080682043703476,-0.0620165749405604399546732,9.91714876361048780495366,-0.00181441486598708963395854,-0.0231332721390953635620669,0.00269641314760866133981576,3.66592739122183219890871,4.86581735013842919812532,1.18625571010925168202732,1128.89555293101466304506,1127.57918415504036602215,1138.75814788799380039563,1142.93918879446005121281,236.857214605247975214297,-273.877294132040731255984,628.341127103080680171843,-78.2315195732752073354277,150.6888363977730307397
3.68000000000000015987212,-1.32692847797117696728719,-0.905994880704476646116063,-1.16010231054185197763218,0.0014548831225174041221343,-0.0148461946954435708434517,-0.00907609355739123421780157,0.00420062512668126740444929,-0.00628922728510384644595721,-0.99520805994488936718767,-0.0974852802686443364876823,-0.107607842903397837863722,-0.0618700349600336263478084,9.91248946935129104929274,-0.00204196590829771934191839,-0.0235103805532167059455517,0.00295499320174301373029269,3.66594268331098227520215,4.86587310014163687554856,1.18626600491231171119466,1129.44222518893298001785,1126.4666943672193610837,1140.62186086877682100749,1142.93725981398779367737,147.674984444623504487026,-527.433279837680288437696,723.353249153221440792549,53.2275609388318571291165,150.689378915690639360037
3.68250000000000010658141,-1.47667562846766675654919,-0.780792266901496723185971,-0.996977982444002486239754,-0.00243676065469860614678965,-0.0174508474231426270739664,-0.01120632494160378467285,0.00423556325597637065710765,-0.00626165634518525190260752,-0.995209705847953096657932,-0.0974687006192048177588561,-0.107569618642842257383307,-0.0611589373889859441724148,9.90778472895300055256484,-0.00227180768172144300492965,-0.0238830761855107764901618,0.00319248121048866127444366,3.66595822088507405922542,4.86593011684901100011302,1.18627780142220418113652,1129.63392785323776479345,1124.94201775585202085495,1142.37491413375983029255,1143.20532659915420481411,11.8580297998962826966363,-692.057832773631389500224,722.355953009507061324257,120.403933380569313271735,150.689910191717984844217
3.68500000000000005329071,-1.45980132062594880615336,-0.602797700454947626980129,-0.790111592743429569374314,-0.00672042595824790672809357,-0.0192213586551354259635005,-0.0127595552614701047977608,0.00426007594744364209010667,-0.00624318282553821147368156,-0.995210297900683604765959,-0.0974627481165080689073932,-0.107227153714873124634721,-0.0598583971337829298664523,9.90307152065923013140036,-0.00250363761018945665121072,-0.0242494295345477214875807,0.00340932747308864917551441,3.66597429830937482364561,4.86598881064723975953257,1.18629031775604776299815,1129.50151533793246017012,1123.00640520335127803264,1144.23364063382427957549,1143.53927948089062738291,-127.959420472555393644143,-877.403494578102822742949,813.518540750573379227717,115.302268454800199037891,150.690522661623049316404
3.6875,-1.24829877464563132605235,-0.348284773707094541528306,-0.51984476806008284022198,-0.0120347417931764878729073,-0.0204570163265273032016101,-0.0140091507737661723903555,0.00427180252346690252779338,-0.00623371804494171361660237,-0.995209247217552550601738,-0.0974735577048554679979731,-0.106519342101325825700187,-0.0579895595822923631823542,9.89838259433048683888501,-0.00273706425507106929084777,-0.0246075175007049520847779,0.00360662652704684576557281,3.66599098383640953358054,4.86604824213285702683152,1.18630344048085056840591,1128.99413075087500146765,1120.55500028296160053287,1146.44250683751261021825,1143.78183794142819351691,-229.081674763806745431793,-867.334628328281155518198,780.095925423818925992236,43.4601089137695595354671,150.691350365665215349509
3.68999999999999994670929,-0.927330869130571167069377,-0.116932376637708515532132,-0.289367735727932340328294,-0.0158810739181199610248196,-0.0208915917180423245380627,-0.0147218986210557109539643,0.00426840437722036600276532,-0.00623059550058708243314154,-0.995206614549767332178476,-0.0975007915742006070480841,-0.105384239880320695892379,-0.0556291355363054962346325,9.8937463373865277560526,-0.00297176642360030959441608,-0.024955452497591727734072,0.00378611486635371027181796,3.66600817851452509543719,4.86610827074413965220856,1.18631652706078760672881,1128.35610696411345088563,1118.66973206170996490982,1148.13412026094329121406,1143.75658002545947056205,-273.13067186024125021504,-669.327413986289343483804,606.850448834588178215199,-54.8252327801049261779553,150.692116451158426571055
3.69249999999999989341859,-0.493456561097384172054348,0.118927533560772791254578,-0.0623173930706998266404462,-0.0183233774199866861209784,-0.0208385957580056249693889,-0.0152901905800144136127194,0.00425403985905096256731062,-0.00623148781262465503022474,-0.995203022211555321518972,-0.0975380524540717386283717,-0.103892661065023539368468,-0.0528638770601892460376803,9.88918331494518021429485,-0.00320750805716836983813578,-0.0252913536254438381378762,0.00395018516786847274924188,3.66602518391258946905964,4.86616954132067913718629,1.18632814445889445131854,1127.62847739157382420672,1117.20836321303022486973,1149.47675908168548630783,1143.50771177752767471247,-307.825654193427112659265,-510.057503511290747155726,458.167763307998029631563,-131.351902276210466880002,150.692960288343840602465
3.69500000000000028421709,0.0936887072096942025156707,0.391034766887376539212795,0.197043367947887682056773,-0.0193026876871895611276209,-0.020227836334953716579399,-0.0154075559803256989521714,0.00423335746344673160418415,-0.00623336854016112024146068,-0.99519903089688566133475,-0.0975796042783484002258731,-0.102127359986156518445455,-0.0498004586047823133432289,9.88470773161843396792392,-0.0034436822669254977570541,-0.0256134072411803165314481,0.00410169813363765473762657,3.66604250062915060226487,4.86623293472998064146395,1.18633713900052106815508,1126.81697869314621129888,1116.11944454415333893849,1150.42495907748343597632,1143.09982051407837388979,-267.353049439480116689083,-282.467508078051707798295,200.61805434214431897999,-138.105708903085314886994,150.694060582659261626759
3.69750000000000023092639,0.583884994580573191136352,0.596389224633923298313221,0.392483310515270578111569,-0.0184592873480763607074717,-0.0191900505735454751654601,-0.0145575316532275487318993,0.00420873803577271558135076,-0.00623566176031239809141038,-0.995194960609440903986922,-0.0976221165052050671162576,-0.100135272996252466803924,-0.0464976867890119840986962,9.88032794259762070510078,-0.00367908238550043384385013,-0.025919983325768936738287,0.0042438171153657078607524,3.66606115415367161958216,4.86629869568612427599419,1.18634386958995108329873,1126.29171214437633352645,1115.79602567263987111801,1150.4798493533962755464,1142.81718323301220152644,-163.40313653395591586559,-21.5329903079696158840761,-162.432769402861424623552,-71.5539731071218483293706,150.695048641966110380963
3.70000000000000017763568,1.00817038591427809990364,0.763047320238031567818382,0.553985082474863665957798,-0.0159817034913148497965452,-0.0174904788740614970665721,-0.0126178531561393202781174,0.00418569170339980461265084,-0.00623689760095439901799175,-0.99519128113465360474521,-0.0976606483280400283764067,-0.0980282795651832017380656,-0.0430406303665907472022489,9.87604464552563676704722,-0.00391211573371743476235096,-0.0262098736599236450950379,0.00437937684547239601540181,3.66608229640769645030218,4.86636655301386067407066,1.18634992353002499676506,1125.9999630104764491989,1116.01177959261349315057,1149.61279523046914619044,1142.74205064854277225095,-73.049634891596468833086,154.870952882450751530996,-508.141280040319486488443,13.4320609935005581547784,150.696107863632647649865
3.70250000000000012434498,1.33143464778668318970745,0.884799616279337453050857,0.683597380774250584778429,-0.0123881123169235270869981,-0.0152410936883901684812948,-0.0102352545857318216054876,0.00416677357593926451367894,-0.0062344973851827653263391,-0.995188142810088161027693,-0.0976937055591391018127823,-0.0958628517859174411608336,-0.0395331081984213877911216,9.87185353303768664545714,-0.00414061897219881059478697,-0.026482585767553318972789,0.00451066612232114191177734,3.66610660610678973370113,4.86643485506661033213049,1.1863559543559074604957,1125.92646396991835899826,1116.57038043705210839107,1147.93914295319473239942,1142.88434353797970288724,22.55171696278969406535,275.727166533812521720392,-850.881322760706098051742,99.6458543962510958635903,150.697223798927012694548
3.70500000000000007105427,1.48707699008841087717769,0.939620273274326400780865,0.782867698605599904304597,-0.00801918390861381183420953,-0.0124811400012967491091054,-0.00822105934878319434544469,0.00415472228876165826372269,-0.00623003925924673056940817,-0.995185555947392219700021,-0.0977209484754844731613233,-0.0937123938383969401488827,-0.0359983525704628687380549,9.86774477907880687155284,-0.00436227989189048176443819,-0.0267384337507671349110083,0.00463953997839725278823364,3.66613322541794550701866,4.86650209552509327437519,1.18636223902007253983015,1126.11272159529039527115,1117.39041542528252648481,1145.35838861666570664966,1143.24027992052401714318,134.769570675828759931392,384.995298426482804643456,-1298.29052981561335400329,171.946522687634598014483,150.698404984213766510948
3.70750000000000001776357,1.43884900741205346008655,0.920354987528150703113283,0.887917274351729846060266,-0.00214240227512510960847236,-0.00888646811820529083925102,-0.00668686787211379175810411,0.00415018237877811963648655,-0.00622389284490119498033378,-0.995183566952511755587807,-0.0977418449409475365019517,-0.0916120969731377132738714,-0.0324785167017342391027057,9.8637050951970586254447,-0.00457498954188953130262085,-0.0269785102807366949928536,0.00476713171223368606388426,3.66616063542646708484085,4.86656771968520462934293,1.18636862996351410970419,1126.60031182329748844495,1118.49535692918448148703,1141.44769030411680432735,1143.74407615141785754531,213.808647369210120814387,405.196289650220478506526,-1516.29663415959430494695,165.329279869414563108876,150.699893395896282299873
3.70999999999999996447286,1.18912819130276936618884,0.837307526408448965504761,0.975744935049430051066111,0.00330441639681219737414986,-0.00625380344877986531909597,-0.00602955373445471839305432,0.00414838786613947949066805,-0.00621647570869856766484496,-0.995182381048971165249384,-0.0977544762740846506776649,-0.0894959212653377300661361,-0.0290021620829212893599713,9.85972003124167173382375,-0.00477706464537618839122368,-0.0272044154444407021431473,0.00489395028632342871804939,3.66618798893535657867915,4.86663123518828300007044,1.18637584971811782530438,1127.18176483213642313785,1119.41639687353358567634,1137.77690544586789656023,1144.06692631987107233726,254.613310834571137775129,353.669942874474429572729,-1474.38053149802226471365,73.9484365517471218254286,150.701189646093581586683
3.71249999999999991118216,0.735945301815351782259711,0.700159785643939436283745,1.0591541659154322108094,0.00844459217442757904825701,-0.00452262884913791525509641,-0.00529316353862864866219873,0.00414244012656681242362522,-0.00620716963730732519677336,-0.995182007008998725794413,-0.097759088374893651773867,-0.0872579080646911364738116,-0.0256117996401028155672996,9.85577430359358785949553,-0.00496712534164884828707942,-0.0274179511489707171401076,0.0050198078065503857689289,3.66621528615208536194814,4.86669310089389917095559,1.18638404788082274521344,1127.87337837747031699109,1120.26370664355681583402,1134.07578764662684989162,1144.11381833417658526741,310.964068489972589759418,347.236972917524440163106,-1535.61184510298153327312,-67.6477609461486082409465,150.702540410498471601386
3.71499999999999985789145,0.0269835335088124683711186,0.495446845991688755717064,1.11478576267438733715665,0.0118828215873076417641308,-0.00316303305983612736279609,-0.00272616559932331407878348,0.00412860133120645459575693,-0.00619625305785693678006787,-0.99518231499571419007566,-0.0977571567461436308210665,-0.084858913562498666793843,-0.0223352564475169379498709,9.85185137715806469316249,-0.0051441759007572899001226,-0.0276207464385049283883689,0.0051439238920745417385505,3.66624283893299063308291,4.86675440405527304221778,1.18639350900002704669589,1128.73658517458625283325,1121.15258173812117092893,1130.09884622035315260291,1143.72868751514033647254,309.773638199955712480005,300.593854147725949133019,-1313.07345532827866918524,-217.281155723807273716375,150.704220810303610278424
3.71750000000000024868996,-0.616447788669011731421676,0.30493079637115050317675,1.08011585187909320282529,0.0109317823718871210553205,-0.0021391605778983283428496,0.00147962296660972118279853,0.00410579528390362692713556,-0.00618219140609543426484462,-0.995183132168305450981904,-0.0977506080801838345140098,-0.0823103953619578609934848,-0.0192372368101075136292977,9.84793521007495442631807,-0.00530762498700210107877018,-0.0278140359666210201794456,0.00526490903573670170068066,3.66627128577807592790805,4.86681621604281033910411,1.18640479455892289273322,1129.42224656847020014538,1121.76667591429554704519,1127.51042036998501316702,1143.02741255555747557082,257.911973358778482179332,214.287116625322681784382,-823.579323774209910880018,-343.584538629533653875114,150.705668480331212322199
3.72000000000000019539925,-1.1998580226505692891692,0.107600325160673387925314,0.91820903748101856400865,0.00615530814145013455140898,-0.00127778051747047408440161,0.00675475850115248542537838,0.00407575668426555896839414,-0.00616022341484431020658397,-0.995183961503287251026961,-0.0977447501373206323327381,-0.0796730956993134398214096,-0.0164476139185999077618749,9.84401160494003946155317,-0.00545714191073796549974473,-0.0279986337873152114907871,0.00538085704478750721097002,3.66630056887472521864879,4.86687908869425189806179,1.1864172629865641361846,1130.02614504138023221458,1122.22401732124785667111,1125.98094960148182508419,1142.01076482199255224259,243.973412115661375310083,158.825885506761295573597,-396.659433563499362662697,-483.904745107757946698257,150.707163032552415415921
3.72250000000000014210855,-1.72780235602948217810138,-0.116473360272670661830219,0.573578296986098412624244,-0.00181050073589015311087413,-0.000876315991212485044178915,0.0118132087948126084792078,0.00404490802328087793032774,-0.00612889980853975613328544,-0.995184589442648981361117,-0.0977415815130883713912624,-0.0771053745603907658701104,-0.0140351815779485022961381,9.84006810455013791738565,-0.00559310529976538971935751,-0.0281748614269624608752451,0.00548983514179744898353608,3.66633102892608597755952,4.86694386334285944428757,1.18643033773515149675859,1130.64211362904848101607,1122.56080534182933661214,1125.52712320216755870206,1140.60788883001873728062,208.984843470993752134746,85.2222753576388640794903,55.8340090876311592182901,-513.701445995649919495918,150.709008593037509626811
3.72500000000000008881784,-1.98929025260226333138291,-0.272388850908670321349092,0.196107788589743092799722,-0.00888047495661279870371452,-0.00127542460657677366418772,0.0137625566002078179167478,0.00401951246956456283848658,-0.00608726741890141392898883,-0.995185128105499083872587,-0.097739760424115279535684,-0.0747612604204165864807408,-0.0120535135072151675106333,9.8360963645241774599981,-0.00571660999274093209465697,-0.0283427520168227260743965,0.00558991543554432021578826,3.66636244752619822051543,4.86701144993760959067686,1.18644405972443567343078,1131.07106925873517866421,1122.65012869803604189656,1126.26011964691997491173,1139.44225759201435721479,154.482602483816322092025,-3.07058016010166445752816,480.583751836740020735306,-432.344672528333944683254,150.710588772917503774806
3.72750000000000003552714,-2.07217280867259345811249,-0.368902951596730088734688,-0.204941595691404909729272,-0.0150451315606085628262534,-0.00254892367531962251922528,0.0130412527198006129164343,0.0040020313982055263565818,-0.0060388313529789782244106,-0.995185561990408862342861,-0.0977391134022234514544536,-0.0727252565748715829041515,-0.0104572571522357701812034,9.83209315814791295906616,-0.00582920176138458385334262,-0.0285023519470789209184769,0.00567952936855575882951763,3.66639362981914374017833,4.86708142868256832258567,1.18645851110475608614081,1131.41452664146754614194,1122.54545244102882861625,1127.93004196135120764666,1138.44616546737711360038,119.592891286086157265345,-68.8444182110757623149766,773.346916828193684523285,-353.140068154160189806134,150.712211699551971832989
3.72999999999999998223643,-2.03778884781581126617311,-0.398023859796239720676425,-0.569932831022855412861361,-0.019923001026895065246336,-0.00449236815591444113571207,0.0105527157530303210969391,0.00399263842146599119004025,-0.00598554146466089356803941,-0.995185986066684402651106,-0.0977385346391301951252117,-0.0710295184552333369598642,-0.00922219550593261772064579,9.82806052360844972781706,-0.00593293368691006923337783,-0.0286540791697225405432192,0.00575717871740076027331501,3.66642421853965760902838,4.86715254089609761223301,1.18647292394161185669077,1131.66903371516559673182,1122.30590660698067040357,1130.12685423106086091138,1137.67655725124359378242,70.7374602453016052550083,-116.588878346467694768762,937.716854994070672546513,-242.945124628254859544541,150.713869372989250905448
3.73249999999999992894573,-1.90891124867886219362845,-0.335534154056504663188321,-0.841154413010128276795285,-0.0235682440995677693063026,-0.00685208922644448166494602,0.00712441859010804704605002,0.00398897216497525082534725,-0.00592909602543591207624019,-0.995186204033384758105285,-0.0977400022999811296520178,-0.0696505547007791048219616,-0.00831975704807726840206428,9.8240055782978039644604,-0.00602998880080291704830486,-0.0287989496775564526864777,0.00582153613861802286116864,3.66645437671288121350699,4.86722395027448584414742,1.18648736521864117676728,1131.76821394269404663646,1121.96250804929650257691,1132.61862623632146096497,1137.23143984423586516641,-6.42896581211985029824518,-156.359392985590289981701,1083.42399062519280050765,-117.205358348840263715829,150.71556780216306492548
3.73499999999999987565502,-1.69349010245513076355905,-0.166189496337657394153808,-1.02573086040367167370846,-0.0271555655210329767446087,-0.00910095200084915303961886,0.00318751707806382098692177,0.00399212354260076920237088,-0.00587368608211561501336595,-0.995186013195327623392927,-0.0977452594781846317850693,-0.0686311176583268289785877,-0.00767391766851415607630926,9.81993821863803439953244,-0.00612280146788676815639008,-0.0289385576143109529700936,0.00587149023865959820284166,3.66648411998660472832512,4.86729491403787939418635,1.18650312984790051729078,1131.63688888610499816423,1121.52410964205273558036,1135.54397418418670895335,1137.09053045949940496939,-97.121800185816752559731,-153.137088388337929245608,1014.72393360438650233846,12.5841770590332693302571,150.717651006880089425977
3.73750000000000026645353,-1.48196128488272438339379,0.0257738590134087598715329,-1.05767454260538351640264,-0.0299041898520260307492435,-0.00966136898058413823298096,0.000319249508939956603854188,0.00399957510600066658279506,-0.00582342138583412383123772,-0.995185316366828165435265,-0.097755129079377819922847,-0.0679368077271916004367114,-0.00719774437054757770804159,9.81587283635895957445427,-0.00621390611089894101537467,-0.0290750037766902037772443,0.00590619883802096911490365,3.66651283082493772980115,4.86736455999465533750481,1.18651979906429794198175,1131.28260494176493011764,1121.19682260735476120317,1137.69224590434373567405,1137.29436072953103575855,-194.037402873150853110928,-116.028068586357576918999,761.116290655121247255011,143.423611947118246234822,150.719422702510712497315
3.74000000000000021316282,-1.23945995677496800801975,0.223772641699290675276757,-0.969562005801930415493928,-0.0328674424698882083895057,-0.00860780154866100204180679,-0.00226989384078857053470002,0.00400765724372343073306224,-0.00577944658915775788532443,-0.995184252667717150764304,-0.0977682629958747939635799,-0.0674986247145858420104503,-0.00685423784440081923508004,9.8118272124032497316648,-0.00630591313293691821395548,-0.0292107079967530575137502,0.00592501538119802849402529,3.66654039937595044307272,4.86743245055730344716949,1.18653716341732540229259,1130.66670187173917838663,1120.94396929912090854486,1139.34955563746257212188,1137.80764851923504465958,-323.243584668086953115562,-97.3237060070935342537268,592.946790034979017036676,285.492488576534640287719,150.721228712405860505896
3.74250000000000015987212,-0.901484089592536008694879,0.418099287119475637730659,-0.738521242674807343320253,-0.0368127530968824501211856,-0.00614370051594610288442366,-0.00529103114215647481882732,0.00401427977815862601501662,-0.00573970611497395897387941,-0.995183292903454752575954,-0.0977800693030997786214797,-0.067266168812351312400466,-0.00666612154976554266427868,9.80782094804952464528469,-0.0064014599789866139661898,-0.0293481005550188557562397,0.00592752739469941478805959,3.666567163413306573716,4.86749925919327264267622,1.18655455588466463012765,1129.66638701842452974233,1120.71020407731930390582,1140.65697985451856766304,1138.72182317241367854876,-398.351237619462438033224,-82.092497055966234142943,360.08444584291140699861,369.712026763644360016769,150.723431800727496465697
3.74500000000000010658141,-0.575895215760424683537622,0.521573995923330535617879,-0.455812684266175438541069,-0.040063754618143897212601,-0.0037878303245348714754781,-0.00763527607030785749470114,0.00402113007930968938824501,-0.00570176583916025877390998,-0.995182945058651791114812,-0.0977854541788389236556256,-0.0672563623728527071321537,-0.00666594288083682817713793,9.80387362468412071336843,-0.00650293951773958222445371,-0.0294893420776334742872127,0.00591372254202924239885331,3.66659317859751610058083,4.86756595334937003372033,1.18657199767699483849981,1128.67494568364190854481,1120.53350681384108611383,1141.14997786667709078756,1139.65620865305322695349,-409.928271407452143648698,-78.4179695163873873298144,74.9975090798686778725823,382.4106133051909068854,150.725294417091845389223
3.74750000000000005329071,-0.21721887037213621907128,0.558911385761143186812205,-0.107536428172430031935392,-0.0421979852601740354489657,-0.00176596620643028031152899,-0.00906346729599561556911524,0.0040314235486338632907799,-0.00566373936746162025962503,-0.995183561173856978676611,-0.097780825646331684386503,-0.0675119730428668796129443,-0.00687485349938916912027054,9.80000432664426135431768,-0.00661221773509809707114471,-0.0296361620815620979696448,0.00588408628628163486024016,3.66661866141848857836294,4.86763294921729539055377,1.18658895856617596642479,1127.61674566138731279352,1120.31811422973737535358,1141.03196739991790309432,1140.63387623893959244015,-456.500632128209588245227,-113.477857319324044738096,-183.716714132746631094051,399.733063621314954616537,150.727180470555481406336
3.75,0.209060949617410479772772,0.541667127119663471823685,0.336519616406291077748136,-0.0423983604516011483576143,6.40553989242635863927272e-05,-0.0087602897032246045128101,0.00404538185425331979494512,-0.00562578641584920383783563,-0.995185221684416587706323,-0.0977653601182545684000758,-0.0680172551392929924940489,-0.00726601051993991386979133,9.79623175704437265665092,-0.00673037565722921921063104,-0.0297897747116748837226119,0.00583972951528532752824008,3.6666441917293042251913,4.86769962612460727058306,1.18660419808990980072849,1126.39244252300090920471,1119.96611752724447796936,1140.23139429601337724307,1141.65487397115975909401,-425.914021850721837836318,-146.725116743349133230367,-391.656013002702081848838,318.521402450239691006573,150.729465570864192613953
3.75249999999999994670929,0.520223190512305144750371,0.492643126750637483368678,0.68658155780655105715482,-0.0405992087394908898745349,0.00113448784060186610468668,-0.00694927779501208504192578,0.00406571619084383859693554,-0.00558922850463658589525995,-0.995187929293065987046418,-0.0977388569514117677705656,-0.068804435593933455095339,-0.00779318067914609030610862,9.79257196626985937371046,-0.00685782310607468536395315,-0.0299508027674121705963284,0.0057820803923471922672328,3.66667058628253261787222,4.86776606460634475581628,1.18661762313262131307567,1125.48717555213374907908,1119.58448864602064531937,1139.07368733490443446499,1142.22648325119075707335,-326.715159930934248677659,-166.869175839477890121998,-544.302040482227994289133,141.783262449692585960292,150.731384340232807517168
3.75499999999999989341859,0.743916361842160256401257,0.428150752629268771531912,0.971388989573821692857791,-0.0375865784427124455246982,0.00179619510055956110861075,-0.00411581786313527930865064,0.00409566324333450557798608,-0.00555158862022321012569259,-0.995191259630884172970866,-0.0977056570209901692480869,-0.0699069272900224303324279,-0.0084857111413205316141628,9.78903869611376364900934,-0.00699405816274497119100495,-0.0301193183012102919104969,0.00571240020619246183231077,3.66669847271334692351274,4.86783290010701286121275,1.18663019175012918182688,1124.75886672334627292003,1119.13177164804710628232,1137.50988409360229525191,1142.3637902834082069603,-259.786741938369914350915,-186.139072179354286618036,-672.322990289376434702717,-27.6944585047185185544549,150.733314100050677097897
3.75750000000000028421709,0.878718470886381552986677,0.362555107456092429174532,1.17773433022733109432068,-0.034295233085581279530718,0.00214034619932087404395316,-0.000637004949037702633551916,0.00413642893209655634206845,-0.00551129486672253740553451,-0.995194706738501855269874,-0.0976709765110438249413605,-0.0713197430388350095409322,-0.00935244914786326209110712,9.78564305948509982613359,-0.00713798595430444656612101,-0.0302947287112248601903541,0.00563192935147864472827939,3.66672860075335771412597,4.8679004945242683177753,1.18664287396895429260724,1124.18824184244181196846,1118.6537932851238110743,1135.71207238345732548623,1142.08801095866715513694,-194.892680231565037729524,-187.94701888704008752029,-746.092283767615867873246,-206.084289308214209768266,150.735250152832549019877
3.76000000000000023092639,0.907891523944496015019467,0.30195086459475517504103,1.27343927262035405689744,-0.0313019647633444655920876,0.00240456409889030662749287,0.00333091087606985063879206,0.00418123798868641309567362,-0.00546925858745831924845326,-0.995197718976804646118239,-0.0976406854614739055930883,-0.0728876944265958170987574,-0.0103408233778872205022026,9.7823947577000769371125,-0.00728807901936555976168952,-0.0304758266023391136134713,0.00554206319343101150992625,3.66676104825939308540228,4.86796917527327455132991,1.18665578715337449722256,1123.78440332218838193512,1118.19203655361184246431,1133.7794226747639640962,1141.33336883686706642038,-151.71967580577398848618,-190.300268766536163411729,-841.938732420448786797351,-418.324931157903677103604,150.737190647528223053087
3.76250000000000017763568,0.843696008839383781996446,0.232316280858911095030805,1.25889681036593592544648,-0.0284268161071666476680253,0.00309923483046745627811358,0.00813275532865038314200845,0.00422195837936668611628521,-0.00542996971644545047691599,-0.995199983557002121337121,-0.0976180754266795652762667,-0.0744375515918121455349876,-0.01132862349079960528897,9.77930000913097963177734,-0.00744289990209516180708071,-0.0306608747201968928619564,0.0054443382013060603180632,3.66679494871096878227945,4.86803889396667610611757,1.18666877437793250038567,1123.4296434634129582264,1117.70229194129115057876,1131.50237872135517136485,1139.9963863028776813735,-119.738392113324891852244,-166.377996802570038425984,-800.829667153192303885589,-533.697731539371034159558,150.739520639843902927169
3.76500000000000012434498,0.732278308022782931097083,0.170861067357875345829044,1.1519183543553113135971,-0.0266703004306727727013016,0.00408168261275838883950229,0.0115826257777972146945089,0.00425679137327177395389022,-0.00539322554625052113380645,-0.995201507612444857819867,-0.0976031609600450100749924,-0.0759125465420966982765805,-0.0123002733152639889824265,9.77636007014999997011273,-0.00760141131063931003997158,-0.0308478414861705144134341,0.00533984394793698795289583,3.6668297899916995064018,4.86811005156256904058409,1.18668222405994217005798,1123.18571136162177026563,1117.36014656959901003574,1129.7752743389980878419,1138.664880179170268093,-98.8171859572524340364907,-125.521724954481157965347,-627.541672160045663986239,-536.516792959867075296643,150.741460969282798032509
3.76750000000000007105427,0.591406864776047980214457,0.102387187154481335005229,0.974555293806238731590952,-0.025495555808351749726981,0.00517164493753349222698867,0.0138679911031930822029601,0.00428782510735490653142055,-0.00535578470740719590759138,-0.995202432776508882916744,-0.0975945943412049460308211,-0.0773281396171076329526528,-0.013310551367873880990178,9.77357168957295030509158,-0.00776293179084047886562292,-0.0310345588287119500403577,0.00522943434846765906054422,3.66686556834442445307332,4.86818280548112181094211,1.18669577714564011827747,1122.93555753362670657225,1117.07468331651875814714,1128.36467036055501012015,1137.31380233807840340887,-118.494155501732876700771,-119.195829759294426253291,-521.166421866712198607274,-549.943081676804354174237,150.743397180182796546433
3.77000000000000001776357,0.418223067265426906580217,0.0212456496356428665983618,0.716126379365309650992799,-0.0246766837187625751037778,0.00578789427921865343162899,0.0154172246959596668386405,0.00431399226399204176879421,-0.00532105291806494844208952,-0.995203195303688170625378,-0.0975877770745653128070529,-0.0786537695149333304645012,-0.014282293904230684844503,9.77092836697582001193041,-0.00792722735601797574844785,-0.0312187630964228558794193,0.00511453342990877361101676,3.6669013136459804869105,4.86825734540929655480568,1.18670923948324791297182,1122.59324058411311852979,1116.76416742080255062319,1127.16944222966458255542,1135.91516477078630487085,-130.872422371615414249391,-113.343247303012191196103,-340.059269760156894335523,-445.599738086967079198075,150.745712653849579965026
3.77249999999999996447286,0.285793963628519775976855,-0.0307923843210124899283375,0.481926357509133318490768,-0.0243417012974211262321678,0.00553321419096696603956431,0.0162887609796842740272904,0.00433145707655714293227156,-0.00529410430203865797066376,-0.99520390258529001226151,-0.0975814878941811264523309,-0.0798109048323080716436095,-0.0151052144640921003071465,9.76842105181857078832763,-0.00809404609246494773089342,-0.0313984553149048994935555,0.00499688814970707627372004,3.66693637231228963813123,4.8683339645608789680864,1.18672226844607520135355,1122.28119542176864342764,1116.50796708000370927039,1126.66437401175426202826,1135.08580364764361547714,-120.273039132419228280924,-104.774690513570433836321,-87.249873164821153181947,-240.709392453896413144321,150.74763282706496170249
3.77499999999999991118216,0.17523377837700349068939,-0.0480835343823985544853272,0.239848836311671365084663,-0.0242089964264141435656974,0.00488249109740077503333255,0.0171189276695464867583674,0.00434064253206956681546691,-0.00527547880603310582331433,-0.995204311709110278627577,-0.097578131230296280551606,-0.0807979510511329934718816,-0.0157693877523365430515234,9.76603700186668000071677,-0.00826300182350835597799854,-0.0315721911950035960536809,0.00487804518511701819261095,3.66697139837716745702778,4.86841222241280391358487,1.18673479767273382101678,1121.99187538845103517815,1116.24029396823470960953,1126.73319286384048609762,1134.71161780851684852678,-103.00772708983679137873,-118.352827020774185484697,168.522795033553791199665,-59.8751817214646564480063,150.74953938989187918196
3.77749999999999985789145,0.0691453795176035918013113,-0.0154088589544016801857751,-0.0524020471084185590626703,-0.0241919511826570246548762,0.00395106204824341791792541,0.0178772936257608275334441,0.00434420822585315433150832,-0.00526176207178963815935813,-0.995204381831750972686734,-0.0975781698696246424518108,-0.0816522012201097158179408,-0.0163479176727300973270829,9.76376082883471241302686,-0.00843374239738097636331915,-0.0317391842586198444364776,0.00475939242883764712654937,3.66700714315599185511019,4.86849212102467365781422,1.18674658799172538792277,1121.76615678631947048416,1115.91620294489985099062,1127.50698798692201307858,1134.78642773903629858978,-46.7703518172097858496272,-114.728246985252084755302,394.241780525654348821263,97.7169563261147686716868,150.751806276515821991779
3.78000000000000024868996,-0.000900646767426502292686052,0.0572560000937986160463034,-0.289183393305676272877491,-0.024224516707206270732522,0.00327514865285640464909189,0.0179316763060669986939999,0.0043439719792071262646771,-0.00524918757843016812320025,-0.99520405239587639290022,-0.0975823351412343498179069,-0.0823967909511250651277692,-0.0169203739269282761592539,9.76157586553326694911448,-0.00860572610864920352347074,-0.0318994860063321408749637,0.00464238792936899017510521,3.66704447068297945122595,4.86857255695463742029006,1.18675698659565576065233,1121.75802362936497047485,1115.66665273330841046118,1128.70440176646889085532,1135.20020259014745533932,50.853136457632196254508,-88.6054779358741342321082,574.500601848064775367675,204.633147075296449202142,150.753673509099286320634
3.78250000000000019539925,-0.0596262650747880901258569,0.16646619807841070426413,-0.50201139436043629160622,-0.0241349209508455071759858,0.00309525899991690191942473,0.0170792144370509393902502,0.00434021764363348022675027,-0.00523640102614952949316995,-0.995203456591129520525385,-0.0975893261205591638907109,-0.0830325852515819140542419,-0.0175161139434127713365719,9.75946513951264194020041,-0.00877843364092116551500311,-0.0320540361644498436599626,0.0045286200798203817691201,3.6670831257308020845187,4.86865201621522292185773,1.18676512717706916788529,1122.02042246860764862504,1115.47317555522045040561,1130.37949099616253079148,1135.80959347441284990055,157.626616721748803229275,-63.3781981273855166136855,723.349368763608254084829,247.961743145520642883639,150.755512263897855973482
3.78500000000000014210855,-0.114620165729084996786291,0.290545475223801585862304,-0.678624698013624239045782,-0.0240178547288946858673242,0.00358221524523254881630652,0.0154647384741713241756988,0.00433383298512683787923061,-0.00522154707483227838865636,-0.995202783361337051104556,-0.0975972820896131715295851,-0.0835740247822346071782107,-0.0181742307663919737403813,9.75741220362569094959326,-0.0089514229024338191897936,-0.0322046639650549262889889,0.00441933913324735888616956,3.66712176366933606530552,4.86872959582004849465875,1.18677031632395468818686,1122.54615671297369772219,1115.34976174267148962826,1132.3211486102868548187,1136.44001130587503212155,273.417274230229338627396,-27.6770906907592220136394,796.538717376341651288385,229.021940249963677160849,150.757322595518729713149
3.78750000000000008881784,-0.168285957780399064720456,0.410215292664749708873018,-0.792604187495858036882623,-0.0240783482095128266442519,0.00483271677787205401755077,0.0131204050487384021178583,0.00432696346140211147296428,-0.00520192779472525203970923,-0.995202141605656676048852,-0.0976051572149831125901898,-0.0840609264688179647073696,-0.0189508499579387132416564,9.75540237471853188822024,-0.00912430738402774700601672,-0.0323538739509676293026885,0.00431507319121061765077041,3.66715962131903783216558,4.86880500112506897636422,1.18677326797758664334026,1123.38750883975876604381,1115.3347901017666572443,1134.36218458304415435123,1136.95470317566264384368,425.820362975500756874681,25.5338931708598444458858,854.863493652574106818065,178.920455542860679543082,150.759092264016487661138
3.79000000000000003552714,-0.229302827661665820091486,0.524040348856780524577914,-0.840718882405219192222035,-0.0242555057879986768476499,0.00692876130046175126020458,0.00973472329334207353568331,0.00432250317278262512210585,-0.00517391496326225289181799,-0.995201668560111163408521,-0.0976116322237099154346396,-0.0845482043897883006611238,-0.019919048737714460661774,9.75342443603151210140823,-0.0092967649709901883231522,-0.0325044716560241864211633,0.00421529100242892286465324,3.66719685435281261831619,4.86887884479145505167708,1.18677526214573170193489,1124.67525852785115603183,1115.47743120852578613267,1136.59546607854963440332,1137.33461358358931647672,492.710879562911543416703,85.7107561271750597597929,737.681571082355048929458,97.3591423465698255768075,150.761160048876575956456
3.79249999999999998223643,-0.271677609510641238088624,0.583332731655923364399996,-0.805183380929651804081004,-0.0244873680462965419291077,0.00888087211532279791059707,0.00686021718157691848261059,0.00431852221787626562587992,-0.00513838156423503718966961,-0.995201570493424281238504,-0.0976146361176460780617603,-0.0850077527331933868737224,-0.021052516727521310840876,9.75147349344110914159955,-0.00946842186284134641749421,-0.0326591444049584289643917,0.00411867927284387345260308,3.66723363355309084354872,4.86895103349435043327276,1.18677767942886069896247,1125.85106323757327118074,1115.7633438824025233771,1138.05059243845585115196,1137.44149888739548259764,448.078074796522287215339,156.588218549544450297617,461.03534179411400373283,8.88960874681307267053398,150.76283020515282373708
3.79499999999999992894573,-0.292808079666132092810926,0.603476183413724109882992,-0.703735192239240303635484,-0.0251715338201856514421806,0.0105187947440507807705945,0.00470077155495892719250239,0.00431515132344157097826765,-0.00509858542556933854589252,-0.995201947375109585713915,-0.0976129589501680827723362,-0.0854576761053283673330583,-0.0222804523195078395259028,9.74955048186066797200056,-0.00963871231860417669590202,-0.0328201932290486664278717,0.00402284395447302049048099,3.6672709325407031322186,4.86902168718988725970576,1.18678195187932455922919,1126.91564890183371971943,1116.26037230127349175746,1138.90064278752015525242,1137.37906162732338088972,385.476385351156807246298,268.689859055672343401966,224.12673134286274034821,-47.3439336863985857917214,150.764437785934035218816
